Sl_no,image_path,thisN,thisTrialN,thisRepN,key_resp_5.keys,key_resp_7.keys,key_resp_7.rt,key_resp_7.duration,key_resp_5.rt,key_resp_5.duration,key_resp_9.keys,key_resp_9.rt,key_resp_9.duration,key_resp_8.keys,key_resp_8.rt,key_resp_8.duration,practice.thisRepN,practice.thisTrialN,practice.thisN,trials.thisRepN,trials.thisTrialN,trials.thisN,thisRow.t,notes,welcome_page.started,text.started,key_resp.started,welcome_page.stopped,key_resp.keys,key_resp.rt,key_resp.duration,instructions.started,ins.started,key_resp_2.started,instructions.stopped,key_resp_2.keys,key_resp_2.rt,key_resp_2.duration,objects_only_instruction.started,text_3.started,key_resp_3.started,objects_only_instruction.stopped,key_resp_3.keys,key_resp_3.rt,key_resp_3.duration,ISI.started,text_4.started,ISI.stopped,practice_block.started,image.started,key_resp_5.started,text_5.started,practice_block.stopped,practice.key_resp_5.keys,indoor_outdoor.started,text_7.started,key_resp_7.started,indoor_outdoor.stopped,practice.key_resp_7.keys,practice.key_resp_7.rt,practice.key_resp_7.duration,text_4.stopped,practice.key_resp_5.rt,practice.key_resp_5.duration,practice_to_main.started,text_2.started,key_resp_4.started,practice_to_main.stopped,key_resp_4.keys,key_resp_4.rt,key_resp_4.duration,objects.started,image_2.started,text_9.started,key_resp_9.started,objects.stopped,category,trials.key_resp_9.keys,trials.key_resp_9.rt,trials.key_resp_9.duration,encoding_task.started,encoding_task.stopped,trials.key_resp_8.keys,text_8.started,key_resp_8.started,trials.key_resp_8.rt,trials.key_resp_8.duration,end_experiment.started,text_6.started,key_resp_6.started,end_experiment.stopped,key_resp_6.keys,key_resp_6.rt,key_resp_6.duration,list_of_stimuli,encoding_task_accuracy,participant,session,date,expName,psychopyVersion,frameRate,expStart,
,,,,,,,,,,,,,,,,,,,,,,,,,0.0017664999977569096,0.004045800000312738,0.004045800000312738,53.24609999999666,space,52.84022030000051,None,,,,,,,,,,,,,,,,,,,,,,,,,,,,,,,,,,,,,,,,,,,,,,,,,,,,,,,,,,,,,,,,,,00038,001,2026-01-17_11h13.54.018,MST_task,2024.2.0,59.91988710953598,2026-01-17 11h14.23.830556 +0530,
,,,,,,,,,,,,,,,,,,,,,,,,,,,,,,,,53.246235599996,53.26163419999648,53.26163419999648,94.54732719999447,space,41.26997870000196,None,,,,,,,,,,,,,,,,,,,,,,,,,,,,,,,,,,,,,,,,,,,,,,,,,,,,,,,,,,,00038,001,2026-01-17_11h13.54.018,MST_task,2024.2.0,59.91988710953598,2026-01-17 11h14.23.830556 +0530,
,,,,,,,,,,,,,,,,,,,,,,,,,,,,,,,,,,,,,,,94.54745639999601,94.56341509999766,94.56341509999766,138.18142660000012,space,43.60865329999797,None,,,,,,,,,,,,,,,,,,,,,,,,,,,,,,,,,,,,,,,,,,,,,,,,,,,,00038,001,2026-01-17_11h13.54.018,MST_task,2024.2.0,59.91988710953598,2026-01-17 11h14.23.830556 +0530,
6,practice_images/158a.jpg,0,0,1,None,j,2.0346309000015026,None,,,,,,,,,1,0,0,,,,138.4706739999965,,,,,,,,,,,,,,,,,,,,,,,138.46511800000007,138.4706739999965,138.6956554999997,138.77685379999457,138.8117923999962,138.8117923999962,138.8117923999962,141.69610599999578,None,141.70094999999856,141.71237819999806,141.71237819999806,143.76358899999468,j,2.0346309000015026,None,,,,,,,,,,,,,,,,,,,,,,,,,,,,,,,,,,,,00038,001,2026-01-17_11h13.54.018,MST_task,2024.2.0,59.91988710953598,2026-01-17 11h14.23.830556 +0530,
10,practice_images/182a.jpg,1,1,1,None,f,0.21914970000216272,None,,,,,,,,,1,1,1,,,,143.7790320999993,,,,,,,,,,,,,,,,,,,,,,,143.7637082000001,143.7790320999993,144.26348940000025,144.439191999998,144.4417844999989,144.4417844999989,144.4417844999989,147.279117399994,None,147.27922899999976,147.29572909999843,147.29572909999843,147.53026079999836,f,0.21914970000216272,None,144.4417844999989,,,,,,,,,,,,,,,,,,,,,,,,,,,,,,,,,,,00038,001,2026-01-17_11h13.54.018,MST_task,2024.2.0,59.91988710953598,2026-01-17 11h14.23.830556 +0530,
4,practice_images/002b.jpg,2,2,1,None,f,1.0609417000014219,None,,,,,,,,,1,2,2,,,,147.54568879999715,,,,,,,,,,,,,,,,,,,,,,,147.53037989999575,147.54568879999715,148.03013929999724,148.26081110000086,148.26424629999383,148.26424629999383,148.26424629999383,151.04577629999403,None,151.04583169999387,151.06244650000008,151.06244650000008,152.13103129999945,f,1.0609417000014219,None,148.26424629999383,,,,,,,,,,,,,,,,,,,,,,,,,,,,,,,,,,,00038,001,2026-01-17_11h13.54.018,MST_task,2024.2.0,59.91988710953598,2026-01-17 11h14.23.830556 +0530,
7,practice_images/166a.jpg,3,3,1,f,None,,,2.948260500001197,None,,,,,,,1,3,3,,,,152.1457511999979,,,,,,,,,,,,,,,,,,,,,,,152.13142009999865,152.1457511999979,152.62957889999961,152.6604662999962,152.6637797000003,152.6637797000003,152.6637797000003,155.64626080000016,f,155.64641899999697,,,155.6464674999952,None,,,152.6637797000003,2.948260500001197,None,,,,,,,,,,,,,,,,,,,,,,,,,,,,,,,,,00038,001,2026-01-17_11h13.54.018,MST_task,2024.2.0,59.91988710953598,2026-01-17 11h14.23.830556 +0530,
9,practice_images/180a.jpg,4,4,1,None,f,2.1524935999987065,None,,,,,,,,,1,4,4,,,,155.66244649999862,,,,,,,,,,,,,,,,,,,,,,,155.64667740000004,155.66244649999862,156.1464726999984,156.19233309999981,156.19500019999396,156.19500019999396,156.19500019999396,159.16258340000059,None,159.16268069999933,159.1789992999984,159.1789992999984,161.34626019999996,f,2.1524935999987065,None,156.19500019999396,,,,,,,,,,,,,,,,,,,,,,,,,,,,,,,,,,,00038,001,2026-01-17_11h13.54.018,MST_task,2024.2.0,59.91988710953598,2026-01-17 11h14.23.830556 +0530,
5,practice_images/139a.jpg,5,5,1,None,j,1.1245373999990989,None,,,,,,,,,1,5,5,,,,161.36237199999596,,,,,,,,,,,,,,,,,,,,,,,161.34635799999523,161.36237199999596,161.84682669999893,162.13100109999505,162.13320369999565,162.13320369999565,162.13320369999565,164.8628852999973,None,164.8687820999985,164.87909239999863,164.87909239999863,166.01425019999442,j,1.1245373999990989,None,162.13320369999565,,,,,,,,,,,,,,,,,,,,,,,,,,,,,,,,,,,00038,001,2026-01-17_11h13.54.018,MST_task,2024.2.0,59.91988710953598,2026-01-17 11h14.23.830556 +0530,
2,practice_images/031a.jpg,6,6,1,j,None,,,2.7771910000010394,0.11176709999563172,,,,,,,1,6,6,,,,166.02908580000076,,,,,,,,,,,,,,,,,,,,,,,166.01453319999564,166.02908580000076,166.51332589999947,166.54394859999593,166.5464953999981,166.5464953999981,166.5464953999981,169.52986009999586,j,169.5299853999968,,,169.53003360000002,None,,,166.5464953999981,2.7771910000010394,0.11176709999563172,,,,,,,,,,,,,,,,,,,,,,,,,,,,,,,,,00038,001,2026-01-17_11h13.54.018,MST_task,2024.2.0,59.91988710953598,2026-01-17 11h14.23.830556 +0530,
1,practice_images/013a.jpg,7,7,1,None,j,0.22092760000668932,None,,,,,,,,,1,7,7,,,,169.54562249999435,,,,,,,,,,,,,,,,,,,,,,,169.5302675999992,169.54562249999435,170.03024549999827,170.0760427999994,170.07916280000063,170.07916280000063,170.07916280000063,173.04580819999683,None,173.04590669999743,173.06230030000006,173.06230030000006,173.297026799999,j,0.22092760000668932,None,170.07916280000063,,,,,,,,,,,,,,,,,,,,,,,,,,,,,,,,,,,00038,001,2026-01-17_11h13.54.018,MST_task,2024.2.0,59.91988710953598,2026-01-17 11h14.23.830556 +0530,
8,practice_images/178a.jpg,8,8,1,f,None,,,1.9467882999961148,0.09596679999958724,,,,,,,1,8,8,,,,173.31216049999784,,,,,,,,,,,,,,,,,,,,,,,173.29729689999658,173.31216049999784,173.7965852999987,173.83686699999816,173.8400174999988,173.8400174999988,173.8400174999988,176.8128452999954,f,176.81299849999778,,,176.81306629999744,None,,,173.8400174999988,1.9467882999961148,0.09596679999958724,,,,,,,,,,,,,,,,,,,,,,,,,,,,,,,,,00038,001,2026-01-17_11h13.54.018,MST_task,2024.2.0,59.91988710953598,2026-01-17 11h14.23.830556 +0530,
3,practice_images/037a.jpg,9,9,1,f,None,,,2.217466299996886,0.13591530000121566,,,,,,,1,9,9,,,,176.82913700000063,,,,,,,,,,,,,,,,,,,,,,,176.8133949999974,176.82913700000063,177.31285149999894,177.3362130999958,177.3385874999949,177.3385874999949,177.3385874999949,180.3294037999949,f,180.32953319999797,,,180.3295908,None,,,177.3385874999949,2.217466299996886,0.13591530000121566,,,,,,,,,,,,,,,,,,,,,,,,,,,,,,,,,00038,001,2026-01-17_11h13.54.018,MST_task,2024.2.0,59.91988710953598,2026-01-17 11h14.23.830556 +0530,
,,,,,,,,,,,,,,,,,,,,,,,,,,,,,,,,,,,,,,,,,,,,,,,,,,,,,,,,,,,,,,,,,180.3297590000002,180.34552089999488,180.34552089999488,220.330827699996,space,39.970323300003656,None,,,,,,,,,,,,,,,,,,,,,,,,,,00038,001,2026-01-17_11h13.54.018,MST_task,2024.2.0,59.91988710953598,2026-01-17 11h14.23.830556 +0530,
,Objects\136a.jpg,0,0,1,,,,,,,f,2.298320399997465,0.14364999999816064,None,,,,,,1,0,0,220.34585610000067,,,,,,,,,,,,,,,,,,,,,,,220.33389899999747,220.34585610000067,220.82990459999564,,,,,,,,,,,,,,220.873044699998,,,,,,,,,,220.86918679999508,220.873044699998,220.873044699998,220.873044699998,223.84654619999492,indoor,f,2.298320399997465,0.14364999999816064,223.8486505999972,223.84867300000042,None,,,,,,,,,,,,,,00038,001,2026-01-17_11h13.54.018,MST_task,2024.2.0,59.91988710953598,2026-01-17 11h14.23.830556 +0530,
,Objects\075a.jpg,1,0,2,,,,,,,None,,,j,0.2160860000003595,None,,,,2,0,1,223.8623953999995,,,,,,,,,,,,,,,,,,,,,,,223.8487651999967,223.8623953999995,224.346747399999,,,,,,,,,,,,,,224.3814429999984,,,,,,,,,,224.3783062999937,224.3814429999984,224.3814429999984,224.3814429999984,227.36265640000056,indoor,None,,,227.36281109999982,227.59744579999824,j,227.3791928999999,227.3791928999999,0.2160860000003595,None,,,,,,,,,,00038,001,2026-01-17_11h13.54.018,MST_task,2024.2.0,59.91988710953598,2026-01-17 11h14.23.830556 +0530,
,Objects\173a.jpg,2,0,3,,,,,,,f,1.9861313000001246,0.1753792999952566,None,,,,,,3,0,2,227.61238709999452,,,,,,,,,,,,,,,,,,,,,,,227.59774990000005,227.61238709999452,228.09688529999403,,,,,,,,,,,,,,228.14513079999597,,,,,,,,,,228.14211049999722,228.14513079999597,228.14513079999597,228.14513079999597,231.11293029999797,indoor,f,1.9861313000001246,0.1753792999952566,231.11309639999672,231.11313769999833,None,,,,,,,,,,,,,,00038,001,2026-01-17_11h13.54.018,MST_task,2024.2.0,59.91988710953598,2026-01-17 11h14.23.830556 +0530,
,Objects\356a.jpg,3,0,4,,,,,,,j,2.289069099999324,0.14476009999634698,None,,,,,,4,0,3,231.12903430000006,,,,,,,,,,,,,,,,,,,,,,,231.11331919999793,231.12903430000006,231.61347229999956,,,,,,,,,,,,,,232.07367220000015,,,,,,,,,,232.07107049999468,232.07367220000015,232.07367220000015,232.07367220000015,234.62952109999605,indoor,j,2.289069099999324,0.14476009999634698,234.62970179999684,234.629772399996,None,,,,,,,,,,,,,,00038,001,2026-01-17_11h13.54.018,MST_task,2024.2.0,59.91988710953598,2026-01-17 11h14.23.830556 +0530,
,Objects\148a.jpg,4,0,5,,,,,,,f,2.8320478000023286,None,None,,,,,,5,0,4,234.6457429000002,,,,,,,,,,,,,,,,,,,,,,,234.63001209999493,234.6457429000002,235.1301569999996,,,,,,,,,,,,,,235.19597009999416,,,,,,,,,,235.19266889999562,235.19597009999416,235.19597009999416,235.19597009999416,238.14622809999855,indoor,f,2.8320478000023286,None,238.1463797999968,238.146424999999,None,,,,,,,,,,,,,,00038,001,2026-01-17_11h13.54.018,MST_task,2024.2.0,59.91988710953598,2026-01-17 11h14.23.830556 +0530,
,Objects\101a.jpg,5,0,6,,,,,,,f,2.1824504999967758,0.14442480000434443,None,,,,,,6,0,5,238.16253080000024,,,,,,,,,,,,,,,,,,,,,,,238.14662739999767,238.16253080000024,238.6469766999944,,,,,,,,,,,,,,238.70052289999876,,,,,,,,,,238.6974554999979,238.70052289999876,238.70052289999876,238.70052289999876,241.66305759999523,indoor,f,2.1824504999967758,0.14442480000434443,241.66322799999762,241.6632754999955,None,,,,,,,,,,,,,,00038,001,2026-01-17_11h13.54.018,MST_task,2024.2.0,59.91988710953598,2026-01-17 11h14.23.830556 +0530,
,Objects\226a.jpg,6,0,7,,,,,,,f,2.4128012000001036,None,None,,,,,,7,0,6,241.67914729999757,,,,,,,,,,,,,,,,,,,,,,,241.66350979999697,241.67914729999757,242.16364079999767,,,,,,,,,,,,,,242.63042539999878,,,,,,,,,,242.6272719999979,242.63042539999878,242.63042539999878,242.63042539999878,245.17950729999575,indoor,f,2.4128012000001036,None,245.17963469999813,245.17968269999983,None,,,,,,,,,,,,,,00038,001,2026-01-17_11h13.54.018,MST_task,2024.2.0,59.91988710953598,2026-01-17 11h14.23.830556 +0530,
,Objects\036a.jpg,7,0,8,,,,,,,None,,,f,0.3552279999930761,None,,,,8,0,7,245.19615299999714,,,,,,,,,,,,,,,,,,,,,,,245.1799142999953,245.19615299999714,245.68010979999963,,,,,,,,,,,,,,245.87731699999858,,,,,,,,,,245.8750771999985,245.87731699999858,245.87731699999858,245.87731699999858,248.69614939999883,shoe,None,,,248.70106439999654,249.0810807999951,f,248.71226969999407,248.71226969999407,0.3552279999930761,None,,,,,,,,,,00038,001,2026-01-17_11h13.54.018,MST_task,2024.2.0,59.91988710953598,2026-01-17 11h14.23.830556 +0530,
,Objects\303a.jpg,8,0,9,,,,,,,f,2.7465935000000172,0.14355009999417234,None,,,,,,9,0,8,249.0958124999961,,,,,,,,,,,,,,,,,,,,,,,249.08160689999931,249.0958124999961,249.58020419999957,,,,,,,,,,,,,,249.66513439999835,,,,,,,,,,249.65973129999475,249.66513439999835,249.66513439999835,249.66513439999835,252.59630569999717,shoe,f,2.7465935000000172,0.14355009999417234,252.59648729999753,252.5965578999967,None,,,,,,,,,,,,,,00038,001,2026-01-17_11h13.54.018,MST_task,2024.2.0,59.91988710953598,2026-01-17 11h14.23.830556 +0530,
,Objects\119a.jpg,9,0,10,,,,,,,j,1.482050500002515,0.14296990000002552,None,,,,,,10,0,9,252.61256819999835,,,,,,,,,,,,,,,,,,,,,,,252.59684829999605,252.61256819999835,253.09706259999803,,,,,,,,,,,,,,253.193600599996,,,,,,,,,,253.19008649999887,253.193600599996,253.193600599996,253.193600599996,256.1129503999982,shoe,j,1.482050500002515,0.14296990000002552,256.11312650000036,256.113196899998,None,,,,,,,,,,,,,,00038,001,2026-01-17_11h13.54.018,MST_task,2024.2.0,59.91988710953598,2026-01-17 11h14.23.830556 +0530,
,Objects\302a.jpg,10,0,11,,,,,,,f,2.713653200000408,None,None,,,,,,11,0,10,256.1291347000006,,,,,,,,,,,,,,,,,,,,,,,256.11353229999804,256.1291347000006,256.61305829999765,,,,,,,,,,,,,,256.77814289999515,,,,,,,,,,256.77490289999696,256.77814289999515,256.77814289999515,256.77814289999515,259.6295802999957,shoe,f,2.713653200000408,None,259.6296973999997,259.6297405000005,None,,,,,,,,,,,,,,00038,001,2026-01-17_11h13.54.018,MST_task,2024.2.0,59.91988710953598,2026-01-17 11h14.23.830556 +0530,
,Objects\228a.jpg,11,0,12,,,,,,,None,,,f,0.06539960000372957,None,,,,12,0,11,259.6460076000003,,,,,,,,,,,,,,,,,,,,,,,259.62995979999687,259.6460076000003,260.13026069999614,,,,,,,,,,,,,,260.28741620000073,,,,,,,,,,260.2834750999973,260.28741620000073,260.28741620000073,260.28741620000073,263.14618679999694,shoe,None,,,263.1463514999996,263.2314555999983,f,263.1623560999942,263.1623560999942,0.06539960000372957,None,,,,,,,,,,00038,001,2026-01-17_11h13.54.018,MST_task,2024.2.0,59.91988710953598,2026-01-17 11h14.23.830556 +0530,
,Objects\009a.jpg,12,0,13,,,,,,,f,1.8758336000028066,0.1765086999948835,None,,,,,,13,0,12,263.2457435999968,,,,,,,,,,,,,,,,,,,,,,,263.2316978999952,263.2457435999968,263.7302832999994,,,,,,,,,,,,,,263.8631244999997,,,,,,,,,,263.85996189999423,263.8631244999997,263.8631244999997,263.8631244999997,266.74630819999584,shoe,f,1.8758336000028066,0.1765086999948835,266.7464947999979,266.7466515999986,None,,,,,,,,,,,,,,00038,001,2026-01-17_11h13.54.018,MST_task,2024.2.0,59.91988710953598,2026-01-17 11h14.23.830556 +0530,
,Objects\237a.jpg,13,0,14,,,,,,,f,2.6039578999989317,None,None,,,,,,14,0,13,266.7632711999977,,,,,,,,,,,,,,,,,,,,,,,266.7469734999977,266.7632711999977,267.24673659999826,,,,,,,,,,,,,,267.526758299995,,,,,,,,,,267.52319759999955,267.526758299995,267.526758299995,267.526758299995,270.26289890000044,shoe,f,2.6039578999989317,None,270.2630831999995,270.26313169999776,None,,,,,,,,,,,,,,00038,001,2026-01-17_11h13.54.018,MST_task,2024.2.0,59.91988710953598,2026-01-17 11h14.23.830556 +0530,
,Objects\370a.jpg,14,0,15,,,,,,,f,1.969263899998623,0.2560419000001275,None,,,,,,15,0,14,270.2791644999961,,,,,,,,,,,,,,,,,,,,,,,270.2633575,270.2791644999961,270.76332289999846,,,,,,,,,,,,,,270.8176278999963,,,,,,,,,,270.8138531000004,270.8176278999963,270.8176278999963,270.8176278999963,273.7792788999941,indoor,f,1.969263899998623,0.2560419000001275,273.7820092999973,273.7820591999989,None,,,,,,,,,,,,,,00038,001,2026-01-17_11h13.54.018,MST_task,2024.2.0,59.91988710953598,2026-01-17 11h14.23.830556 +0530,
,Objects\105a.jpg,15,0,16,,,,,,,f,2.1968618000028073,0.2871420999945258,None,,,,,,16,0,15,273.79576979999547,,,,,,,,,,,,,,,,,,,,,,,273.7822815999971,273.79576979999547,274.28010349999386,,,,,,,,,,,,,,274.5029097999941,,,,,,,,,,274.4991635999977,274.5029097999941,274.5029097999941,274.5029097999941,277.296254199995,indoor,f,2.1968618000028073,0.2871420999945258,277.2963559999989,277.2963942999995,None,,,,,,,,,,,,,,00038,001,2026-01-17_11h13.54.018,MST_task,2024.2.0,59.91988710953598,2026-01-17 11h14.23.830556 +0530,
,Objects\090a.jpg,16,0,17,,,,,,,j,1.6857891999970889,0.21583059999829857,None,,,,,,17,0,16,277.3125652999952,,,,,,,,,,,,,,,,,,,,,,,277.2965658999965,277.3125652999952,277.79633699999977,,,,,,,,,,,,,,277.91791349999403,,,,,,,,,,277.91481909999857,277.91791349999403,277.91791349999403,277.91791349999403,280.8128832000002,indoor,j,1.6857891999970889,0.21583059999829857,280.8130581000005,280.8131263999967,None,,,,,,,,,,,,,,00038,001,2026-01-17_11h13.54.018,MST_task,2024.2.0,59.91988710953598,2026-01-17 11h14.23.830556 +0530,
,Objects\195a.jpg,17,0,18,,,,,,,j,2.025665000001027,0.24728499999764608,None,,,,,,18,0,17,280.82916829999886,,,,,,,,,,,,,,,,,,,,,,,280.8134416999965,280.82916829999886,281.31322779999755,,,,,,,,,,,,,,281.6818423000004,,,,,,,,,,281.67889060000016,281.6818423000004,281.6818423000004,281.6818423000004,284.3294012999977,indoor,j,2.025665000001027,0.24728499999764608,284.32957879999594,284.3296476999967,None,,,,,,,,,,,,,,00038,001,2026-01-17_11h13.54.018,MST_task,2024.2.0,59.91988710953598,2026-01-17 11h14.23.830556 +0530,
,Objects\018a.jpg,18,0,19,,,,,,,j,1.8095251000049757,0.20071469999675173,None,,,,,,19,0,18,284.3458504000009,,,,,,,,,,,,,,,,,,,,,,,284.3299840999971,284.3458504000009,284.8302540999939,,,,,,,,,,,,,,284.9216359999991,,,,,,,,,,284.91864299999725,284.9216359999991,284.9216359999991,284.9216359999991,287.84627360000013,indoor,j,1.8095251000049757,0.20071469999675173,287.84640650000074,287.8464548999982,None,,,,,,,,,,,,,,00038,001,2026-01-17_11h13.54.018,MST_task,2024.2.0,59.91988710953598,2026-01-17 11h14.23.830556 +0530,
,Objects\016a.jpg,19,0,20,,,,,,,None,,,j,0.8080087999987882,None,,,,20,0,19,287.86265459999413,,,,,,,,,,,,,,,,,,,,,,,287.8466757999995,287.86265459999413,288.34696979999717,,,,,,,,,,,,,,288.40775239999493,,,,,,,,,,288.4048507999978,288.40775239999493,288.40775239999493,288.40775239999493,291.36254209999606,indoor,None,,,291.36269639999955,292.19711449999886,j,291.37899099999777,291.37899099999777,0.8080087999987882,None,,,,,,,,,,00038,001,2026-01-17_11h13.54.018,MST_task,2024.2.0,59.91988710953598,2026-01-17 11h14.23.830556 +0530,
,Objects\040a.jpg,20,0,21,,,,,,,f,2.1637219000040204,0.1758814999993774,None,,,,,,21,0,20,292.21236159999535,,,,,,,,,,,,,,,,,,,,,,,292.1976161999992,292.21236159999535,292.696878799994,,,,,,,,,,,,,,292.807650799994,,,,,,,,,,292.8048267999984,292.807650799994,292.807650799994,292.807650799994,295.71279639999557,indoor,f,2.1637219000040204,0.1758814999993774,295.7129630999989,295.7130283000006,None,,,,,,,,,,,,,,00038,001,2026-01-17_11h13.54.018,MST_task,2024.2.0,59.91988710953598,2026-01-17 11h14.23.830556 +0530,
,Objects\227a.jpg,21,0,22,,,,,,,f,2.1385697000005166,0.2326251999984379,None,,,,,,22,0,21,295.7290776999944,,,,,,,,,,,,,,,,,,,,,,,295.7133195999995,295.7290776999944,296.2133399999948,,,,,,,,,,,,,,296.32079079999676,,,,,,,,,,296.31741239999974,296.32079079999676,296.32079079999676,296.32079079999676,299.2292282999988,shoe,f,2.1385697000005166,0.2326251999984379,299.2325242000006,299.232554299997,None,,,,,,,,,,,,,,00038,001,2026-01-17_11h13.54.018,MST_task,2024.2.0,59.91988710953598,2026-01-17 11h14.23.830556 +0530,
,Objects\133a.jpg,22,0,23,,,,,,,f,2.4103544000026886,0.21550310000020545,None,,,,,,23,0,22,299.24590129999706,,,,,,,,,,,,,,,,,,,,,,,299.232669099998,299.24590129999706,299.73021549999976,,,,,,,,,,,,,,299.84135239999887,,,,,,,,,,299.8378983999937,299.84135239999887,299.84135239999887,299.84135239999887,302.7460881999941,shoe,f,2.4103544000026886,0.21550310000020545,302.7462655999989,302.74629899999854,None,,,,,,,,,,,,,,00038,001,2026-01-17_11h13.54.018,MST_task,2024.2.0,59.91988710953598,2026-01-17 11h14.23.830556 +0530,
,Objects\189a.jpg,23,0,24,,,,,,,j,1.5118669000003138,0.21549400000367314,None,,,,,,24,0,23,302.7623564999958,,,,,,,,,,,,,,,,,,,,,,,302.74644999999873,302.7623564999958,303.24673379999876,,,,,,,,,,,,,,303.30769139999757,,,,,,,,,,303.30334220000077,303.30769139999757,303.30769139999757,303.30769139999757,306.26297959999647,shoe,j,1.5118669000003138,0.21549400000367314,306.2631072000004,306.2631542999952,None,,,,,,,,,,,,,,00038,001,2026-01-17_11h13.54.018,MST_task,2024.2.0,59.91988710953598,2026-01-17 11h14.23.830556 +0530,
,Objects\135a.jpg,24,0,25,,,,,,,f,1.6329776999991736,0.2400643000000855,None,,,,,,25,0,24,306.27921429999697,,,,,,,,,,,,,,,,,,,,,,,306.26346859999467,306.27921429999697,306.76348199999484,,,,,,,,,,,,,,306.90650549999555,,,,,,,,,,306.90361329999723,306.90650549999555,306.90650549999555,306.90650549999555,309.77956699999777,shoe,f,1.6329776999991736,0.2400643000000855,309.7796808999992,309.77972359999694,None,,,,,,,,,,,,,,00038,001,2026-01-17_11h13.54.018,MST_task,2024.2.0,59.91988710953598,2026-01-17 11h14.23.830556 +0530,
,Objects\278a.jpg,25,0,26,,,,,,,j,2.5199196000030497,0.2002193999942392,None,,,,,,26,0,25,309.79598039999837,,,,,,,,,,,,,,,,,,,,,,,309.77999689999706,309.79598039999837,310.2802518999961,,,,,,,,,,,,,,310.41113739999855,,,,,,,,,,310.4072933999996,310.41113739999855,310.41113739999855,310.41113739999855,313.2961404999951,shoe,j,2.5199196000030497,0.2002193999942392,313.2962972999958,313.2963496999946,None,,,,,,,,,,,,,,00038,001,2026-01-17_11h13.54.018,MST_task,2024.2.0,59.91988710953598,2026-01-17 11h14.23.830556 +0530,
,Objects\337a.jpg,26,0,27,,,,,,,j,2.8996178999950644,None,None,,,,,,27,0,26,313.3124211999966,,,,,,,,,,,,,,,,,,,,,,,313.2965879999974,313.3124211999966,313.7968105999971,,,,,,,,,,,,,,313.8790461999961,,,,,,,,,,313.8757121999952,313.8790461999961,313.8790461999961,313.8790461999961,316.8129201999982,shoe,j,2.8996178999950644,None,316.8130986999968,316.8131616999963,None,,,,,,,,,,,,,,00038,001,2026-01-17_11h13.54.018,MST_task,2024.2.0,59.91988710953598,2026-01-17 11h14.23.830556 +0530,
,Objects\030a.jpg,27,0,28,,,,,,,None,,,f,0.3620202999954927,None,,,,28,0,27,316.8292669000002,,,,,,,,,,,,,,,,,,,,,,,316.81344369999715,316.8292669000002,317.3135641999979,,,,,,,,,,,,,,318.8435893999995,,,,,,,,,,318.8406585999983,318.8435893999995,318.8435893999995,318.8435893999995,320.32948109999415,shoe,None,,,320.32963559999916,320.7142743000004,f,320.3459148999973,320.3459148999973,0.3620202999954927,None,,,,,,,,,,00038,001,2026-01-17_11h13.54.018,MST_task,2024.2.0,59.91988710953598,2026-01-17 11h14.23.830556 +0530,
,Objects\127a.jpg,28,0,29,,,,,,,j,1.9076934999975492,0.13726750000205357,None,,,,,,29,0,28,320.7290417999975,,,,,,,,,,,,,,,,,,,,,,,320.71465769999486,320.7290417999975,321.21349439999904,,,,,,,,,,,,,,321.24692479999794,,,,,,,,,,321.24385299999994,321.24692479999794,321.24692479999794,321.24692479999794,324.2295066999941,indoor,j,1.9076934999975492,0.13726750000205357,324.23425669999415,324.2343187000006,None,,,,,,,,,,,,,,00038,001,2026-01-17_11h13.54.018,MST_task,2024.2.0,59.91988710953598,2026-01-17 11h14.23.830556 +0530,
,Objects\285a.jpg,29,0,30,,,,,,,f,2.7370441000020946,0.16688520000025164,None,,,,,,30,0,29,324.2461015999943,,,,,,,,,,,,,,,,,,,,,,,324.23455779999495,324.2461015999943,324.730184299995,,,,,,,,,,,,,,324.79515379999793,,,,,,,,,,324.7917224999983,324.79515379999793,324.79515379999793,324.79515379999793,327.7461705999958,indoor,f,2.7370441000020946,0.16688520000025164,327.7462965999948,327.7463437999977,None,,,,,,,,,,,,,,00038,001,2026-01-17_11h13.54.018,MST_task,2024.2.0,59.91988710953598,2026-01-17 11h14.23.830556 +0530,
,Objects\196a.jpg,30,0,31,,,,,,,None,,,f,0.2520747000016854,None,,,,31,0,30,327.7624205999964,,,,,,,,,,,,,,,,,,,,,,,327.74656259999756,327.7624205999964,328.2470095999961,,,,,,,,,,,,,,328.3191736000008,,,,,,,,,,328.3162622999953,328.3191736000008,328.3191736000008,328.3191736000008,331.24652380000043,indoor,None,,,331.2466779999959,331.53242540000065,f,331.26264779999474,331.26264779999474,0.2520747000016854,None,,,,,,,,,,00038,001,2026-01-17_11h13.54.018,MST_task,2024.2.0,59.91988710953598,2026-01-17 11h14.23.830556 +0530,
,Objects\169a.jpg,31,0,32,,,,,,,j,1.3606297000005725,0.16087119999428978,None,,,,,,32,0,31,331.5459406999944,,,,,,,,,,,,,,,,,,,,,,,331.5327144999974,331.5459406999944,332.03025029999844,,,,,,,,,,,,,,332.05802729999414,,,,,,,,,,332.05474259999755,332.05802729999414,332.05802729999414,332.05802729999414,335.04604789999576,indoor,j,1.3606297000005725,0.16087119999428978,335.04619689999527,335.04625329999544,None,,,,,,,,,,,,,,00038,001,2026-01-17_11h13.54.018,MST_task,2024.2.0,59.91988710953598,2026-01-17 11h14.23.830556 +0530,
,Objects\233a.jpg,32,0,33,,,,,,,j,2.129502700001467,0.19101930000033462,None,,,,,,33,0,32,335.06248989999585,,,,,,,,,,,,,,,,,,,,,,,335.0465048999977,335.06248989999585,335.54689459999645,,,,,,,,,,,,,,335.6103335999942,,,,,,,,,,335.6071143999943,335.6103335999942,335.6103335999942,335.6103335999942,338.5627769999992,indoor,j,2.129502700001467,0.19101930000033462,338.5628954999993,338.56293979999464,None,,,,,,,,,,,,,,00038,001,2026-01-17_11h13.54.018,MST_task,2024.2.0,59.91988710953598,2026-01-17 11h14.23.830556 +0530,
,Objects\326a.jpg,33,0,34,,,,,,,j,2.6307499000031385,0.12865600000077393,None,,,,,,34,0,33,338.5791253999996,,,,,,,,,,,,,,,,,,,,,,,338.5631635999962,338.5791253999996,339.06361689999903,,,,,,,,,,,,,,339.1166701999973,,,,,,,,,,339.11364489999687,339.1166701999973,339.1166701999973,339.1166701999973,342.0631113999989,indoor,j,2.6307499000031385,0.12865600000077393,342.0632819999955,342.06333049999375,None,,,,,,,,,,,,,,00038,001,2026-01-17_11h13.54.018,MST_task,2024.2.0,59.91988710953598,2026-01-17 11h14.23.830556 +0530,
,Objects\202a.jpg,34,0,35,,,,,,,j,1.6895210000002407,0.24063720000413014,None,,,,,,35,0,34,342.07902459999605,,,,,,,,,,,,,,,,,,,,,,,342.06354909999936,342.07902459999605,342.5636353999944,,,,,,,,,,,,,,342.60977199999616,,,,,,,,,,342.60662809999485,342.60977199999616,342.60977199999616,342.60977199999616,345.57951489999687,indoor,j,1.6895210000002407,0.24063720000413014,345.57969039999443,345.57975799999986,None,,,,,,,,,,,,,,00038,001,2026-01-17_11h13.54.018,MST_task,2024.2.0,59.91988710953598,2026-01-17 11h14.23.830556 +0530,
,Objects\219a.jpg,35,0,36,,,,,,,None,,,f,0.03436430000147084,None,,,,36,0,35,345.5958957999974,,,,,,,,,,,,,,,,,,,,,,,345.5800753999938,345.5958957999974,346.0805099999998,,,,,,,,,,,,,,346.16576820000046,,,,,,,,,,346.16292459999386,346.16576820000046,346.16576820000046,346.16576820000046,349.0963969999939,shoe,None,,,349.10202109999955,349.1640821999972,f,349.1125724999947,349.1125724999947,0.03436430000147084,None,,,,,,,,,,00038,001,2026-01-17_11h13.54.018,MST_task,2024.2.0,59.91988710953598,2026-01-17 11h14.23.830556 +0530,
,Objects\183a.jpg,36,0,37,,,,,,,j,1.3225282000057632,0.2071975999933784,None,,,,,,37,0,36,349.17902279999544,,,,,,,,,,,,,,,,,,,,,,,349.1643164999987,349.17902279999544,349.66354209999554,,,,,,,,,,,,,,349.72906019999937,,,,,,,,,,349.7255561999991,349.72906019999937,349.72906019999937,349.72906019999937,352.6795478999993,shoe,j,1.3225282000057632,0.2071975999933784,352.6797267000002,352.67979889999697,None,,,,,,,,,,,,,,00038,001,2026-01-17_11h13.54.018,MST_task,2024.2.0,59.91988710953598,2026-01-17 11h14.23.830556 +0530,
,Objects\082a.jpg,37,0,38,,,,,,,j,2.1381566999989445,0.15251919999718666,None,,,,,,38,0,37,352.6958861999956,,,,,,,,,,,,,,,,,,,,,,,352.6802155999976,352.6958861999956,353.1802205999993,,,,,,,,,,,,,,353.2491252999971,,,,,,,,,,353.2456725999946,353.2491252999971,353.2491252999971,353.2491252999971,356.1964657999997,shoe,j,2.1381566999989445,0.15251919999718666,356.1966372999959,356.19674210000085,None,,,,,,,,,,,,,,00038,001,2026-01-17_11h13.54.018,MST_task,2024.2.0,59.91988710953598,2026-01-17 11h14.23.830556 +0530,
,Objects\100a.jpg,38,0,39,,,,,,,f,1.529563900003268,0.19034020000253804,None,,,,,,39,0,38,356.2128045999998,,,,,,,,,,,,,,,,,,,,,,,356.19711119999556,356.2128045999998,356.69685759999993,,,,,,,,,,,,,,356.7626755999954,,,,,,,,,,356.7599635999941,356.7626755999954,356.7626755999954,356.7626755999954,359.71270319999894,shoe,f,1.529563900003268,0.19034020000253804,359.7128148999982,359.7128573999944,None,,,,,,,,,,,,,,00038,001,2026-01-17_11h13.54.018,MST_task,2024.2.0,59.91988710953598,2026-01-17 11h14.23.830556 +0530,
,Objects\305a.jpg,39,0,40,,,,,,,None,,,j,1.0300994999997783,None,,,,40,0,39,359.72938799999974,,,,,,,,,,,,,,,,,,,,,,,359.71305039999424,359.72938799999974,360.2138418999966,,,,,,,,,,,,,,360.2702661000003,,,,,,,,,,360.2672492999991,360.2702661000003,360.2702661000003,360.2702661000003,363.22965359999944,shoe,None,,,363.2297529999996,364.2814681999953,j,363.24573840000085,363.24573840000085,1.0300994999997783,None,,,,,,,,,,00038,001,2026-01-17_11h13.54.018,MST_task,2024.2.0,59.91988710953598,2026-01-17 11h14.23.830556 +0530,
,Objects\110a.jpg,40,0,41,,,,,,,None,,,j,0.37445779999688966,None,,,,41,0,40,364.295738599998,,,,,,,,,,,,,,,,,,,,,,,364.2818014999939,364.295738599998,364.7804262999998,,,,,,,,,,,,,,364.86641479999525,,,,,,,,,,364.863276899996,364.86641479999525,364.86641479999525,364.86641479999525,367.7955354000005,shoe,None,,,367.79559109999536,368.1966814999978,j,367.81239769999956,367.81239769999956,0.37445779999688966,None,,,,,,,,,,00038,001,2026-01-17_11h13.54.018,MST_task,2024.2.0,59.91988710953598,2026-01-17 11h14.23.830556 +0530,
,Objects\357a.jpg,41,0,42,,,,,,,f,2.3096797000034712,0.15296379999927012,None,,,,,,42,0,41,368.2124223999999,,,,,,,,,,,,,,,,,,,,,,,368.1968015999955,368.2124223999999,368.69632279999496,,,,,,,,,,,,,,368.73371409999527,,,,,,,,,,368.73089649999747,368.73371409999527,368.73371409999527,368.73371409999527,371.7132481000008,shoe,f,2.3096797000034712,0.15296379999927012,371.71347070000047,371.7135446999964,None,,,,,,,,,,,,,,00038,001,2026-01-17_11h13.54.018,MST_task,2024.2.0,59.91988710953598,2026-01-17 11h14.23.830556 +0530,
,Objects\322a.jpg,42,0,43,,,,,,,j,2.7582019999972545,0.15269300000363728,None,,,,,,43,0,42,371.7290705999985,,,,,,,,,,,,,,,,,,,,,,,371.71387569999933,371.7290705999985,372.21404880000046,,,,,,,,,,,,,,372.2770285000006,,,,,,,,,,372.2737355999998,372.2770285000006,372.2770285000006,372.2770285000006,375.2294047999967,indoor,j,2.7582019999972545,0.15269300000363728,375.23427049999736,375.2343269999983,None,,,,,,,,,,,,,,00038,001,2026-01-17_11h13.54.018,MST_task,2024.2.0,59.91988710953598,2026-01-17 11h14.23.830556 +0530,
,Objects\187a.jpg,43,0,44,,,,,,,f,2.439725600001111,0.1590725999994902,None,,,,,,44,0,43,375.2464025999943,,,,,,,,,,,,,,,,,,,,,,,375.23455280000053,375.2464025999943,375.73025570000027,,,,,,,,,,,,,,375.7716647999987,,,,,,,,,,375.7682499000002,375.7716647999987,375.7716647999987,375.7716647999987,378.7464025999943,indoor,f,2.439725600001111,0.1590725999994902,378.74656949999917,378.746610999995,None,,,,,,,,,,,,,,00038,001,2026-01-17_11h13.54.018,MST_task,2024.2.0,59.91988710953598,2026-01-17 11h14.23.830556 +0530,
,Objects\068a.jpg,44,0,45,,,,,,,j,2.1456919999982347,0.16748219999863068,None,,,,,,45,0,44,378.76273629999923,,,,,,,,,,,,,,,,,,,,,,,378.7468072999982,378.76273629999923,379.24711929999467,,,,,,,,,,,,,,379.3619994999972,,,,,,,,,,379.35900549999496,379.3619994999972,379.3619994999972,379.3619994999972,382.2628903999939,indoor,j,2.1456919999982347,0.16748219999863068,382.26300379999884,382.26306069999555,None,,,,,,,,,,,,,,00038,001,2026-01-17_11h13.54.018,MST_task,2024.2.0,59.91988710953598,2026-01-17 11h14.23.830556 +0530,
,Objects\020a.jpg,45,0,46,,,,,,,j,2.240643600001931,0.19264960000145948,None,,,,,,46,0,45,382.2791145999945,,,,,,,,,,,,,,,,,,,,,,,382.2632572999937,382.2791145999945,382.7634967999984,,,,,,,,,,,,,,382.7949010999946,,,,,,,,,,382.79172229999676,382.7949010999946,382.7949010999946,382.7949010999946,385.7795918999982,indoor,j,2.240643600001931,0.19264960000145948,385.7797023999956,385.7797453999956,None,,,,,,,,,,,,,,00038,001,2026-01-17_11h13.54.018,MST_task,2024.2.0,59.91988710953598,2026-01-17 11h14.23.830556 +0530,
,Objects\108a.jpg,46,0,47,,,,,,,j,1.444039599999087,0.21517140000651125,None,,,,,,47,0,46,385.7957688999959,,,,,,,,,,,,,,,,,,,,,,,385.77995250000095,385.7957688999959,386.28033349999896,,,,,,,,,,,,,,386.3282742999945,,,,,,,,,,386.32483999999386,386.3282742999945,386.3282742999945,386.3282742999945,389.29656959999556,indoor,j,1.444039599999087,0.21517140000651125,389.2967357999951,389.2967755999998,None,,,,,,,,,,,,,,00038,001,2026-01-17_11h13.54.018,MST_task,2024.2.0,59.91988710953598,2026-01-17 11h14.23.830556 +0530,
,Objects\176a.jpg,47,0,48,,,,,,,j,1.1935836999982712,0.14366449999943143,None,,,,,,48,0,47,389.3124153999961,,,,,,,,,,,,,,,,,,,,,,,389.29697419999866,389.3124153999961,389.79697119999764,,,,,,,,,,,,,,,,,,,,,,,,389.8629030999946,389.8663454999987,389.8663454999987,389.8663454999987,392.8131274999978,indoor,j,1.1935836999982712,0.14366449999943143,392.8133480999968,392.81341539999994,None,,,,,,,,,,,,,,00038,001,2026-01-17_11h13.54.018,MST_task,2024.2.0,59.91988710953598,2026-01-17 11h14.23.830556 +0530,
,Objects\161a.jpg,48,0,49,,,,,,,j,1.4563294999970822,0.1678572000018903,None,,,,,,49,0,48,392.82926349999616,,,,,,,,,,,,,,,,,,,,,,,392.81364100000064,392.82926349999616,393.31320609999966,,,,,,,,,,,,,,393.3794215999951,,,,,,,,,,393.3764460999955,393.3794215999951,393.3794215999951,393.3794215999951,396.3294506999955,indoor,j,1.4563294999970822,0.1678572000018903,396.3296188999957,396.3296610999969,None,,,,,,,,,,,,,,00038,001,2026-01-17_11h13.54.018,MST_task,2024.2.0,59.91988710953598,2026-01-17 11h14.23.830556 +0530,
,Objects\086a.jpg,49,0,50,,,,,,,f,2.8599537999980384,None,None,,,,,,50,0,49,396.34580569999525,,,,,,,,,,,,,,,,,,,,,,,396.3298561999982,396.34580569999525,396.8299712999942,,,,,,,,,,,,,,396.87087329999486,,,,,,,,,,396.8676675999959,396.87087329999486,396.87087329999486,396.87087329999486,399.8301136000009,shoe,f,2.8599537999980384,None,399.8341600999993,399.83419899999717,None,,,,,,,,,,,,,,00038,001,2026-01-17_11h13.54.018,MST_task,2024.2.0,59.91988710953598,2026-01-17 11h14.23.830556 +0530,
,Objects\059a.jpg,50,0,51,,,,,,,None,,,f,0.35163250000186963,None,,,,51,0,50,399.8457294999971,,,,,,,,,,,,,,,,,,,,,,,399.8344128999961,399.8457294999971,400.33025149999594,,,,,,,,,,,,,,400.44665659999737,,,,,,,,,,400.4439050000001,400.44665659999737,400.44665659999737,400.44665659999737,403.34629660000064,shoe,None,,,403.3464052999989,403.7312275999939,f,403.3627185000005,403.3627185000005,0.35163250000186963,None,,,,,,,,,,00038,001,2026-01-17_11h13.54.018,MST_task,2024.2.0,59.91988710953598,2026-01-17 11h14.23.830556 +0530,
,Objects\017a.jpg,51,0,52,,,,,,,f,2.514863999997033,0.14367029999993974,None,,,,,,52,0,51,403.7457116000005,,,,,,,,,,,,,,,,,,,,,,,403.7316780999972,403.7457116000005,404.2305187999955,,,,,,,,,,,,,,404.3047839999999,,,,,,,,,,404.30137389999436,404.3047839999999,404.3047839999999,404.3047839999999,407.24612689999776,shoe,f,2.514863999997033,0.14367029999993974,407.2462419999938,407.24629429999914,None,,,,,,,,,,,,,,00038,001,2026-01-17_11h13.54.018,MST_task,2024.2.0,59.91988710953598,2026-01-17 11h14.23.830556 +0530,
,Objects\245a.jpg,52,0,53,,,,,,,f,1.349717299999611,0.1432247999982792,None,,,,,,53,0,52,407.26252699999895,,,,,,,,,,,,,,,,,,,,,,,407.24649249999493,407.26252699999895,407.7467211999974,,,,,,,,,,,,,,407.78984999999375,,,,,,,,,,407.7863701999959,407.78984999999375,407.78984999999375,407.78984999999375,410.7629577999978,shoe,f,1.349717299999611,0.1432247999982792,410.76306849999673,410.76310649999505,None,,,,,,,,,,,,,,00038,001,2026-01-17_11h13.54.018,MST_task,2024.2.0,59.91988710953598,2026-01-17 11h14.23.830556 +0530,
,Objects\352a.jpg,53,0,54,,,,,,,f,2.0610415000046487,0.16828269999678014,None,,,,,,54,0,53,410.7792047999974,,,,,,,,,,,,,,,,,,,,,,,410.76328129999456,410.7792047999974,411.26366979999875,,,,,,,,,,,,,,411.31067020000046,,,,,,,,,,411.3072900999978,411.31067020000046,411.31067020000046,411.31067020000046,414.26341309999407,shoe,f,2.0610415000046487,0.16828269999678014,414.26354239999637,414.2635857999994,None,,,,,,,,,,,,,,00038,001,2026-01-17_11h13.54.018,MST_task,2024.2.0,59.91988710953598,2026-01-17 11h14.23.830556 +0530,
,Objects\254a.jpg,54,0,55,,,,,,,j,2.766175099997781,0.1284735000008368,None,,,,,,55,0,54,414.2790745999955,,,,,,,,,,,,,,,,,,,,,,,414.2637829999949,414.2790745999955,414.7638686999999,,,,,,,,,,,,,,414.8452008999957,,,,,,,,,,414.8424479999958,414.8452008999957,414.8452008999957,414.8452008999957,417.77946769999835,shoe,j,2.766175099997781,0.1284735000008368,417.77964470000006,417.77971559999423,None,,,,,,,,,,,,,,00038,001,2026-01-17_11h13.54.018,MST_task,2024.2.0,59.91988710953598,2026-01-17 11h14.23.830556 +0530,
,Objects\078a.jpg,55,0,56,,,,,,,f,1.5398616999955266,0.1599703000028967,None,,,,,,56,0,55,417.7958806999959,,,,,,,,,,,,,,,,,,,,,,,417.7801627000008,417.7958806999959,418.2802945000003,,,,,,,,,,,,,,418.33595179999975,,,,,,,,,,418.3315269999948,418.33595179999975,418.33595179999975,418.33595179999975,421.296207899999,shoe,f,1.5398616999955266,0.1599703000028967,421.2964024999965,421.29647079999995,None,,,,,,,,,,,,,,00038,001,2026-01-17_11h13.54.018,MST_task,2024.2.0,59.91988710953598,2026-01-17 11h14.23.830556 +0530,
,Objects\257a.jpg,56,0,57,,,,,,,f,2.8833719000031124,None,None,,,,,,57,0,56,421.312548599999,,,,,,,,,,,,,,,,,,,,,,,421.2967862000005,421.312548599999,421.7969707999946,,,,,,,,,,,,,,421.8482498999947,,,,,,,,,,421.84541080000054,421.8482498999947,421.8482498999947,421.8482498999947,424.81347229999665,indoor,f,2.8833719000031124,None,424.8184583999973,424.81852609999623,None,,,,,,,,,,,,,,00038,001,2026-01-17_11h13.54.018,MST_task,2024.2.0,59.91988710953598,2026-01-17 11h14.23.830556 +0530,
,Objects\158a.jpg,57,0,58,,,,,,,None,,,j,0.07295970000268426,None,,,,58,0,57,424.8294433999981,,,,,,,,,,,,,,,,,,,,,,,424.81880049999745,424.8294433999981,425.3133854999978,,,,,,,,,,,,,,425.35921759999474,,,,,,,,,,425.3559632999968,425.35921759999474,425.35921759999474,425.35921759999474,428.329613599999,indoor,None,,,428.32976389999385,428.4303144000005,j,428.3460369999957,428.3460369999957,0.07295970000268426,None,,,,,,,,,,00038,001,2026-01-17_11h13.54.018,MST_task,2024.2.0,59.91988710953598,2026-01-17 11h14.23.830556 +0530,
,Objects\338a.jpg,58,0,59,,,,,,,f,2.2911982999939937,0.14390140000614338,None,,,,,,59,0,58,428.44565399999556,,,,,,,,,,,,,,,,,,,,,,,428.4304207999958,428.44565399999556,428.929741699998,,,,,,,,,,,,,,428.9675520999954,,,,,,,,,,428.9644746999984,428.9675520999954,428.9675520999954,428.9675520999954,431.9461573000008,indoor,f,2.2911982999939937,0.14390140000614338,431.94630139999936,431.94635749999725,None,,,,,,,,,,,,,,00038,001,2026-01-17_11h13.54.018,MST_task,2024.2.0,59.91988710953598,2026-01-17 11h14.23.830556 +0530,
,Objects\008a.jpg,59,0,60,,,,,,,f,2.261068499996327,0.143491200004064,None,,,,,,60,0,59,431.96251339999435,,,,,,,,,,,,,,,,,,,,,,,431.94660589999694,431.96251339999435,432.4468374999997,,,,,,,,,,,,,,432.49483479999617,,,,,,,,,,432.49120249999396,432.49483479999617,432.49483479999617,432.49483479999617,435.46279339999455,indoor,f,2.261068499996327,0.143491200004064,435.4629075999983,435.46295209999516,None,,,,,,,,,,,,,,00038,001,2026-01-17_11h13.54.018,MST_task,2024.2.0,59.91988710953598,2026-01-17 11h14.23.830556 +0530,
,Objects\145a.jpg,60,0,61,,,,,,,f,1.8524333000023034,0.12810099999478552,None,,,,,,61,0,60,435.4788933999953,,,,,,,,,,,,,,,,,,,,,,,435.4631528999962,435.4788933999953,435.9636509999982,,,,,,,,,,,,,,436.0229498999979,,,,,,,,,,436.01982219999627,436.0229498999979,436.0229498999979,436.0229498999979,438.97987839999405,indoor,f,1.8524333000023034,0.12810099999478552,438.9800577999995,438.98010819999763,None,,,,,,,,,,,,,,00038,001,2026-01-17_11h13.54.018,MST_task,2024.2.0,59.91988710953598,2026-01-17 11h14.23.830556 +0530,
,Objects\181a.jpg,61,0,62,,,,,,,j,2.2661784999945667,0.15152300000045216,None,,,,,,62,0,61,438.9957776999945,,,,,,,,,,,,,,,,,,,,,,,438.98033009999926,438.9957776999945,439.4803141999946,,,,,,,,,,,,,,439.5219250000009,,,,,,,,,,439.518630999999,439.5219250000009,439.5219250000009,439.5219250000009,442.49619379999785,indoor,j,2.2661784999945667,0.15152300000045216,442.49631640000007,442.49635779999517,None,,,,,,,,,,,,,,00038,001,2026-01-17_11h13.54.018,MST_task,2024.2.0,59.91988710953598,2026-01-17 11h14.23.830556 +0530,
,Objects\177a.jpg,62,0,63,,,,,,,j,2.13466409999819,0.14384679999784566,None,,,,,,63,0,62,442.51249929999904,,,,,,,,,,,,,,,,,,,,,,,442.4965480999963,442.51249929999904,442.9973145999975,,,,,,,,,,,,,,443.0364874999941,,,,,,,,,,443.0330066999959,443.0364874999941,443.0364874999941,443.0364874999941,445.996590799994,indoor,j,2.13466409999819,0.14384679999784566,445.9967684000003,445.99683849999565,None,,,,,,,,,,,,,,00038,001,2026-01-17_11h13.54.018,MST_task,2024.2.0,59.91988710953598,2026-01-17 11h14.23.830556 +0530,
,Objects\184a.jpg,63,0,64,,,,,,,j,2.2875227999975323,0.18458030000329018,None,,,,,,64,0,63,446.0123915000004,,,,,,,,,,,,,,,,,,,,,,,445.99711679999746,446.0123915000004,446.4969057999988,,,,,,,,,,,,,,446.53951799999777,,,,,,,,,,446.53654919999826,446.53951799999777,446.53951799999777,446.53951799999777,449.512807799998,shoe,j,2.2875227999975323,0.18458030000329018,449.5172010999959,449.51723079999647,None,,,,,,,,,,,,,,00038,001,2026-01-17_11h13.54.018,MST_task,2024.2.0,59.91988710953598,2026-01-17 11h14.23.830556 +0530,
,Objects\134a.jpg,64,0,65,,,,,,,j,1.397515700002259,0.15198709999822313,None,,,,,,65,0,64,449.52919819999806,,,,,,,,,,,,,,,,,,,,,,,449.5173940999957,449.52919819999806,450.01360819999536,,,,,,,,,,,,,,450.11749069999496,,,,,,,,,,450.11419380000007,450.11749069999496,450.11749069999496,450.11749069999496,453.02948130000004,shoe,j,1.397515700002259,0.15198709999822313,453.0295985999983,453.02964339999744,None,,,,,,,,,,,,,,00038,001,2026-01-17_11h13.54.018,MST_task,2024.2.0,59.91988710953598,2026-01-17 11h14.23.830556 +0530,
,Objects\216a.jpg,65,0,66,,,,,,,None,,,f,0.2883344000001671,None,,,,66,0,65,453.0457749999987,,,,,,,,,,,,,,,,,,,,,,,453.02992589999485,453.0457749999987,453.53045429999474,,,,,,,,,,,,,,453.57100229999924,,,,,,,,,,453.56683829999383,453.57100229999924,453.57100229999924,453.57100229999924,456.54653549999784,shoe,None,,,456.54670110000006,456.86403289999726,f,456.56262219999917,456.56262219999917,0.2883344000001671,None,,,,,,,,,,00038,001,2026-01-17_11h13.54.018,MST_task,2024.2.0,59.91988710953598,2026-01-17 11h14.23.830556 +0530,
,Objects\372a.jpg,66,0,67,,,,,,,j,2.7109292000022833,0.12834779999684542,None,,,,,,67,0,66,456.87920909999957,,,,,,,,,,,,,,,,,,,,,,,456.864273399995,456.87920909999957,457.36359389999416,,,,,,,,,,,,,,457.4204718999972,,,,,,,,,,457.4169935999962,457.4204718999972,457.4204718999972,457.4204718999972,460.3793876999989,shoe,j,2.7109292000022833,0.12834779999684542,460.3795007999943,460.3795422999974,None,,,,,,,,,,,,,,00038,001,2026-01-17_11h13.54.018,MST_task,2024.2.0,59.91988710953598,2026-01-17 11h14.23.830556 +0530,
,Objects\276a.jpg,67,0,68,,,,,,,f,1.2398375999982818,0.1682509000020218,None,,,,,,68,0,67,460.3959063000002,,,,,,,,,,,,,,,,,,,,,,,460.3797334999981,460.3959063000002,460.88017459999537,,,,,,,,,,,,,,460.93877419999626,,,,,,,,,,460.9353295999972,460.93877419999626,460.93877419999626,460.93877419999626,463.8796994999939,shoe,f,1.2398375999982818,0.1682509000020218,463.8798916999949,463.87996179999755,None,,,,,,,,,,,,,,00038,001,2026-01-17_11h13.54.018,MST_task,2024.2.0,59.91988710953598,2026-01-17 11h14.23.830556 +0530,
,Objects\175a.jpg,68,0,69,,,,,,,None,,,f,1.0545887999978731,None,,,,69,0,68,463.8958918999997,,,,,,,,,,,,,,,,,,,,,,,463.88023959999555,463.8958918999997,464.380925999998,,,,,,,,,,,,,,464.42749029999686,,,,,,,,,,464.424291299998,464.42749029999686,464.42749029999686,464.42749029999686,467.3962848999945,shoe,None,,,467.3963791999995,468.4809757999974,f,467.41250690000015,467.41250690000015,1.0545887999978731,None,,,,,,,,,,00038,001,2026-01-17_11h13.54.018,MST_task,2024.2.0,59.91988710953598,2026-01-17 11h14.23.830556 +0530,
,Objects\151a.jpg,69,0,70,,,,,,,f,2.300154600001406,0.14372350000485312,None,,,,,,70,0,69,468.4957787999956,,,,,,,,,,,,,,,,,,,,,,,468.4812371999942,468.4957787999956,468.9800651999976,,,,,,,,,,,,,,469.02352149999933,,,,,,,,,,469.0204076000009,469.02352149999933,469.02352149999933,469.02352149999933,471.99625569999625,shoe,f,2.300154600001406,0.14372350000485312,471.99644879999687,471.99652159999823,None,,,,,,,,,,,,,,00038,001,2026-01-17_11h13.54.018,MST_task,2024.2.0,59.91988710953598,2026-01-17 11h14.23.830556 +0530,
,Objects\022a.jpg,70,0,71,,,,,,,j,2.4538704000005964,0.15190559999609832,None,,,,,,71,0,70,472.0125524999967,,,,,,,,,,,,,,,,,,,,,,,471.9968175999966,472.0125524999967,472.4967828999943,,,,,,,,,,,,,,,,,,,,,,,,472.5387097999992,472.54173729999457,472.54173729999457,472.54173729999457,475.51281279999967,indoor,j,2.4538704000005964,0.15190559999609832,475.5165965999986,475.5166401999959,None,,,,,,,,,,,,,,00038,001,2026-01-17_11h13.54.018,MST_task,2024.2.0,59.91988710953598,2026-01-17 11h14.23.830556 +0530,
,Objects\282a.jpg,71,0,72,,,,,,,j,2.7685768000010285,0.11909780000132741,None,,,,,,72,0,71,475.5291644999961,,,,,,,,,,,,,,,,,,,,,,,475.5168271999937,475.5291644999961,476.0135334999941,,,,,,,,,,,,,,476.1152015999978,,,,,,,,,,476.1122538999989,476.1152015999978,476.1152015999978,476.1152015999978,479.0291692999963,indoor,j,2.7685768000010285,0.11909780000132741,479.02933149999444,479.0293939999974,None,,,,,,,,,,,,,,00038,001,2026-01-17_11h13.54.018,MST_task,2024.2.0,59.91988710953598,2026-01-17 11h14.23.830556 +0530,
,Objects\269a.jpg,72,0,73,,,,,,,None,,,f,0.7204178999963915,None,,,,73,0,72,479.0457266999947,,,,,,,,,,,,,,,,,,,,,,,479.02968219999457,479.0457266999947,479.5300902999952,,,,,,,,,,,,,,479.55900380000094,,,,,,,,,,479.55620649999764,479.55900380000094,479.55900380000094,479.55900380000094,482.52960840000014,indoor,None,,,482.52971360000083,483.28083199999674,f,482.54674969999905,482.54674969999905,0.7204178999963915,None,,,,,,,,,,00038,001,2026-01-17_11h13.54.018,MST_task,2024.2.0,59.91988710953598,2026-01-17 11h14.23.830556 +0530,
,Objects\115a.jpg,73,0,74,,,,,,,f,1.5861306000006152,0.14475620000303024,None,,,,,,74,0,73,483.2964509999947,,,,,,,,,,,,,,,,,,,,,,,483.28105610000057,483.2964509999947,483.78058020000026,,,,,,,,,,,,,,483.9124315000008,,,,,,,,,,483.90755589999753,483.9124315000008,483.9124315000008,483.9124315000008,486.7961892999956,indoor,f,1.5861306000006152,0.14475620000303024,486.7963512999995,486.79639139999927,None,,,,,,,,,,,,,,00038,001,2026-01-17_11h13.54.018,MST_task,2024.2.0,59.91988710953598,2026-01-17 11h14.23.830556 +0530,
,Objects\307a.jpg,74,0,75,,,,,,,None,,,j,1.626162900000054,None,,,,75,0,74,486.81249079999543,,,,,,,,,,,,,,,,,,,,,,,486.7965741999942,486.81249079999543,487.29679829999804,,,,,,,,,,,,,,487.3479673999973,,,,,,,,,,487.3451023999951,487.3479673999973,487.3479673999973,487.3479673999973,490.31284790000063,indoor,None,,,490.31303520000074,491.9645754999947,j,490.32901619999757,490.32901619999757,1.626162900000054,None,,,,,,,,,,00038,001,2026-01-17_11h13.54.018,MST_task,2024.2.0,59.91988710953598,2026-01-17 11h14.23.830556 +0530,
,Objects\342a.jpg,75,0,76,,,,,,,f,1.8149185000002035,0.16742969999904744,None,,,,,,76,0,75,491.97915459999786,,,,,,,,,,,,,,,,,,,,,,,491.96495769999456,491.97915459999786,492.46350719999464,,,,,,,,,,,,,,492.5647628000006,,,,,,,,,,492.5607041999974,492.5647628000006,492.5647628000006,492.5647628000006,495.4796122999978,indoor,f,1.8149185000002035,0.16742969999904744,495.479814899998,495.4798848999999,None,,,,,,,,,,,,,,00038,001,2026-01-17_11h13.54.018,MST_task,2024.2.0,59.91988710953598,2026-01-17 11h14.23.830556 +0530,
,Objects\240a.jpg,76,0,77,,,,,,,None,,,j,0.5345756000024267,None,,,,77,0,76,495.495926399999,,,,,,,,,,,,,,,,,,,,,,,495.48020559999713,495.495926399999,495.98057079999853,,,,,,,,,,,,,,496.01861590000044,,,,,,,,,,496.0158678999942,496.01861590000044,496.01861590000044,496.01861590000044,498.9962876999998,indoor,None,,,498.996438999995,499.5640532999969,j,499.01246379999793,499.01246379999793,0.5345756000024267,None,,,,,,,,,,00038,001,2026-01-17_11h13.54.018,MST_task,2024.2.0,59.91988710953598,2026-01-17 11h14.23.830556 +0530,
,Objects\004a.jpg,77,0,78,,,,,,,f,2.3943702000033227,0.1510749000008218,None,,,,,,78,0,77,499.5792619999993,,,,,,,,,,,,,,,,,,,,,,,499.56430120000005,499.5792619999993,500.0635789000007,,,,,,,,,,,,,,500.12120909999794,,,,,,,,,,500.1183505999943,500.12120909999794,500.12120909999794,500.12120909999794,503.0795386999962,shoe,f,2.3943702000033227,0.1510749000008218,503.08503409999685,503.0850719000009,None,,,,,,,,,,,,,,00038,001,2026-01-17_11h13.54.018,MST_task,2024.2.0,59.91988710953598,2026-01-17 11h14.23.830556 +0530,
,Objects\361a.jpg,78,0,79,,,,,,,None,,,j,1.2949016999991727,None,,,,79,0,78,503.0957472000009,,,,,,,,,,,,,,,,,,,,,,,503.0852206999989,503.0957472000009,503.5802104999966,,,,,,,,,,,,,,503.629119899997,,,,,,,,,,503.6259338999953,503.629119899997,503.629119899997,503.629119899997,506.5963693999947,shoe,None,,,506.596515199999,507.9148436999967,j,506.612501699994,506.612501699994,1.2949016999991727,None,,,,,,,,,,00038,001,2026-01-17_11h13.54.018,MST_task,2024.2.0,59.91988710953598,2026-01-17 11h14.23.830556 +0530,
,Objects\071a.jpg,79,0,80,,,,,,,j,2.8924858999962453,None,None,,,,,,80,0,79,507.92936209999607,,,,,,,,,,,,,,,,,,,,,,,507.9152501999997,507.92936209999607,508.41347959999985,,,,,,,,,,,,,,508.51880329999403,,,,,,,,,,508.5159560999964,508.51880329999403,508.51880329999403,508.51880329999403,511.4296599999943,shoe,j,2.8924858999962453,None,511.4298315999986,511.4298981999964,None,,,,,,,,,,,,,,00038,001,2026-01-17_11h13.54.018,MST_task,2024.2.0,59.91988710953598,2026-01-17 11h14.23.830556 +0530,
,Objects\085a.jpg,80,0,81,,,,,,,j,1.4884813000026043,0.10473629999614786,None,,,,,,81,0,80,511.44578249999904,,,,,,,,,,,,,,,,,,,,,,,511.4302266999948,511.44578249999904,511.9304300999938,,,,,,,,,,,,,,511.97812139999587,,,,,,,,,,511.9751768999995,511.97812139999587,511.97812139999587,511.97812139999587,514.9461905999997,shoe,j,1.4884813000026043,0.10473629999614786,514.9463629999955,514.9464311999982,None,,,,,,,,,,,,,,00038,001,2026-01-17_11h13.54.018,MST_task,2024.2.0,59.91988710953598,2026-01-17 11h14.23.830556 +0530,
,Objects\042a.jpg,81,0,82,,,,,,,f,2.038466599995445,0.14368990000366466,None,,,,,,82,0,81,514.9626532999973,,,,,,,,,,,,,,,,,,,,,,,514.9468525999982,514.9626532999973,515.4472173999966,,,,,,,,,,,,,,515.5484861999939,,,,,,,,,,515.5455891999954,515.5484861999939,515.5484861999939,515.5484861999939,518.4629291999954,shoe,f,2.038466599995445,0.14368990000366466,518.4631143999941,518.4631795999958,None,,,,,,,,,,,,,,00038,001,2026-01-17_11h13.54.018,MST_task,2024.2.0,59.91988710953598,2026-01-17 11h14.23.830556 +0530,
,Objects\329a.jpg,82,0,83,,,,,,,f,2.899709500001336,None,None,,,,,,83,0,82,518.4790300999957,,,,,,,,,,,,,,,,,,,,,,,518.4634751999984,518.4790300999957,518.9633833999978,,,,,,,,,,,,,,519.0075790999981,,,,,,,,,,519.0033866999947,519.0075790999981,519.0075790999981,519.0075790999981,521.9795110999985,shoe,f,2.899709500001336,None,521.9796381999986,521.9796824999939,None,,,,,,,,,,,,,,00038,001,2026-01-17_11h13.54.018,MST_task,2024.2.0,59.91988710953598,2026-01-17 11h14.23.830556 +0530,
,Objects\204a.jpg,83,0,84,,,,,,,f,2.3898843999995734,0.15280859999620588,None,,,,,,84,0,83,521.9961161999963,,,,,,,,,,,,,,,,,,,,,,,521.9799958999938,521.9961161999963,522.4802686999974,,,,,,,,,,,,,,522.5249163999979,,,,,,,,,,522.5212256999948,522.5249163999979,522.5249163999979,522.5249163999979,525.4961452999996,shoe,f,2.3898843999995734,0.15280859999620588,525.496327599998,525.4963986999937,None,,,,,,,,,,,,,,00038,001,2026-01-17_11h13.54.018,MST_task,2024.2.0,59.91988710953598,2026-01-17 11h14.23.830556 +0530,
,Objects\057a.jpg,84,0,85,,,,,,,None,,,f,1.326147800005856,None,,,,85,0,84,525.5124613999942,,,,,,,,,,,,,,,,,,,,,,,525.4967347999991,525.5124613999942,525.9969167999952,,,,,,,,,,,,,,526.0346938999937,,,,,,,,,,526.0313976999969,526.0346938999937,526.0346938999937,526.0346938999937,529.0132174999962,indoor,None,,,529.0170045999985,530.3646208999999,f,529.0293669999955,529.0293669999955,1.326147800005856,None,,,,,,,,,,00038,001,2026-01-17_11h13.54.018,MST_task,2024.2.0,59.91988710953598,2026-01-17 11h14.23.830556 +0530,
,Objects\290a.jpg,85,0,86,,,,,,,j,1.554865099999006,0.1441705000033835,None,,,,,,86,0,85,530.3790689999951,,,,,,,,,,,,,,,,,,,,,,,530.3648455000002,530.3790689999951,530.8637338999979,,,,,,,,,,,,,,530.9364213000008,,,,,,,,,,530.9328192999965,530.9364213000008,530.9364213000008,530.9364213000008,533.8795870999966,indoor,j,1.554865099999006,0.1441705000033835,533.8797000999984,533.8797392999986,None,,,,,,,,,,,,,,00038,001,2026-01-17_11h13.54.018,MST_task,2024.2.0,59.91988710953598,2026-01-17 11h14.23.830556 +0530,
,Objects\077a.jpg,86,0,87,,,,,,,j,1.563264700002037,0.14290409999375697,None,,,,,,87,0,86,533.8958138999951,,,,,,,,,,,,,,,,,,,,,,,533.8799243999965,533.8958138999951,534.3798623999974,,,,,,,,,,,,,,,,,,,,,,,,534.4213248999949,534.4246906999979,534.4246906999979,534.4246906999979,537.3962207999939,indoor,j,1.563264700002037,0.14290409999375697,537.3963491999966,537.3963922999974,None,,,,,,,,,,,,,,00038,001,2026-01-17_11h13.54.018,MST_task,2024.2.0,59.91988710953598,2026-01-17 11h14.23.830556 +0530,
,Objects\043a.jpg,87,0,88,,,,,,,None,,,j,0.7786689999993541,None,,,,88,0,87,537.4127363000007,,,,,,,,,,,,,,,,,,,,,,,537.396625399997,537.4127363000007,537.8969479000007,,,,,,,,,,,,,,537.9424507999938,,,,,,,,,,537.9390079999939,537.9424507999938,537.9424507999938,537.9424507999938,540.896688599998,indoor,None,,,540.8968460999968,541.6977534999969,j,540.9124325999946,540.9124325999946,0.7786689999993541,None,,,,,,,,,,00038,001,2026-01-17_11h13.54.018,MST_task,2024.2.0,59.91988710953598,2026-01-17 11h14.23.830556 +0530,
,Objects\010a.jpg,88,0,89,,,,,,,f,2.577460799999244,0.1676445000048261,None,,,,,,89,0,88,541.7124494999953,,,,,,,,,,,,,,,,,,,,,,,541.697986399995,541.7124494999953,542.197153699999,,,,,,,,,,,,,,542.2343534999964,,,,,,,,,,542.2309117999976,542.2343534999964,542.2343534999964,542.2343534999964,545.2130376999994,indoor,f,2.577460799999244,0.1676445000048261,545.2132204999943,545.2132625999948,None,,,,,,,,,,,,,,00038,001,2026-01-17_11h13.54.018,MST_task,2024.2.0,59.91988710953598,2026-01-17 11h14.23.830556 +0530,
,Objects\222a.jpg,89,0,90,,,,,,,None,,,j,0.42536349999863887,None,,,,90,0,89,545.2290909000003,,,,,,,,,,,,,,,,,,,,,,,545.2134592999937,545.2290909000003,545.7136518999978,,,,,,,,,,,,,,545.7469051000007,,,,,,,,,,545.7434833999941,545.7469051000007,545.7469051000007,545.7469051000007,548.7295651999957,indoor,None,,,548.7297216000006,549.1809690000009,j,548.7459858000002,548.7459858000002,0.42536349999863887,None,,,,,,,,,,00038,001,2026-01-17_11h13.54.018,MST_task,2024.2.0,59.91988710953598,2026-01-17 11h14.23.830556 +0530,
,Objects\281a.jpg,90,0,91,,,,,,,j,2.8618129000024055,None,None,,,,,,91,0,90,549.1957418999955,,,,,,,,,,,,,,,,,,,,,,,549.1812837999969,549.1957418999955,549.6802537999974,,,,,,,,,,,,,,549.7654785999985,,,,,,,,,,549.7623282999994,549.7654785999985,549.7654785999985,549.7654785999985,552.6963599999945,indoor,j,2.8618129000024055,None,552.6965213999938,552.6965586000006,None,,,,,,,,,,,,,,00038,001,2026-01-17_11h13.54.018,MST_task,2024.2.0,59.91988710953598,2026-01-17 11h14.23.830556 +0530,
,Objects\310a.jpg,91,0,92,,,,,,,None,,,f,0.3985314000019571,None,,,,92,0,91,552.7129782999982,,,,,,,,,,,,,,,,,,,,,,,552.6967388999983,552.7129782999982,553.1968991999966,,,,,,,,,,,,,,553.3242472999991,,,,,,,,,,553.3209889999998,553.3242472999991,553.3242472999991,553.3242472999991,556.2129052999953,shoe,None,,,556.218194000001,556.6309627999944,f,556.2291612999979,556.2291612999979,0.3985314000019571,None,,,,,,,,,,00038,001,2026-01-17_11h13.54.018,MST_task,2024.2.0,59.91988710953598,2026-01-17 11h14.23.830556 +0530,
,Objects\163a.jpg,92,0,93,,,,,,,None,,,f,1.129240900001605,None,,,,93,0,92,556.6458653000009,,,,,,,,,,,,,,,,,,,,,,,556.6313392999946,556.6458653000009,557.1305664999963,,,,,,,,,,,,,,557.166621599994,,,,,,,,,,557.1628017999974,557.166621599994,557.166621599994,557.166621599994,560.1462795999978,shoe,None,,,560.1464538,561.2979617999954,f,560.1623431999978,560.1623431999978,1.129240900001605,None,,,,,,,,,,00038,001,2026-01-17_11h13.54.018,MST_task,2024.2.0,59.91988710953598,2026-01-17 11h14.23.830556 +0530,
,Objects\311a.jpg,93,0,94,,,,,,,j,2.296403199994529,0.12119100000563776,None,,,,,,94,0,93,561.3124199999947,,,,,,,,,,,,,,,,,,,,,,,561.2981815999956,561.3124199999947,561.7970149999965,,,,,,,,,,,,,,561.8500321999963,,,,,,,,,,561.8472723999948,561.8500321999963,561.8500321999963,561.8500321999963,564.8128928000006,shoe,j,2.296403199994529,0.12119100000563776,564.8130110999991,564.8130527999965,None,,,,,,,,,,,,,,00038,001,2026-01-17_11h13.54.018,MST_task,2024.2.0,59.91988710953598,2026-01-17 11h14.23.830556 +0530,
,Objects\001a.jpg,94,0,95,,,,,,,None,,,f,0.2171537999965949,None,,,,95,0,94,564.8291890999972,,,,,,,,,,,,,,,,,,,,,,,564.8132403999989,564.8291890999972,565.3133148999987,,,,,,,,,,,,,,,,,,,,,,,,565.3437310000008,565.3464352999945,565.3464352999945,565.3464352999945,568.3294921999986,shoe,None,,,568.3296483999948,568.564953299996,f,568.3458644999992,568.3458644999992,0.2171537999965949,None,,,,,,,,,,00038,001,2026-01-17_11h13.54.018,MST_task,2024.2.0,59.91988710953598,2026-01-17 11h14.23.830556 +0530,
,Objects\244a.jpg,95,0,96,,,,,,,None,,,j,0.21157680000032997,None,,,,96,0,95,568.5792032999962,,,,,,,,,,,,,,,,,,,,,,,568.5652687999973,568.5792032999962,569.0636298999962,,,,,,,,,,,,,,569.1051216999986,,,,,,,,,,569.1019285000002,569.1051216999986,569.1051216999986,569.1051216999986,572.0799058999983,shoe,None,,,572.0800158999991,572.3150232999978,j,572.0958519999986,572.0958519999986,0.21157680000032997,None,,,,,,,,,,00038,001,2026-01-17_11h13.54.018,MST_task,2024.2.0,59.91988710953598,2026-01-17 11h14.23.830556 +0530,
,Objects\126a.jpg,96,0,97,,,,,,,j,1.9094594000052894,0.09470949999376899,None,,,,,,97,0,96,572.3289784000008,,,,,,,,,,,,,,,,,,,,,,,572.315274099994,572.3289784000008,572.8134095999994,,,,,,,,,,,,,,572.8782475999978,,,,,,,,,,572.8751052000007,572.8782475999978,572.8782475999978,572.8782475999978,575.830022999995,shoe,j,1.9094594000052894,0.09470949999376899,575.8301452999949,575.8301902999956,None,,,,,,,,,,,,,,00038,001,2026-01-17_11h13.54.018,MST_task,2024.2.0,59.91988710953598,2026-01-17 11h14.23.830556 +0530,
,Objects\120a.jpg,97,0,98,,,,,,,None,,,f,1.4813235999972676,None,,,,98,0,97,575.8458928999971,,,,,,,,,,,,,,,,,,,,,,,575.8303964000006,575.8458928999971,576.3301831999997,,,,,,,,,,,,,,576.3839004999973,,,,,,,,,,576.3804537999968,576.3839004999973,576.3839004999973,576.3839004999973,579.3463978,shoe,None,,,579.3465103999988,580.8476945999937,f,579.3625711999994,579.3625711999994,1.4813235999972676,None,,,,,,,,,,00038,001,2026-01-17_11h13.54.018,MST_task,2024.2.0,59.91988710953598,2026-01-17 11h14.23.830556 +0530,
,Objects\261a.jpg,98,0,99,,,,,,,f,2.2764718999969773,0.1681691999983741,None,,,,,,99,0,98,580.8626031999956,,,,,,,,,,,,,,,,,,,,,,,580.8480829999971,580.8626031999956,581.3466627999951,,,,,,,,,,,,,,581.415330799995,,,,,,,,,,581.4123801999958,581.415330799995,581.415330799995,581.415330799995,584.3628021999975,indoor,f,2.2764718999969773,0.1681691999983741,584.3667484999969,584.3667863999945,None,,,,,,,,,,,,,,00038,001,2026-01-17_11h13.54.018,MST_task,2024.2.0,59.91988710953598,2026-01-17 11h14.23.830556 +0530,
,Objects\252a.jpg,99,0,100,,,,,,,f,2.4265593999953126,0.1198593000008259,None,,,,,,100,0,99,584.3791170999975,,,,,,,,,,,,,,,,,,,,,,,584.3669340999986,584.3791170999975,584.8637849999941,,,,,,,,,,,,,,584.9449065000008,,,,,,,,,,584.9404720999955,584.9449065000008,584.9449065000008,584.9449065000008,587.8796195999967,indoor,f,2.4265593999953126,0.1198593000008259,587.8797396999944,587.8797854000004,None,,,,,,,,,,,,,,00038,001,2026-01-17_11h13.54.018,MST_task,2024.2.0,59.91988710953598,2026-01-17 11h14.23.830556 +0530,
,Objects\270a.jpg,100,0,101,,,,,,,j,1.0649405000003753,0.1688990000038757,None,,,,,,101,0,100,587.8958800999972,,,,,,,,,,,,,,,,,,,,,,,587.8799968999956,587.8958800999972,588.3803024999943,,,,,,,,,,,,,,,,,,,,,,,,588.4224829999948,588.4260578999965,588.4260578999965,588.4260578999965,591.3962537999978,indoor,j,1.0649405000003753,0.1688990000038757,591.3964401999983,591.3965085999953,None,,,,,,,,,,,,,,00038,001,2026-01-17_11h13.54.018,MST_task,2024.2.0,59.91988710953598,2026-01-17 11h14.23.830556 +0530,
,Objects\277a.jpg,101,0,102,,,,,,,None,,,f,0.8739155000002938,None,,,,102,0,101,591.4125241000002,,,,,,,,,,,,,,,,,,,,,,,591.3967768000002,591.4125241000002,591.8967890999993,,,,,,,,,,,,,,591.945681899997,,,,,,,,,,591.9428081000005,591.945681899997,591.945681899997,591.945681899997,594.9129332999946,indoor,None,,,594.9130654999972,595.8143208999973,f,594.9291679999951,594.9291679999951,0.8739155000002938,None,,,,,,,,,,00038,001,2026-01-17_11h13.54.018,MST_task,2024.2.0,59.91988710953598,2026-01-17 11h14.23.830556 +0530,
,Objects\362a.jpg,102,0,103,,,,,,,j,1.6520787999979802,0.14392500000394648,None,,,,,,103,0,102,595.8298606999961,,,,,,,,,,,,,,,,,,,,,,,595.8146053999953,595.8298606999961,596.3135886999953,,,,,,,,,,,,,,596.3675229,,,,,,,,,,596.3622984999965,596.3675229,596.3675229,596.3675229,599.3299134999979,indoor,j,1.6520787999979802,0.14392500000394648,599.3300272999986,599.3300696000006,None,,,,,,,,,,,,,,00038,001,2026-01-17_11h13.54.018,MST_task,2024.2.0,59.91988710953598,2026-01-17 11h14.23.830556 +0530,
,Objects\031a.jpg,103,0,104,,,,,,,None,,,f,0.2127942000006442,None,,,,104,0,103,599.3459409999996,,,,,,,,,,,,,,,,,,,,,,,599.3302633999992,599.3459409999996,599.8302915999957,,,,,,,,,,,,,,599.8807424999977,,,,,,,,,,599.8764317999958,599.8807424999977,599.8807424999977,599.8807424999977,602.8463477999976,indoor,None,,,602.8464976999967,603.0809451999958,f,602.8631026999938,602.8631026999938,0.2127942000006442,None,,,,,,,,,,00038,001,2026-01-17_11h13.54.018,MST_task,2024.2.0,59.91988710953598,2026-01-17 11h14.23.830556 +0530,
,Objects\185a.jpg,104,0,105,,,,,,,None,,,f,1.2465912999978173,None,,,,105,0,104,603.0958183999974,,,,,,,,,,,,,,,,,,,,,,,603.0812277000005,603.0958183999974,603.5802533999959,,,,,,,,,,,,,,603.6162508999987,,,,,,,,,,603.6119255999947,603.6162508999987,603.6162508999987,603.6162508999987,606.5960618999961,indoor,None,,,606.5961306999961,607.8647414999941,f,606.6124048999991,606.6124048999991,1.2465912999978173,None,,,,,,,,,,00038,001,2026-01-17_11h13.54.018,MST_task,2024.2.0,59.91988710953598,2026-01-17 11h14.23.830556 +0530,
,Objects\246a.jpg,105,0,106,,,,,,,f,2.6713678000014625,0.14465650000056485,None,,,,,,106,0,105,607.8793087999948,,,,,,,,,,,,,,,,,,,,,,,607.8651213999983,607.8793087999948,608.3634902999984,,,,,,,,,,,,,,608.4273236000008,,,,,,,,,,608.4246534999984,608.4273236000008,608.4273236000008,608.4273236000008,611.3798849999948,shoe,f,2.6713678000014625,0.14465650000056485,611.3840262999947,611.3840582999983,None,,,,,,,,,,,,,,00038,001,2026-01-17_11h13.54.018,MST_task,2024.2.0,59.91988710953598,2026-01-17 11h14.23.830556 +0530,
,Objects\364a.jpg,106,0,107,,,,,,,f,2.4948134000005666,0.12851450000016484,None,,,,,,107,0,106,611.3958725999983,,,,,,,,,,,,,,,,,,,,,,,611.384183999995,611.3958725999983,611.8806598999945,,,,,,,,,,,,,,611.9163750999942,,,,,,,,,,611.9116343999995,611.9163750999942,611.9163750999942,611.9163750999942,614.8962919999976,shoe,f,2.4948134000005666,0.12851450000016484,614.8964684999955,614.8965362999952,None,,,,,,,,,,,,,,00038,001,2026-01-17_11h13.54.018,MST_task,2024.2.0,59.91988710953598,2026-01-17 11h14.23.830556 +0530,
,Objects\232a.jpg,107,0,108,,,,,,,None,,,f,2.326728000000003,None,,,,108,0,107,614.9124276000002,,,,,,,,,,,,,,,,,,,,,,,614.8968590999939,614.9124276000002,615.3969968999954,,,,,,,,,,,,,,615.4259161000009,,,,,,,,,,615.4231402000005,615.4259161000009,615.4259161000009,615.4259161000009,618.4127750999978,shoe,None,,,618.4129154999973,620.7644561999987,f,618.4291286000007,618.4291286000007,2.326728000000003,None,,,,,,,,,,00038,001,2026-01-17_11h13.54.018,MST_task,2024.2.0,59.91988710953598,2026-01-17 11h14.23.830556 +0530,
,Objects\113a.jpg,108,0,109,,,,,,,f,2.831232699994871,None,None,,,,,,109,0,108,620.7791111999977,,,,,,,,,,,,,,,,,,,,,,,620.7648333999969,620.7791111999977,621.2635332999998,,,,,,,,,,,,,,621.3153336999967,,,,,,,,,,621.3114808999962,621.3153336999967,621.3153336999967,621.3153336999967,624.2796725999942,shoe,f,2.831232699994871,None,624.279846999998,624.2799146999969,None,,,,,,,,,,,,,,00038,001,2026-01-17_11h13.54.018,MST_task,2024.2.0,59.91988710953598,2026-01-17 11h14.23.830556 +0530,
,Objects\029a.jpg,109,0,110,,,,,,,f,2.124359400004323,0.16931130000011763,None,,,,,,110,0,109,624.2961581999989,,,,,,,,,,,,,,,,,,,,,,,624.2802432999961,624.2961581999989,624.7804047999962,,,,,,,,,,,,,,624.9021996999945,,,,,,,,,,624.8985097999976,624.9021996999945,624.9021996999945,624.9021996999945,627.7964528999946,shoe,f,2.124359400004323,0.16931130000011763,627.7965796999997,627.7966280999972,None,,,,,,,,,,,,,,00038,001,2026-01-17_11h13.54.018,MST_task,2024.2.0,59.91988710953598,2026-01-17 11h14.23.830556 +0530,
,Objects\309a.jpg,110,0,111,,,,,,,f,2.516377100000682,0.15978349999932107,None,,,,,,111,0,110,627.8125149999978,,,,,,,,,,,,,,,,,,,,,,,627.7969290999972,627.8125149999978,628.2971929999985,,,,,,,,,,,,,,628.4064055999988,,,,,,,,,,628.4031300999995,628.4064055999988,628.4064055999988,628.4064055999988,631.3129234000007,shoe,f,2.516377100000682,0.15978349999932107,631.3130354999957,631.3130769999989,None,,,,,,,,,,,,,,00038,001,2026-01-17_11h13.54.018,MST_task,2024.2.0,59.91988710953598,2026-01-17 11h14.23.830556 +0530,
,Objects\273a.jpg,111,0,112,,,,,,,j,2.5223867999957292,0.12005390000558691,None,,,,,,112,0,111,631.3291343999954,,,,,,,,,,,,,,,,,,,,,,,631.3132726999975,631.3291343999954,631.8138264000008,,,,,,,,,,,,,,631.8729951999994,,,,,,,,,,631.8693438999981,631.8729951999994,631.8729951999994,631.8729951999994,634.8295832999938,shoe,j,2.5223867999957292,0.12005390000558691,634.829690999999,634.8297259999963,None,,,,,,,,,,,,,,00038,001,2026-01-17_11h13.54.018,MST_task,2024.2.0,59.91988710953598,2026-01-17 11h14.23.830556 +0530,
,Objects\154a.jpg,112,0,113,,,,,,,f,2.4883633999997983,0.16777290000027278,None,,,,,,113,0,112,634.8457759999947,,,,,,,,,,,,,,,,,,,,,,,634.8298884999967,634.8457759999947,635.3301929999943,,,,,,,,,,,,,,635.4031296999965,,,,,,,,,,635.4002765999976,635.4031296999965,635.4031296999965,635.4031296999965,638.3462207999983,indoor,f,2.4883633999997983,0.16777290000027278,638.3493110999989,638.3493429999944,None,,,,,,,,,,,,,,00038,001,2026-01-17_11h13.54.018,MST_task,2024.2.0,59.91988710953598,2026-01-17 11h14.23.830556 +0530,
,Objects\088a.jpg,113,0,114,,,,,,,f,1.7794519000017317,0.15210429999569897,None,,,,,,114,0,113,638.3625914999939,,,,,,,,,,,,,,,,,,,,,,,638.3494766999938,638.3625914999939,638.8469445999945,,,,,,,,,,,,,,638.8874517999939,,,,,,,,,,638.8845862999951,638.8874517999939,638.8874517999939,638.8874517999939,641.8631252999985,indoor,f,1.7794519000017317,0.15210429999569897,641.8632874999967,641.8633390999967,None,,,,,,,,,,,,,,00038,001,2026-01-17_11h13.54.018,MST_task,2024.2.0,59.91988710953598,2026-01-17 11h14.23.830556 +0530,
,Objects\035a.jpg,114,0,115,,,,,,,f,2.239063900000474,0.13521960000070976,None,,,,,,115,0,114,641.8791398999965,,,,,,,,,,,,,,,,,,,,,,,641.8635256999987,641.8791398999965,642.3636759000001,,,,,,,,,,,,,,642.3971676000001,,,,,,,,,,642.3935290000009,642.3971676000001,642.3971676000001,642.3971676000001,645.3797224999944,indoor,f,2.239063900000474,0.13521960000070976,645.379895799997,645.3799636999975,None,,,,,,,,,,,,,,00038,001,2026-01-17_11h13.54.018,MST_task,2024.2.0,59.91988710953598,2026-01-17 11h14.23.830556 +0530,
,Objects\107a.jpg,115,0,116,,,,,,,f,1.8963330999977188,0.12873140000010608,None,,,,,,116,0,115,645.3956203999987,,,,,,,,,,,,,,,,,,,,,,,645.3801816999985,645.3956203999987,645.8801782999944,,,,,,,,,,,,,,645.9223798999956,,,,,,,,,,645.9193570999996,645.9223798999956,645.9223798999956,645.9223798999956,648.8963986999952,indoor,f,1.8963330999977188,0.12873140000010608,648.896562599999,648.8966040999949,None,,,,,,,,,,,,,,00038,001,2026-01-17_11h13.54.018,MST_task,2024.2.0,59.91988710953598,2026-01-17 11h14.23.830556 +0530,
,Objects\295a.jpg,116,0,117,,,,,,,f,2.910315699999046,None,None,,,,,,117,0,116,648.9126973999955,,,,,,,,,,,,,,,,,,,,,,,648.8968088999973,648.9126973999955,649.3976264999947,,,,,,,,,,,,,,649.4614163000006,,,,,,,,,,649.4584059999979,649.4614163000006,649.4614163000006,649.4614163000006,652.4129707999964,indoor,f,2.910315699999046,None,652.4131463999947,652.4132121000002,None,,,,,,,,,,,,,,00038,001,2026-01-17_11h13.54.018,MST_task,2024.2.0,59.91988710953598,2026-01-17 11h14.23.830556 +0530,
,Objects\073a.jpg,117,0,118,,,,,,,None,,,f,0.24235000000044238,None,,,,118,0,117,652.4292552999977,,,,,,,,,,,,,,,,,,,,,,,652.4135033999992,652.4292552999977,652.9139686999988,,,,,,,,,,,,,,652.9782654999944,,,,,,,,,,652.9745074999955,652.9782654999944,652.9782654999944,652.9782654999944,655.9296757999982,indoor,None,,,655.9298472999944,656.1979896999983,f,655.9456801999986,655.9456801999986,0.24235000000044238,None,,,,,,,,,,00038,001,2026-01-17_11h13.54.018,MST_task,2024.2.0,59.91988710953598,2026-01-17 11h14.23.830556 +0530,
,Objects\369a.jpg,118,0,119,,,,,,,f,2.574530899997626,0.14429499999823747,None,,,,,,119,0,118,656.212728999999,,,,,,,,,,,,,,,,,,,,,,,656.1982219999991,656.212728999999,656.6969195999991,,,,,,,,,,,,,,656.7408701999957,,,,,,,,,,656.7381760999997,656.7408701999957,656.7408701999957,656.7408701999957,659.7128764000008,indoor,f,2.574530899997626,0.14429499999823747,659.7129879999993,659.7130309999993,None,,,,,,,,,,,,,,00038,001,2026-01-17_11h13.54.018,MST_task,2024.2.0,59.91988710953598,2026-01-17 11h14.23.830556 +0530,
,Objects\335a.jpg,119,0,120,,,,,,,j,2.215914000000339,0.11223780000000261,None,,,,,,120,0,119,659.7291810999959,,,,,,,,,,,,,,,,,,,,,,,659.713222499995,659.7291810999959,660.2138202999995,,,,,,,,,,,,,,660.2673319999958,,,,,,,,,,660.264253399997,660.2673319999958,660.2673319999958,660.2673319999958,663.2295990999992,shoe,j,2.215914000000339,0.11223780000000261,663.2341135999959,663.2341478999952,None,,,,,,,,,,,,,,00038,001,2026-01-17_11h13.54.018,MST_task,2024.2.0,59.91988710953598,2026-01-17 11h14.23.830556 +0530,
,Objects\266a.jpg,120,0,121,,,,,,,None,,,j,0.3686042000044836,None,,,,121,0,120,663.2459419999941,,,,,,,,,,,,,,,,,,,,,,,663.2343428999957,663.2459419999941,663.7301507999946,,,,,,,,,,,,,,663.7894789999991,,,,,,,,,,663.786268099997,663.7894789999991,663.7894789999991,663.7894789999991,666.7461171999967,shoe,None,,,666.7462142999939,667.1474018000008,j,666.7624808999972,666.7624808999972,0.3686042000044836,None,,,,,,,,,,00038,001,2026-01-17_11h13.54.018,MST_task,2024.2.0,59.91988710953598,2026-01-17 11h14.23.830556 +0530,
,Objects\191a.jpg,121,0,122,,,,,,,f,1.5483900999970501,0.12689760000648675,None,,,,,,122,0,121,667.1625872999939,,,,,,,,,,,,,,,,,,,,,,,667.1476485999956,667.1625872999939,667.6469346999947,,,,,,,,,,,,,,667.6794058999949,,,,,,,,,,667.6757146999953,667.6794058999949,667.6794058999949,667.6794058999949,670.662974299994,shoe,f,1.5483900999970501,0.12689760000648675,670.6631599999964,670.6632286999957,None,,,,,,,,,,,,,,00038,001,2026-01-17_11h13.54.018,MST_task,2024.2.0,59.91988710953598,2026-01-17 11h14.23.830556 +0530,
,Objects\353a.jpg,122,0,123,,,,,,,f,2.756700300000375,None,None,,,,,,123,0,122,670.6791716999942,,,,,,,,,,,,,,,,,,,,,,,670.6636813000005,670.6791716999942,671.1636837999977,,,,,,,,,,,,,,671.2782959999968,,,,,,,,,,671.2751205999957,671.2782959999968,671.2782959999968,671.2782959999968,674.1795732999963,shoe,f,2.756700300000375,None,674.1797122999997,674.1797606999971,None,,,,,,,,,,,,,,00038,001,2026-01-17_11h13.54.018,MST_task,2024.2.0,59.91988710953598,2026-01-17 11h14.23.830556 +0530,
,Objects\143a.jpg,123,0,124,,,,,,,j,2.063859699999739,0.13536949999979697,None,,,,,,124,0,123,674.1957524999962,,,,,,,,,,,,,,,,,,,,,,,674.1800024999975,674.1957524999962,674.6804081999944,,,,,,,,,,,,,,674.7397952999963,,,,,,,,,,674.7352695999944,674.7397952999963,674.7397952999963,674.7397952999963,677.6963303999946,shoe,j,2.063859699999739,0.13536949999979697,677.6964429,677.6964842999951,None,,,,,,,,,,,,,,00038,001,2026-01-17_11h13.54.018,MST_task,2024.2.0,59.91988710953598,2026-01-17 11h14.23.830556 +0530,
,Objects\102a.jpg,124,0,125,,,,,,,f,2.0539848000044003,0.14486659999965923,None,,,,,,125,0,124,677.7127193999986,,,,,,,,,,,,,,,,,,,,,,,677.6966777999987,677.7127193999986,678.196903899996,,,,,,,,,,,,,,678.2767462999982,,,,,,,,,,678.2738609999942,678.2767462999982,678.2767462999982,678.2767462999982,681.2128624999968,shoe,f,2.0539848000044003,0.14486659999965923,681.2130373999971,681.2131130999987,None,,,,,,,,,,,,,,00038,001,2026-01-17_11h13.54.018,MST_task,2024.2.0,59.91988710953598,2026-01-17 11h14.23.830556 +0530,
,Objects\122a.jpg,125,0,126,,,,,,,None,,,f,0.3138743000017712,None,,,,126,0,125,681.2291936999973,,,,,,,,,,,,,,,,,,,,,,,681.2132989999955,681.2291936999973,681.7136370000007,,,,,,,,,,,,,,681.7992460999958,,,,,,,,,,681.7957451999973,681.7992460999958,681.7992460999958,681.7992460999958,684.7295162999944,shoe,None,,,684.7296735999989,685.0645826999971,f,684.7459483999992,684.7459483999992,0.3138743000017712,None,,,,,,,,,,00038,001,2026-01-17_11h13.54.018,MST_task,2024.2.0,59.91988710953598,2026-01-17 11h14.23.830556 +0530,
,Objects\328a.jpg,126,0,127,,,,,,,j,1.9325303000005079,0.1198214999967604,None,,,,,,127,0,126,685.0796243000004,,,,,,,,,,,,,,,,,,,,,,,685.064870299997,685.0796243000004,685.5636096999951,,,,,,,,,,,,,,685.6301898999955,,,,,,,,,,685.6274854000003,685.6301898999955,685.6301898999955,685.6301898999955,688.5798828999978,indoor,j,1.9325303000005079,0.1198214999967604,688.583699099996,688.5837344999964,None,,,,,,,,,,,,,,00038,001,2026-01-17_11h13.54.018,MST_task,2024.2.0,59.91988710953598,2026-01-17 11h14.23.830556 +0530,
,Objects\249a.jpg,127,0,128,,,,,,,None,,,j,0.2978422000014689,None,,,,128,0,127,688.5958802999958,,,,,,,,,,,,,,,,,,,,,,,688.5838753999997,688.5958802999958,689.0800620999944,,,,,,,,,,,,,,689.1228377999942,,,,,,,,,,689.1194586999991,689.1228377999942,689.1228377999942,689.1228377999942,692.0965126999945,indoor,None,,,692.0966728999992,692.4145444999958,j,692.1126953999992,692.1126953999992,0.2978422000014689,None,,,,,,,,,,00038,001,2026-01-17_11h13.54.018,MST_task,2024.2.0,59.91988710953598,2026-01-17 11h14.23.830556 +0530,
,Objects\263a.jpg,128,0,129,,,,,,,None,,,j,0.4011965000026976,None,,,,129,0,128,692.4291167999982,,,,,,,,,,,,,,,,,,,,,,,692.4148292999962,692.4291167999982,692.9136880000005,,,,,,,,,,,,,,693.0254879999993,,,,,,,,,,693.0226406000002,693.0254879999993,693.0254879999993,693.0254879999993,695.929744699999,indoor,None,,,695.9299037999954,696.363894999995,j,695.9459538999945,695.9459538999945,0.4011965000026976,None,,,,,,,,,,00038,001,2026-01-17_11h13.54.018,MST_task,2024.2.0,59.91988710953598,2026-01-17 11h14.23.830556 +0530,
,Objects\234a.jpg,129,0,130,,,,,,,None,,,f,0.2748065999985556,None,,,,130,0,129,696.3799795999948,,,,,,,,,,,,,,,,,,,,,,,696.364167599997,696.3799795999948,696.8635207999978,,,,,,,,,,,,,,696.9576973999938,,,,,,,,,,696.9538004999995,696.9576973999938,696.9576973999938,696.9576973999938,699.879869599994,indoor,None,,,699.8799880999941,700.1810132999963,f,699.8961751999959,699.8961751999959,0.2748065999985556,None,,,,,,,,,,00038,001,2026-01-17_11h13.54.018,MST_task,2024.2.0,59.91988710953598,2026-01-17 11h14.23.830556 +0530,
,Objects\213a.jpg,130,0,131,,,,,,,None,,,f,0.24290570000448497,None,,,,131,0,130,700.195749999999,,,,,,,,,,,,,,,,,,,,,,,700.1813890999983,700.195749999999,700.6807382999978,,,,,,,,,,,,,,700.7372395999992,,,,,,,,,,700.7329572999952,700.7372395999992,700.7372395999992,700.7372395999992,703.6960866999943,indoor,None,,,703.6961764999942,703.9643555999937,f,703.712537200001,703.712537200001,0.24290570000448497,None,,,,,,,,,,00038,001,2026-01-17_11h13.54.018,MST_task,2024.2.0,59.91988710953598,2026-01-17 11h14.23.830556 +0530,
,Objects\037a.jpg,131,0,132,,,,,,,j,2.6943517999970936,0.09627540000656154,None,,,,,,132,0,131,703.9791545999979,,,,,,,,,,,,,,,,,,,,,,,703.9645762,703.9791545999979,704.4636593999967,,,,,,,,,,,,,,704.5083487999946,,,,,,,,,,704.5048806999985,704.5083487999946,704.5083487999946,704.5083487999946,707.4798855999979,indoor,j,2.6943517999970936,0.09627540000656154,707.480052699997,707.4800918999972,None,,,,,,,,,,,,,,00038,001,2026-01-17_11h13.54.018,MST_task,2024.2.0,59.91988710953598,2026-01-17 11h14.23.830556 +0530,
,Objects\366a.jpg,132,0,133,,,,,,,j,1.7990898999996716,0.12637009999889415,None,,,,,,133,0,132,707.4958100000003,,,,,,,,,,,,,,,,,,,,,,,707.4802796999938,707.4958100000003,707.9804889000006,,,,,,,,,,,,,,708.0210051999966,,,,,,,,,,708.018067099998,708.0210051999966,708.0210051999966,708.0210051999966,710.9962916999939,indoor,j,1.7990898999996716,0.12637009999889415,710.9964655000003,710.9965329999977,None,,,,,,,,,,,,,,00038,001,2026-01-17_11h13.54.018,MST_task,2024.2.0,59.91988710953598,2026-01-17 11h14.23.830556 +0530,
,Objects\367a.jpg,133,0,134,,,,,,,None,,,j,1.0898186000049463,None,,,,134,0,133,711.012576999994,,,,,,,,,,,,,,,,,,,,,,,710.9968653999968,711.012576999994,711.4970333999954,,,,,,,,,,,,,,711.6126040999952,,,,,,,,,,711.6085864999986,711.6126040999952,711.6126040999952,711.6126040999952,714.5128805999993,shoe,None,,,714.5174771999955,715.6309101999941,j,714.5288304999995,714.5288304999995,1.0898186000049463,None,,,,,,,,,,00038,001,2026-01-17_11h13.54.018,MST_task,2024.2.0,59.91988710953598,2026-01-17 11h14.23.830556 +0530,
,Objects\200a.jpg,134,0,135,,,,,,,None,,,f,0.9123557999992045,None,,,,135,0,134,715.6456910999987,,,,,,,,,,,,,,,,,,,,,,,715.6312350000007,715.6456910999987,716.129903699999,,,,,,,,,,,,,,716.1629223999989,,,,,,,,,,716.1595639000006,716.1629223999989,716.1629223999989,716.1629223999989,719.1462552999947,shoe,None,,,719.1464290999938,720.080773499998,f,719.1625306999995,719.1625306999995,0.9123557999992045,None,,,,,,,,,,00038,001,2026-01-17_11h13.54.018,MST_task,2024.2.0,59.91988710953598,2026-01-17 11h14.23.830556 +0530,
,Objects\350a.jpg,135,0,136,,,,,,,f,2.6396821000016644,0.14297639999858802,None,,,,,,136,0,135,720.0957391999982,,,,,,,,,,,,,,,,,,,,,,,720.0810596999945,720.0957391999982,720.5803736999951,,,,,,,,,,,,,,720.6356809999997,,,,,,,,,,720.6324447999941,720.6356809999997,720.6356809999997,720.6356809999997,723.5962937999939,shoe,f,2.6396821000016644,0.14297639999858802,723.5964839999942,723.5965087999939,None,,,,,,,,,,,,,,00038,001,2026-01-17_11h13.54.018,MST_task,2024.2.0,59.91988710953598,2026-01-17 11h14.23.830556 +0530,
,Objects\381a.jpg,136,0,137,,,,,,,j,2.7310809000045992,0.12091309999959776,None,,,,,,137,0,136,723.612724599996,,,,,,,,,,,,,,,,,,,,,,,723.5966232999999,723.612724599996,724.096971299994,,,,,,,,,,,,,,724.1676431999949,,,,,,,,,,724.1642633999945,724.1676431999949,724.1676431999949,724.1676431999949,727.1129434999966,shoe,j,2.7310809000045992,0.12091309999959776,727.1131155999974,727.113182999994,None,,,,,,,,,,,,,,00038,001,2026-01-17_11h13.54.018,MST_task,2024.2.0,59.91988710953598,2026-01-17 11h14.23.830556 +0530,
,Objects\333a.jpg,137,0,138,,,,,,,f,2.7362473999965005,0.1436186999999336,None,,,,,,138,0,137,727.129188699997,,,,,,,,,,,,,,,,,,,,,,,727.113525599998,727.129188699997,727.6134951999993,,,,,,,,,,,,,,727.6667199000003,,,,,,,,,,727.6624780999991,727.6667199000003,727.6667199000003,727.6667199000003,730.6295437000008,shoe,f,2.7362473999965005,0.1436186999999336,730.6296676999991,730.6297170999969,None,,,,,,,,,,,,,,00038,001,2026-01-17_11h13.54.018,MST_task,2024.2.0,59.91988710953598,2026-01-17 11h14.23.830556 +0530,
,Objects\324a.jpg,138,0,139,,,,,,,f,2.668755200000305,0.15950359999987995,None,,,,,,139,0,138,730.6458888999987,,,,,,,,,,,,,,,,,,,,,,,730.6299370999986,730.6458888999987,731.1302833000009,,,,,,,,,,,,,,731.1979887999987,,,,,,,,,,731.1947618999984,731.1979887999987,731.1979887999987,731.1979887999987,734.1298853999979,shoe,f,2.668755200000305,0.15950359999987995,734.1300200999976,734.1300669999982,None,,,,,,,,,,,,,,00038,001,2026-01-17_11h13.54.018,MST_task,2024.2.0,59.91988710953598,2026-01-17 11h14.23.830556 +0530,
,Objects\223a.jpg,139,0,140,,,,,,,j,1.2228580999944825,0.14364460000069812,None,,,,,,140,0,139,734.1461615999942,,,,,,,,,,,,,,,,,,,,,,,734.1303750999941,734.1461615999942,734.6302412999939,,,,,,,,,,,,,,734.7238539999962,,,,,,,,,,734.7197704999999,734.7238539999962,734.7238539999962,734.7238539999962,737.6464543999973,shoe,j,1.2228580999944825,0.14364460000069812,737.6465660999966,737.6466127999956,None,,,,,,,,,,,,,,00038,001,2026-01-17_11h13.54.018,MST_task,2024.2.0,59.91988710953598,2026-01-17 11h14.23.830556 +0530,
,Objects\045a.jpg,140,0,141,,,,,,,None,,,f,0.9522612000000663,None,,,,141,0,140,737.662617199996,,,,,,,,,,,,,,,,,,,,,,,737.6468705999941,737.662617199996,738.1470233,,,,,,,,,,,,,,738.1995389999938,,,,,,,,,,738.1963113999955,738.1995389999938,738.1995389999938,738.1995389999938,741.1629294999948,indoor,None,,,741.1661284000002,742.1478463999956,f,741.1790936999969,741.1790936999969,0.9522612000000663,None,,,,,,,,,,00038,001,2026-01-17_11h13.54.018,MST_task,2024.2.0,59.91988710953598,2026-01-17 11h14.23.830556 +0530,
,Objects\243a.jpg,141,0,142,,,,,,,f,2.8942144000029657,None,None,,,,,,142,0,141,742.1627372000003,,,,,,,,,,,,,,,,,,,,,,,742.1482198999947,742.1627372000003,742.6470594999992,,,,,,,,,,,,,,742.6938805999962,,,,,,,,,,742.6901243999964,742.6938805999962,742.6938805999962,742.6938805999962,745.6632093000007,indoor,f,2.8942144000029657,None,745.6633266999997,745.6633708999943,None,,,,,,,,,,,,,,00038,001,2026-01-17_11h13.54.018,MST_task,2024.2.0,59.91988710953598,2026-01-17 11h14.23.830556 +0530,
,Objects\166a.jpg,142,0,143,,,,,,,None,,,f,0.22327450000011595,None,,,,143,0,142,745.6791044999991,,,,,,,,,,,,,,,,,,,,,,,745.6636044999977,745.6791044999991,746.1635303000003,,,,,,,,,,,,,,746.2133106999972,,,,,,,,,,746.2099638,746.2133106999972,746.2133106999972,746.2133106999972,749.179722199995,indoor,None,,,749.1798414999939,749.4312569999965,f,749.1960870999974,749.1960870999974,0.22327450000011595,None,,,,,,,,,,00038,001,2026-01-17_11h13.54.018,MST_task,2024.2.0,59.91988710953598,2026-01-17 11h14.23.830556 +0530,
,Objects\373a.jpg,143,0,144,,,,,,,j,1.0945011000003433,0.1440426000044681,None,,,,,,144,0,143,749.4458385999969,,,,,,,,,,,,,,,,,,,,,,,749.431488299997,749.4458385999969,749.930183299999,,,,,,,,,,,,,,749.9651229999945,,,,,,,,,,749.9616081999993,749.9651229999945,749.9651229999945,749.9651229999945,752.9465003000005,indoor,j,1.0945011000003433,0.1440426000044681,752.9466747999977,752.946743499997,None,,,,,,,,,,,,,,00038,001,2026-01-17_11h13.54.018,MST_task,2024.2.0,59.91988710953598,2026-01-17 11h14.23.830556 +0530,
,Objects\178a.jpg,144,0,145,,,,,,,j,1.1606183000039891,0.1690565999961109,None,,,,,,145,0,144,752.9625083999999,,,,,,,,,,,,,,,,,,,,,,,752.9470039999942,752.9625083999999,753.4472701999985,,,,,,,,,,,,,,753.5537306999977,,,,,,,,,,753.5504502999975,753.5537306999977,753.5537306999977,753.5537306999977,756.4629583999995,indoor,j,1.1606183000039891,0.1690565999961109,756.4631353999939,756.4631845999975,None,,,,,,,,,,,,,,00038,001,2026-01-17_11h13.54.018,MST_task,2024.2.0,59.91988710953598,2026-01-17 11h14.23.830556 +0530,
,Objects\174a.jpg,145,0,146,,,,,,,f,1.8733775000000605,0.13675740000326186,None,,,,,,146,0,145,756.479299599996,,,,,,,,,,,,,,,,,,,,,,,756.4634067000006,756.479299599996,756.9637507000007,,,,,,,,,,,,,,757.0173390999989,,,,,,,,,,757.0143322999938,757.0173390999989,757.0173390999989,757.0173390999989,759.9790128999957,indoor,f,1.8733775000000605,0.13675740000326186,759.9791001999984,759.9791299999997,None,,,,,,,,,,,,,,00038,001,2026-01-17_11h13.54.018,MST_task,2024.2.0,59.91988710953598,2026-01-17 11h14.23.830556 +0530,
,Objects\002a.jpg,146,0,147,,,,,,,j,2.4120435000004363,0.09684310000011465,None,,,,,,147,0,146,759.9957633999948,,,,,,,,,,,,,,,,,,,,,,,759.9792639999941,759.9957633999948,760.4793974999993,,,,,,,,,,,,,,760.5267674999996,,,,,,,,,,760.5241327999975,760.5267674999996,760.5267674999996,760.5267674999996,763.4794959999999,indoor,j,2.4120435000004363,0.09684310000011465,763.4796184000006,763.4796647999974,None,,,,,,,,,,,,,,00038,001,2026-01-17_11h13.54.018,MST_task,2024.2.0,59.91988710953598,2026-01-17 11h14.23.830556 +0530,
,Objects\056a.jpg,147,0,148,,,,,,,f,1.7292550999991363,0.14505210000061197,None,,,,,,148,0,147,763.4958815999998,,,,,,,,,,,,,,,,,,,,,,,763.4798860999945,763.4958815999998,763.980207099994,,,,,,,,,,,,,,764.0174675999951,,,,,,,,,,764.0148778000002,764.0174675999951,764.0174675999951,764.0174675999951,766.9963994999998,shoe,f,1.7292550999991363,0.14505210000061197,767.0015327000001,767.0015813999998,None,,,,,,,,,,,,,,00038,001,2026-01-17_11h13.54.018,MST_task,2024.2.0,59.91988710953598,2026-01-17 11h14.23.830556 +0530,
,Objects\099a.jpg,148,0,149,,,,,,,f,2.3406938000043738,0.1212909000023501,None,,,,,,149,0,148,767.0126584999962,,,,,,,,,,,,,,,,,,,,,,,767.0017863999965,767.0126584999962,767.4966960999955,,,,,,,,,,,,,,767.5415322999979,,,,,,,,,,767.538200899995,767.5415322999979,767.5415322999979,767.5415322999979,770.512939799999,shoe,f,2.3406938000043738,0.1212909000023501,770.5130833000003,770.5131332999954,None,,,,,,,,,,,,,,00038,001,2026-01-17_11h13.54.018,MST_task,2024.2.0,59.91988710953598,2026-01-17 11h14.23.830556 +0530,
,Objects\092a.jpg,149,0,150,,,,,,,None,,,f,1.557861100001901,None,,,,150,0,149,770.5301418999952,,,,,,,,,,,,,,,,,,,,,,,770.5133625999952,770.5301418999952,771.0291206999973,,,,,,,,,,,,,,,,,,,,,,,,771.0656601999945,771.0689328000008,771.0689328000008,771.0689328000008,774.029401199994,shoe,None,,,774.0295291999937,775.6143198999998,f,774.0457905000003,774.0457905000003,1.557861100001901,None,,,,,,,,,,00038,001,2026-01-17_11h13.54.018,MST_task,2024.2.0,59.91988710953598,2026-01-17 11h14.23.830556 +0530,
,Objects\168a.jpg,150,0,151,,,,,,,f,2.8073645000040415,0.1362312999990536,None,,,,,,151,0,150,775.6292522000003,,,,,,,,,,,,,,,,,,,,,,,775.6145847999942,775.6292522000003,776.1135737999939,,,,,,,,,,,,,,776.1553398999968,,,,,,,,,,776.1524606999956,776.1553398999968,776.1553398999968,776.1553398999968,779.1301676000003,shoe,f,2.8073645000040415,0.1362312999990536,779.1303094999967,779.1303585999995,None,,,,,,,,,,,,,,00038,001,2026-01-17_11h13.54.018,MST_task,2024.2.0,59.91988710953598,2026-01-17 11h14.23.830556 +0530,
,Objects\358a.jpg,151,0,152,,,,,,,None,,,f,0.25216740000178106,None,,,,152,0,151,779.1458375999937,,,,,,,,,,,,,,,,,,,,,,,779.1306647999954,779.1458375999937,779.6301992999943,,,,,,,,,,,,,,779.6890188999969,,,,,,,,,,779.6860907999944,779.6890188999969,779.6890188999969,779.6890188999969,782.6463034999979,shoe,None,,,782.6464702999947,782.931195899997,f,782.662496799996,782.662496799996,0.25216740000178106,None,,,,,,,,,,00038,001,2026-01-17_11h13.54.018,MST_task,2024.2.0,59.91988710953598,2026-01-17 11h14.23.830556 +0530,
,Objects\340a.jpg,152,0,153,,,,,,,f,1.695849100004125,0.14283140000043204,None,,,,,,153,0,152,782.9458272999982,,,,,,,,,,,,,,,,,,,,,,,782.9314292999989,782.9458272999982,783.4304571999965,,,,,,,,,,,,,,783.4596262999985,,,,,,,,,,783.4562885999985,783.4596262999985,783.4596262999985,783.4596262999985,786.4462117999938,shoe,f,1.695849100004125,0.14283140000043204,786.4463535999967,786.4464103999999,None,,,,,,,,,,,,,,00038,001,2026-01-17_11h13.54.018,MST_task,2024.2.0,59.91988710953598,2026-01-17 11h14.23.830556 +0530,
,Objects\378a.jpg,153,0,154,,,,,,,None,,,f,0.9110333999997238,None,,,,154,0,153,786.4628538999968,,,,,,,,,,,,,,,,,,,,,,,786.4466592999961,786.4628538999968,786.9471057999981,,,,,,,,,,,,,,786.9903689999992,,,,,,,,,,786.987158099997,786.9903689999992,786.9903689999992,786.9903689999992,789.9632248999987,shoe,None,,,789.9633346999981,790.8977668000007,f,789.9792636999991,789.9792636999991,0.9110333999997238,None,,,,,,,,,,00038,001,2026-01-17_11h13.54.018,MST_task,2024.2.0,59.91988710953598,2026-01-17 11h14.23.830556 +0530,
,Objects\024a.jpg,154,0,155,,,,,,,None,,,f,1.3824122000005445,None,,,,155,0,154,790.9125499000002,,,,,,,,,,,,,,,,,,,,,,,790.8980727999951,790.9125499000002,791.396957099998,,,,,,,,,,,,,,791.4918687999962,,,,,,,,,,791.4891694999969,791.4918687999962,791.4918687999962,791.4918687999962,794.4128980999958,indoor,None,,,794.418067599996,795.8150267999954,f,794.4291594999959,794.4291594999959,1.3824122000005445,None,,,,,,,,,,00038,001,2026-01-17_11h13.54.018,MST_task,2024.2.0,59.91988710953598,2026-01-17 11h14.23.830556 +0530,
,Objects\321a.jpg,155,0,156,,,,,,,j,1.863477499995497,0.10321909999765921,None,,,,,,156,0,155,795.8293534999975,,,,,,,,,,,,,,,,,,,,,,,795.8152501999939,795.8293534999975,796.3137000999996,,,,,,,,,,,,,,796.3475582999963,,,,,,,,,,796.3444743,796.3475582999963,796.3475582999963,796.3475582999963,799.3299239999978,indoor,j,1.863477499995497,0.10321909999765921,799.3300985999958,799.3301700999946,None,,,,,,,,,,,,,,00038,001,2026-01-17_11h13.54.018,MST_task,2024.2.0,59.91988710953598,2026-01-17 11h14.23.830556 +0530,
,Objects\038a.jpg,156,0,157,,,,,,,j,2.6774188999988837,0.08776209999632556,None,,,,,,157,0,156,799.3457779999953,,,,,,,,,,,,,,,,,,,,,,,799.3304772999982,799.3457779999953,799.8304121999972,,,,,,,,,,,,,,799.8620497999946,,,,,,,,,,799.8588439999949,799.8620497999946,799.8620497999946,799.8620497999946,802.8465309999956,indoor,j,2.6774188999988837,0.08776209999632556,802.8466449999978,802.8466903000008,None,,,,,,,,,,,,,,00038,001,2026-01-17_11h13.54.018,MST_task,2024.2.0,59.91988710953598,2026-01-17 11h14.23.830556 +0530,
,Objects\053a.jpg,157,0,158,,,,,,,None,,,j,0.20824729999731062,None,,,,158,0,157,802.8626976999949,,,,,,,,,,,,,,,,,,,,,,,802.8468952999974,802.8626976999949,803.3470705,,,,,,,,,,,,,,803.4048556999987,,,,,,,,,,803.402053699996,803.4048556999987,803.4048556999987,803.4048556999987,806.3628911999986,indoor,None,,,806.3629968999958,806.5969862999991,j,806.3791911000008,806.3791911000008,0.20824729999731062,None,,,,,,,,,,00038,001,2026-01-17_11h13.54.018,MST_task,2024.2.0,59.91988710953598,2026-01-17 11h14.23.830556 +0530,
,Objects\044a.jpg,158,0,159,,,,,,,j,2.6779987000045367,0.11232939999899827,None,,,,,,159,0,158,806.612452399997,,,,,,,,,,,,,,,,,,,,,,,806.5971524999986,806.612452399997,807.096864799998,,,,,,,,,,,,,,807.133467599997,,,,,,,,,,807.1302174999946,807.133467599997,807.133467599997,807.133467599997,810.1129636999976,indoor,j,2.6779987000045367,0.11232939999899827,810.1130674999949,810.1131084000008,None,,,,,,,,,,,,,,00038,001,2026-01-17_11h13.54.018,MST_task,2024.2.0,59.91988710953598,2026-01-17 11h14.23.830556 +0530,
,Objects\070a.jpg,159,0,160,,,,,,,j,2.6237289999990026,0.12041529999987688,None,,,,,,160,0,159,810.1294078999999,,,,,,,,,,,,,,,,,,,,,,,810.113294499999,810.1294078999999,810.6139057999972,,,,,,,,,,,,,,810.6664803999956,,,,,,,,,,810.6635416999998,810.6664803999956,810.6664803999956,810.6664803999956,813.6294185000006,indoor,j,2.6237289999990026,0.12041529999987688,813.6295515999955,813.6296023999967,None,,,,,,,,,,,,,,00038,001,2026-01-17_11h13.54.018,MST_task,2024.2.0,59.91988710953598,2026-01-17 11h14.23.830556 +0530,
,Objects\064a.jpg,160,0,161,,,,,,,j,2.8453537999957916,None,None,,,,,,161,0,160,813.6462883999993,,,,,,,,,,,,,,,,,,,,,,,813.6298383999965,813.6462883999993,814.1304805999971,,,,,,,,,,,,,,814.2140173999942,,,,,,,,,,814.2108139999982,814.2140173999942,814.2140173999942,814.2140173999942,817.1462572999953,indoor,j,2.8453537999957916,None,817.1463799999983,817.1464227999968,None,,,,,,,,,,,,,,00038,001,2026-01-17_11h13.54.018,MST_task,2024.2.0,59.91988710953598,2026-01-17 11h14.23.830556 +0530,
,Objects\306a.jpg,161,0,162,,,,,,,None,,,f,0.7560410999940359,None,,,,162,0,161,817.1627410000001,,,,,,,,,,,,,,,,,,,,,,,817.1466145999948,817.1627410000001,817.6469909000007,,,,,,,,,,,,,,817.7005123999988,,,,,,,,,,817.6970969999966,817.7005123999988,817.7005123999988,817.7005123999988,820.6628538000004,shoe,None,,,820.6673824999962,821.4477426999947,f,820.6792862999937,820.6792862999937,0.7560410999940359,None,,,,,,,,,,00038,001,2026-01-17_11h13.54.018,MST_task,2024.2.0,59.91988710953598,2026-01-17 11h14.23.830556 +0530,
,Objects\095a.jpg,162,0,163,,,,,,,f,1.582506500002637,0.14370380000036675,None,,,,,,163,0,162,821.4625252999977,,,,,,,,,,,,,,,,,,,,,,,821.4480810999958,821.4625252999977,821.9474712999945,,,,,,,,,,,,,,821.9889822999976,,,,,,,,,,821.986075599998,821.9889822999976,821.9889822999976,821.9889822999976,824.9629763999983,shoe,f,1.582506500002637,0.14370380000036675,824.9631472999972,824.9631997999968,None,,,,,,,,,,,,,,00038,001,2026-01-17_11h13.54.018,MST_task,2024.2.0,59.91988710953598,2026-01-17 11h14.23.830556 +0530,
,Objects\298a.jpg,163,0,164,,,,,,,None,,,f,0.3790216999987024,None,,,,164,0,163,824.979488099998,,,,,,,,,,,,,,,,,,,,,,,824.9635440999991,824.979488099998,825.463858199997,,,,,,,,,,,,,,825.5113404999938,,,,,,,,,,825.5085870999974,825.5113404999938,825.5113404999938,825.5113404999938,828.4805763999975,shoe,None,,,828.4807259999943,828.8809540999937,f,828.4958364999984,828.4958364999984,0.3790216999987024,None,,,,,,,,,,00038,001,2026-01-17_11h13.54.018,MST_task,2024.2.0,59.91988710953598,2026-01-17 11h14.23.830556 +0530,
,Objects\076a.jpg,164,0,165,,,,,,,f,1.9248283999986597,0.13611289999971632,None,,,,,,165,0,164,828.8960664999977,,,,,,,,,,,,,,,,,,,,,,,828.8811648999981,828.8960664999977,829.3801858999941,,,,,,,,,,,,,,829.4217346000005,,,,,,,,,,829.4187684999997,829.4217346000005,829.4217346000005,829.4217346000005,832.3962561999942,shoe,f,1.9248283999986597,0.13611289999971632,832.3964424000005,832.3964816999942,None,,,,,,,,,,,,,,00038,001,2026-01-17_11h13.54.018,MST_task,2024.2.0,59.91988710953598,2026-01-17 11h14.23.830556 +0530,
,Objects\063a.jpg,165,0,166,,,,,,,f,1.4683655999979237,0.1361927999969339,None,,,,,,166,0,165,832.4124871999957,,,,,,,,,,,,,,,,,,,,,,,832.3967370999962,832.4124871999957,832.8970474999951,,,,,,,,,,,,,,832.9510722999985,,,,,,,,,,832.9464757999958,832.9510722999985,832.9510722999985,832.9510722999985,835.9129536999972,shoe,f,1.4683655999979237,0.1361927999969339,835.9131191999986,835.9131637999963,None,,,,,,,,,,,,,,00038,001,2026-01-17_11h13.54.018,MST_task,2024.2.0,59.91988710953598,2026-01-17 11h14.23.830556 +0530,
,Objects\096a.jpg,166,0,167,,,,,,,f,2.4452232999974512,0.1456081000069389,None,,,,,,167,0,166,835.9291764000009,,,,,,,,,,,,,,,,,,,,,,,835.9134554999982,835.9291764000009,836.4135416999998,,,,,,,,,,,,,,836.4690497999982,,,,,,,,,,836.4660750999974,836.4690497999982,836.4690497999982,836.4690497999982,839.4297355999952,shoe,f,2.4452232999974512,0.1456081000069389,839.4298942999958,839.4299503000002,None,,,,,,,,,,,,,,00038,001,2026-01-17_11h13.54.018,MST_task,2024.2.0,59.91988710953598,2026-01-17 11h14.23.830556 +0530,
,Objects\272a.jpg,167,0,168,,,,,,,f,2.6326572999969358,0.14343880000524223,None,,,,,,168,0,167,839.445884599998,,,,,,,,,,,,,,,,,,,,,,,839.4302018999952,839.445884599998,839.9302495999946,,,,,,,,,,,,,,840.0261093000008,,,,,,,,,,840.0229748999991,840.0261093000008,840.0261093000008,840.0261093000008,842.9462570999967,shoe,f,2.6326572999969358,0.14343880000524223,842.9464306000009,842.946498499994,None,,,,,,,,,,,,,,00038,001,2026-01-17_11h13.54.018,MST_task,2024.2.0,59.91988710953598,2026-01-17 11h14.23.830556 +0530,
,Objects\005a.jpg,168,0,169,,,,,,,j,2.565741899998102,0.12849460000143154,None,,,,,,169,0,168,842.9623452999949,,,,,,,,,,,,,,,,,,,,,,,842.9469171999954,842.9623452999949,843.4465726999988,,,,,,,,,,,,,,843.5171253000008,,,,,,,,,,843.5141373000006,843.5171253000008,843.5171253000008,843.5171253000008,846.4629254999963,indoor,j,2.565741899998102,0.12849460000143154,846.4679646000004,846.4679840999961,None,,,,,,,,,,,,,,00038,001,2026-01-17_11h13.54.018,MST_task,2024.2.0,59.91988710953598,2026-01-17 11h14.23.830556 +0530,
,Objects\255a.jpg,169,0,170,,,,,,,None,,,j,2.055289299998549,None,,,,170,0,169,846.4791981999952,,,,,,,,,,,,,,,,,,,,,,,846.468063399996,846.4791981999952,846.9639768999987,,,,,,,,,,,,,,847.0433775999991,,,,,,,,,,847.0396028999967,847.0433775999991,847.0433775999991,847.0433775999991,849.9794534999965,indoor,None,,,849.9795905999999,852.0645770999981,j,849.9958277999976,849.9958277999976,2.055289299998549,None,,,,,,,,,,00038,001,2026-01-17_11h13.54.018,MST_task,2024.2.0,59.91988710953598,2026-01-17 11h14.23.830556 +0530,
,Objects\215a.jpg,170,0,171,,,,,,,j,2.586068400007207,0.11958569999842439,None,,,,,,171,0,170,852.0795065999991,,,,,,,,,,,,,,,,,,,,,,,852.0648532999985,852.0795065999991,852.5636121999996,,,,,,,,,,,,,,852.6013144999961,,,,,,,,,,852.598041899997,852.6013144999961,852.6013144999961,852.6013144999961,855.5795597999968,indoor,j,2.586068400007207,0.11958569999842439,855.5797579999999,855.5798284999983,None,,,,,,,,,,,,,,00038,001,2026-01-17_11h13.54.018,MST_task,2024.2.0,59.91988710953598,2026-01-17 11h14.23.830556 +0530,
,Objects\049a.jpg,171,0,172,,,,,,,None,,,j,0.3537538000018685,None,,,,172,0,171,855.5958304999949,,,,,,,,,,,,,,,,,,,,,,,855.5800845999984,855.5958304999949,856.0801705999984,,,,,,,,,,,,,,856.113592499998,,,,,,,,,,856.1100805999959,856.113592499998,856.113592499998,856.113592499998,859.0963130999953,indoor,None,,,859.0964461999974,859.4814407999947,j,859.1124662999937,859.1124662999937,0.3537538000018685,None,,,,,,,,,,00038,001,2026-01-17_11h13.54.018,MST_task,2024.2.0,59.91988710953598,2026-01-17 11h14.23.830556 +0530,
,Objects\256a.jpg,172,0,173,,,,,,,j,1.716045099994517,0.09562459999870043,None,,,,,,173,0,172,859.495952199999,,,,,,,,,,,,,,,,,,,,,,,859.4817442999993,859.495952199999,859.9800123999958,,,,,,,,,,,,,,860.022561699996,,,,,,,,,,860.0197184999997,860.022561699996,860.022561699996,860.022561699996,862.9965607999984,indoor,j,1.716045099994517,0.09562459999870043,862.9967456999948,862.996785299998,None,,,,,,,,,,,,,,00038,001,2026-01-17_11h13.54.018,MST_task,2024.2.0,59.91988710953598,2026-01-17 11h14.23.830556 +0530,
,Objects\190a.jpg,173,0,174,,,,,,,None,,,j,0.06524119999812683,None,,,,174,0,173,863.0128320000003,,,,,,,,,,,,,,,,,,,,,,,862.9969659999988,863.0128320000003,863.4969169999968,,,,,,,,,,,,,,863.5240205999944,,,,,,,,,,863.5213451999953,863.5240205999944,863.5240205999944,863.5240205999944,866.5127578999964,indoor,None,,,866.5128798000005,866.5972789999942,j,866.5293231999967,866.5293231999967,0.06524119999812683,None,,,,,,,,,,00038,001,2026-01-17_11h13.54.018,MST_task,2024.2.0,59.91988710953598,2026-01-17 11h14.23.830556 +0530,
,Objects\179a.jpg,174,0,175,,,,,,,f,1.8587763999967137,0.1588043000010657,None,,,,,,175,0,174,866.6126959999965,,,,,,,,,,,,,,,,,,,,,,,866.5975230999975,866.6126959999965,867.0970324999944,,,,,,,,,,,,,,867.1448611999949,,,,,,,,,,867.1417583000002,867.1448611999949,867.1448611999949,867.1448611999949,870.1130071000007,indoor,f,1.8587763999967137,0.1588043000010657,870.1132129999969,870.1132829999988,None,,,,,,,,,,,,,,00038,001,2026-01-17_11h13.54.018,MST_task,2024.2.0,59.91988710953598,2026-01-17 11h14.23.830556 +0530,
,Objects\023a.jpg,175,0,176,,,,,,,None,,,f,0.32495470000139903,None,,,,176,0,175,870.1291548000008,,,,,,,,,,,,,,,,,,,,,,,870.113555099997,870.1291548000008,870.6138398999974,,,,,,,,,,,,,,870.6898175999959,,,,,,,,,,870.6870041999937,870.6898175999959,870.6898175999959,870.6898175999959,873.6296460999947,shoe,None,,,873.6343087999994,873.9808972999963,f,873.6460206999982,873.6460206999982,0.32495470000139903,None,,,,,,,,,,00038,001,2026-01-17_11h13.54.018,MST_task,2024.2.0,59.91988710953598,2026-01-17 11h14.23.830556 +0530,
