thisN,thisTrialN,thisRepN,key_resp_3.keys,key_resp_3.rt,key_resp_3.duration,trials.thisRepN,trials.thisTrialN,trials.thisN,thisRow.t,notes,intro_page.started,text.started,key_resp.started,intro_page.stopped,key_resp.keys,key_resp.rt,key_resp.duration,instructions.started,text_2.started,key_resp_2.started,instructions.stopped,key_resp_2.keys,key_resp_2.rt,key_resp_2.duration,demo1.started,image_1.started,image_2.started,text_7.started,key_resp_6.started,text_9.started,demo1.stopped,key_resp_6.keys,key_resp_6.rt,key_resp_6.duration,demo3.started,image_5.started,image_6.started,text_11.started,text_12.started,key_resp_8.started,demo3.stopped,key_resp_8.keys,key_resp_8.rt,key_resp_8.duration,demo_conclusion.started,text_13.started,key_resp_9.started,demo_conclusion.stopped,key_resp_9.keys,key_resp_9.rt,key_resp_9.duration,start_test.started,text_6.started,key_resp_5.started,start_test.stopped,key_resp_5.keys,key_resp_5.rt,key_resp_5.duration,ISI.started,text_4.started,ISI.stopped,routine_1.started,image.started,text_3.started,key_resp_3.started,routine_1.stopped,image_path,position_of_stimuli,trials.key_resp_3.keys,trials.key_resp_3.rt,trials.key_resp_3.duration,text_4.stopped,End_page.started,text_5.started,key_resp_4.started,End_page.stopped,key_resp_4.keys,key_resp_4.rt,key_resp_4.duration,participant,session,date,expName,psychopyVersion,frameRate,expStart,
,,,,,,,,,,,0.0026028999709524214,0.018967800016980618,0.018967800016980618,3.234526799991727,space,3.200358900008723,None,,,,,,,,,,,,,,,,,,,,,,,,,,,,,,,,,,,,,,,,,,,,,,,,,,,,,,,,,,,,,,,00039,001,2026-01-17_12h10.16.109,MST_test,2024.2.0,59.79080393623539,2026-01-17 12h10.33.354093 +0530,
,,,,,,,,,,,,,,,,,,3.2345598000101745,3.2650723999831825,3.2650723999831825,17.315451300004497,space,14.04210449999664,None,,,,,,,,,,,,,,,,,,,,,,,,,,,,,,,,,,,,,,,,,,,,,,,,,,,,,,,,00039,001,2026-01-17_12h10.16.109,MST_test,2024.2.0,59.79080393623539,2026-01-17 12h10.33.354093 +0530,
,,,,,,,,,,,,,,,,,,,,,,,,,17.3154813000001,17.331443800008856,17.331443800008856,17.331443800008856,17.331443800008856,17.331443800008856,22.851708600006532,space,5.518926599994302,None,,,,,,,,,,,,,,,,,,,,,,,,,,,,,,,,,,,,,,,,,,,,,,00039,001,2026-01-17_12h10.16.109,MST_test,2024.2.0,59.79080393623539,2026-01-17 12h10.33.354093 +0530,
,,,,,,,,,,,,,,,,,,,,,,,,,,,,,,,,,,,22.851735699980054,22.8674809000222,22.8674809000222,22.8674809000222,22.8674809000222,22.8674809000222,24.891735500015784,space,2.0230945000075735,None,,,,,,,,,,,,,,,,,,,,,,,,,,,,,,,,,,,,00039,001,2026-01-17_12h10.16.109,MST_test,2024.2.0,59.79080393623539,2026-01-17 12h10.33.354093 +0530,
,,,,,,,,,,,,,,,,,,,,,,,,,,,,,,,,,,,,,,,,,,,,,24.891766500019003,24.907975399983115,24.907975399983115,40.24560460000066,space,15.327005799976178,None,,,,,,,,,,,,,,,,,,,,,,,,,,,,,00039,001,2026-01-17_12h10.16.109,MST_test,2024.2.0,59.79080393623539,2026-01-17 12h10.33.354093 +0530,
,,,,,,,,,,,,,,,,,,,,,,,,,,,,,,,,,,,,,,,,,,,,,,,,,,,,40.24564259999897,40.27846800000407,40.27846800000407,95.65628769999603,space,55.36504900001455,None,,,,,,,,,,,,,,,,,,,,,,00039,001,2026-01-17_12h10.16.109,MST_test,2024.2.0,59.79080393623539,2026-01-17 12h10.33.354093 +0530,
0,0,1,s,4.299608999979682,None,1,0,0,95.67257340002107,,,,,,,,,,,,,,,,,,,,,,,,,,,,,,,,,,,,,,,,,,,,,,,,,,95.65975499997148,95.67257340002107,96.15747310000006,96.17831529997056,96.19094840000616,96.19094840000616,96.19094840000616,100.50651629996719,Objects\350b.jpg,post,s,4.299608999979682,None,,,,,,,,,00039,001,2026-01-17_12h10.16.109,MST_test,2024.2.0,59.79080393623539,2026-01-17 12h10.33.354093 +0530,
1,0,2,o,8.001290799991693,None,2,0,1,100.52266740001505,,,,,,,,,,,,,,,,,,,,,,,,,,,,,,,,,,,,,,,,,,,,,,,,,,100.50660959997913,100.52266740001505,101.00788140000077,101.0254552999977,101.04190599999856,101.04190599999856,101.04190599999856,109.05327969999053,Objects\355b.jpg,mid,o,8.001290799991693,None,,,,,,,,,00039,001,2026-01-17_12h10.16.109,MST_test,2024.2.0,59.79080393623539,2026-01-17 12h10.33.354093 +0530,
2,0,3,s,4.662715399987064,None,3,0,2,109.06937179999659,,,,,,,,,,,,,,,,,,,,,,,,,,,,,,,,,,,,,,,,,,,,,,,,,,109.05337330000475,109.06937179999659,109.55439130001469,109.56450470001437,109.58787129999837,109.58787129999837,109.58787129999837,114.25482219998958,Objects\148b.jpg,post,s,4.662715399987064,None,,,,,,,,,00039,001,2026-01-17_12h10.16.109,MST_test,2024.2.0,59.79080393623539,2026-01-17 12h10.33.354093 +0530,
3,0,4,s,2.4773201000061817,None,4,0,3,114.27093739999691,,,,,,,,,,,,,,,,,,,,,,,,,,,,,,,,,,,,,,,,,,,,,,,,,,114.25491349998629,114.27093739999691,114.75606049998896,114.76582159998361,114.78941700002179,114.78941700002179,114.78941700002179,117.2820742999902,Objects\121b.jpg,post,s,2.4773201000061817,None,,,,,,,,,00039,001,2026-01-17_12h10.16.109,MST_test,2024.2.0,59.79080393623539,2026-01-17 12h10.33.354093 +0530,
4,0,5,n,2.737312499957625,None,5,0,4,117.29819870000938,,,,,,,,,,,,,,,,,,,,,,,,,,,,,,,,,,,,,,,,,,,,,,,,,,117.28216740000062,117.29819870000938,117.78316449996782,117.79236520000268,117.81688210001448,117.81688210001448,117.81688210001448,120.5601054999861,Foils\093b.jpg,none,n,2.737312499957625,None,,,,,,,,,00039,001,2026-01-17_12h10.16.109,MST_test,2024.2.0,59.79080393623539,2026-01-17 12h10.33.354093 +0530,
5,0,6,o,2.2350769999902695,None,6,0,5,120.57633640000131,,,,,,,,,,,,,,,,,,,,,,,,,,,,,,,,,,,,,,,,,,,,,,,,,,120.56019569997443,120.57633640000131,121.06131429999368,121.07021610002266,121.09570609999355,121.09570609999355,121.09570609999355,123.33651950000785,Objects\382a.jpg,pre,o,2.2350769999902695,None,,,,,,,,,00039,001,2026-01-17_12h10.16.109,MST_test,2024.2.0,59.79080393623539,2026-01-17 12h10.33.354093 +0530,
6,0,7,s,2.6909521999768913,None,7,0,6,123.35263139999006,,,,,,,,,,,,,,,,,,,,,,,,,,,,,,,,,,,,,,,,,,,,,,,,,,123.33660859998781,123.35263139999006,123.83780779998051,123.85678329999791,123.871675900009,123.871675900009,123.871675900009,126.56455269997241,Objects\332b.jpg,pre,s,2.6909521999768913,None,,,,,,,,,00039,001,2026-01-17_12h10.16.109,MST_test,2024.2.0,59.79080393623539,2026-01-17 12h10.33.354093 +0530,
7,0,8,s,1.6231521000154316,None,8,0,7,126.58058979996713,,,,,,,,,,,,,,,,,,,,,,,,,,,,,,,,,,,,,,,,,,,,,,,,,,126.56464449997293,126.58058979996713,127.06581010000082,127.08190099999774,127.099246400001,127.099246400001,127.099246400001,128.73894820001442,Objects\133b.jpg,pre,s,1.6231521000154316,None,,,,,,,,,00039,001,2026-01-17_12h10.16.109,MST_test,2024.2.0,59.79080393623539,2026-01-17 12h10.33.354093 +0530,
8,0,9,n,3.001299499999732,None,9,0,8,128.75499659997877,,,,,,,,,,,,,,,,,,,,,,,,,,,,,,,,,,,,,,,,,,,,,,,,,,128.73904229997424,128.75499659997877,129.2399798000115,129.2547765999916,129.27345959999366,129.27345959999366,129.27345959999366,132.28481380001176,Foils\f5.jpg,none,n,3.001299499999732,None,,,,,,,,,00039,001,2026-01-17_12h10.16.109,MST_test,2024.2.0,59.79080393623539,2026-01-17 12h10.33.354093 +0530,
9,0,10,s,2.5268599999835715,None,10,0,9,132.30068509996636,,,,,,,,,,,,,,,,,,,,,,,,,,,,,,,,,,,,,,,,,,,,,,,,,,132.2849045000039,132.30068509996636,132.78580939996755,132.80171819997486,132.81909140001517,132.81909140001517,132.81909140001517,135.36215150001226,Objects\364b.jpg,pre,s,2.5268599999835715,None,,,,,,,,,00039,001,2026-01-17_12h10.16.109,MST_test,2024.2.0,59.79080393623539,2026-01-17 12h10.33.354093 +0530,
10,0,11,n,3.370196199975908,None,11,0,10,135.3781861999887,,,,,,,,,,,,,,,,,,,,,,,,,,,,,,,,,,,,,,,,,,,,,,,,,,135.36224809999112,135.3781861999887,135.86314839997794,135.87948870001128,135.89670520002255,135.89670520002255,135.89670520002255,139.2758532000007,Foils\065a.jpg,none,n,3.370196199975908,None,,,,,,,,,00039,001,2026-01-17_12h10.16.109,MST_test,2024.2.0,59.79080393623539,2026-01-17 12h10.33.354093 +0530,
11,0,12,n,1.8167280000052415,None,12,0,11,139.29187700001057,,,,,,,,,,,,,,,,,,,,,,,,,,,,,,,,,,,,,,,,,,,,,,,,,,139.2759456000058,139.29187700001057,139.77686480002012,139.78647619998083,139.81036960001802,139.81036960001802,139.81036960001802,141.63413319998654,Foils\049a.jpg,none,n,1.8167280000052415,None,,,,,,,,,00039,001,2026-01-17_12h10.16.109,MST_test,2024.2.0,59.79080393623539,2026-01-17 12h10.33.354093 +0530,
12,0,13,s,1.3472715000389144,None,13,0,12,141.65016750001814,,,,,,,,,,,,,,,,,,,,,,,,,,,,,,,,,,,,,,,,,,,,,,,,,,141.63422579999315,141.65016750001814,142.1351500999881,142.14493080001557,142.16861509997398,142.16861509997398,142.16861509997398,143.5240587000153,Foils\086a.jpg,none,s,1.3472715000389144,None,,,,,,,,,00039,001,2026-01-17_12h10.16.109,MST_test,2024.2.0,59.79080393623539,2026-01-17 12h10.33.354093 +0530,
13,0,14,s,2.8952385999727994,None,14,0,13,143.5400921999826,,,,,,,,,,,,,,,,,,,,,,,,,,,,,,,,,,,,,,,,,,,,,,,,,,143.52415409998503,143.5400921999826,144.02522070001578,144.03438570001163,144.05963989999145,144.05963989999145,144.05963989999145,146.969449599972,Objects\101b.jpg,post,s,2.8952385999727994,None,,,,,,,,,00039,001,2026-01-17_12h10.16.109,MST_test,2024.2.0,59.79080393623539,2026-01-17 12h10.33.354093 +0530,
14,0,15,o,1.7143700000015087,None,15,0,14,146.98554199998034,,,,,,,,,,,,,,,,,,,,,,,,,,,,,,,,,,,,,,,,,,,,,,,,,,146.96954419999383,146.98554199998034,147.47058710001875,147.4839639000129,147.50388819997897,147.50388819997897,147.50388819997897,149.22728829999687,Objects\251b.jpg,mid,o,1.7143700000015087,None,,,,,,,,,00039,001,2026-01-17_12h10.16.109,MST_test,2024.2.0,59.79080393623539,2026-01-17 12h10.33.354093 +0530,
15,0,16,o,3.0963360000168905,None,16,0,15,149.24381710001035,,,,,,,,,,,,,,,,,,,,,,,,,,,,,,,,,,,,,,,,,,,,,,,,,,149.2273899000138,149.24381710001035,149.72865970002022,149.74374279996846,149.76210689998697,149.76210689998697,149.76210689998697,152.87321519997204,Objects\093b.jpg,post,o,3.0963360000168905,None,,,,,,,,,00039,001,2026-01-17_12h10.16.109,MST_test,2024.2.0,59.79080393623539,2026-01-17 12h10.33.354093 +0530,
16,0,17,s,3.802432199998293,None,17,0,16,152.88968550000573,,,,,,,,,,,,,,,,,,,,,,,,,,,,,,,,,,,,,,,,,,,,,,,,,,152.8733086999855,152.88968550000573,153.3746452999767,153.38578969996888,153.40849479997996,153.40849479997996,153.40849479997996,157.22191600000951,Objects\052b.jpg,post,s,3.802432199998293,None,,,,,,,,,00039,001,2026-01-17_12h10.16.109,MST_test,2024.2.0,59.79080393623539,2026-01-17 12h10.33.354093 +0530,
17,0,18,s,1.7183895999914967,None,18,0,17,157.2380621000193,,,,,,,,,,,,,,,,,,,,,,,,,,,,,,,,,,,,,,,,,,,,,,,,,,157.2220140999998,157.2380621000193,157.72318759997142,157.73846109997248,157.75672060000943,157.75672060000943,157.75672060000943,159.47969760000706,Objects\268b.jpg,post,s,1.7183895999914967,None,,,,,,,,,00039,001,2026-01-17_12h10.16.109,MST_test,2024.2.0,59.79080393623539,2026-01-17 12h10.33.354093 +0530,
18,0,19,s,1.4914518999867141,None,19,0,18,159.49612590001198,,,,,,,,,,,,,,,,,,,,,,,,,,,,,,,,,,,,,,,,,,,,,,,,,,159.47978990001138,159.49612590001198,159.98110450000968,159.99819429998752,160.01461660000496,160.01461660000496,160.01461660000496,161.5206024000072,Objects\053b.jpg,mid,s,1.4914518999867141,None,,,,,,,,,00039,001,2026-01-17_12h10.16.109,MST_test,2024.2.0,59.79080393623539,2026-01-17 12h10.33.354093 +0530,
19,0,20,o,2.0276219000224955,None,20,0,19,161.5368679999956,,,,,,,,,,,,,,,,,,,,,,,,,,,,,,,,,,,,,,,,,,,,,,,,,,161.5206942000077,161.5368679999956,162.02152429998387,162.029504599981,162.05532280000625,162.05532280000625,162.05532280000625,164.09613489999902,Objects\336a.jpg,mid,o,2.0276219000224955,None,,,,,,,,,00039,001,2026-01-17_12h10.16.109,MST_test,2024.2.0,59.79080393623539,2026-01-17 12h10.33.354093 +0530,
20,0,21,o,1.3324271999881603,None,21,0,20,164.1122215000214,,,,,,,,,,,,,,,,,,,,,,,,,,,,,,,,,,,,,,,,,,,,,,,,,,164.09623149997788,164.1122215000214,164.59738439996727,164.60492269997485,164.63065740000457,164.63065740000457,164.63065740000457,165.96889519999968,Objects\256a.jpg,post,o,1.3324271999881603,None,,,,,,,,,00039,001,2026-01-17_12h10.16.109,MST_test,2024.2.0,59.79080393623539,2026-01-17 12h10.33.354093 +0530,
21,0,22,s,3.291569299995899,None,22,0,21,165.9853765000007,,,,,,,,,,,,,,,,,,,,,,,,,,,,,,,,,,,,,,,,,,,,,,,,,,165.96898940001847,165.9853765000007,166.47088430001168,166.47754960000748,166.48655339999823,166.48655339999823,166.48655339999823,169.7827796000056,Objects\338a.jpg,mid,s,3.291569299995899,None,,,,,,,,,00039,001,2026-01-17_12h10.16.109,MST_test,2024.2.0,59.79080393623539,2026-01-17 12h10.33.354093 +0530,
22,0,23,o,1.1096951000508852,None,23,0,22,169.7988368999795,,,,,,,,,,,,,,,,,,,,,,,,,,,,,,,,,,,,,,,,,,,,,,,,,,169.7828725000145,169.7988368999795,170.28381669998635,170.29132000001846,170.30044069996802,170.30044069996802,170.30044069996802,171.4215282999794,Objects\198a.jpg,mid,o,1.1096951000508852,None,,,,,,,,,00039,001,2026-01-17_12h10.16.109,MST_test,2024.2.0,59.79080393623539,2026-01-17 12h10.33.354093 +0530,
23,0,24,o,2.047917400021106,None,24,0,23,171.43780519999564,,,,,,,,,,,,,,,,,,,,,,,,,,,,,,,,,,,,,,,,,,,,,,,,,,171.42162129998906,171.43780519999564,171.92301169998245,171.93057729996508,171.93896739999764,171.93896739999764,171.93896739999764,173.99728890002007,Objects\322a.jpg,post,o,2.047917400021106,None,,,,,,,,,00039,001,2026-01-17_12h10.16.109,MST_test,2024.2.0,59.79080393623539,2026-01-17 12h10.33.354093 +0530,
24,0,25,o,1.8385178999742493,None,25,0,24,174.0134762999951,,,,,,,,,,,,,,,,,,,,,,,,,,,,,,,,,,,,,,,,,,,,,,,,,,173.99741730000824,174.0134762999951,174.49856989999535,174.51347930001793,174.53183350001927,174.53183350001927,174.53183350001927,176.37250349996611,Objects\371b.jpg,post,o,1.8385178999742493,None,,,,,,,,,00039,001,2026-01-17_12h10.16.109,MST_test,2024.2.0,59.79080393623539,2026-01-17 12h10.33.354093 +0530,
25,0,26,o,1.0326999999815598,None,26,0,25,176.38860000000568,,,,,,,,,,,,,,,,,,,,,,,,,,,,,,,,,,,,,,,,,,,,,,,,,,176.37259609997272,176.38860000000568,176.8734517999692,176.8801523000002,176.89029890001984,176.89029890001984,176.89029890001984,177.92780040000798,Objects\262a.jpg,pre,o,1.0326999999815598,None,,,,,,,,,00039,001,2026-01-17_12h10.16.109,MST_test,2024.2.0,59.79080393623539,2026-01-17 12h10.33.354093 +0530,
26,0,27,o,0.9103070999844931,None,27,0,26,177.94380910001928,,,,,,,,,,,,,,,,,,,,,,,,,,,,,,,,,,,,,,,,,,,,,,,,,,177.92791059997398,177.94380910001928,178.42983739997726,178.43659870000556,178.44480890000705,178.44480890000705,178.44480890000705,179.36597139999503,Objects\321a.jpg,mid,o,0.9103070999844931,None,,,,,,,,,00039,001,2026-01-17_12h10.16.109,MST_test,2024.2.0,59.79080393623539,2026-01-17 12h10.33.354093 +0530,
27,0,28,o,2.405961100012064,None,28,0,27,179.38215929997386,,,,,,,,,,,,,,,,,,,,,,,,,,,,,,,,,,,,,,,,,,,,,,,,,,179.36606600001687,179.38215929997386,179.86755159997847,179.87578130001202,179.90065339999273,179.90065339999273,179.90065339999273,182.31014889996732,Objects\153a.jpg,pre,o,2.405961100012064,None,,,,,,,,,00039,001,2026-01-17_12h10.16.109,MST_test,2024.2.0,59.79080393623539,2026-01-17 12h10.33.354093 +0530,
28,0,29,o,1.0708270000177436,None,29,0,28,182.3260429999791,,,,,,,,,,,,,,,,,,,,,,,,,,,,,,,,,,,,,,,,,,,,,,,,,,182.31024229998002,182.3260429999791,182.81099640001776,182.81447959999787,182.82778180000605,182.82778180000605,182.82778180000605,183.9153856000048,Objects\366a.jpg,pre,o,1.0708270000177436,None,,,,,,,,,00039,001,2026-01-17_12h10.16.109,MST_test,2024.2.0,59.79080393623539,2026-01-17 12h10.33.354093 +0530,
29,0,30,o,1.2575693999533542,None,30,0,29,183.93171169998823,,,,,,,,,,,,,,,,,,,,,,,,,,,,,,,,,,,,,,,,,,,,,,,,,,183.91548429999966,183.93171169998823,184.41654249996645,184.41916099999798,184.43346019997261,184.43346019997261,184.43346019997261,185.7049031999777,Objects\313a.jpg,pre,o,1.2575693999533542,None,,,,,,,,,00039,001,2026-01-17_12h10.16.109,MST_test,2024.2.0,59.79080393623539,2026-01-17 12h10.33.354093 +0530,
30,0,31,s,1.299524999980349,None,31,0,30,185.72101709997514,,,,,,,,,,,,,,,,,,,,,,,,,,,,,,,,,,,,,,,,,,,,,,,,,,185.7050008000224,185.72101709997514,186.20639150001807,186.21633289998863,186.2395075999666,186.2395075999666,186.2395075999666,187.5447531999671,Objects\081b.jpg,pre,s,1.299524999980349,None,,,,,,,,,00039,001,2026-01-17_12h10.16.109,MST_test,2024.2.0,59.79080393623539,2026-01-17 12h10.33.354093 +0530,
31,0,32,o,1.3165057000005618,None,32,0,31,187.5609206999652,,,,,,,,,,,,,,,,,,,,,,,,,,,,,,,,,,,,,,,,,,,,,,,,,,187.5448480999912,187.5609206999652,188.04587979998905,188.0495416999911,188.0626847000094,188.0626847000094,188.0626847000094,189.38480850000633,Objects\090a.jpg,mid,o,1.3165057000005618,None,,,,,,,,,00039,001,2026-01-17_12h10.16.109,MST_test,2024.2.0,59.79080393623539,2026-01-17 12h10.33.354093 +0530,
32,0,33,o,1.6121184000512585,None,33,0,32,189.40070970001398,,,,,,,,,,,,,,,,,,,,,,,,,,,,,,,,,,,,,,,,,,,,,,,,,,189.38489960000152,189.40070970001398,189.88572179997573,189.88820689998101,189.90249519998906,189.90249519998906,189.90249519998906,191.52525569999125,Objects\080a.jpg,mid,o,1.6121184000512585,None,,,,,,,,,00039,001,2026-01-17_12h10.16.109,MST_test,2024.2.0,59.79080393623539,2026-01-17 12h10.33.354093 +0530,
33,0,34,s,1.2621154999942519,None,34,0,33,191.54172939999262,,,,,,,,,,,,,,,,,,,,,,,,,,,,,,,,,,,,,,,,,,,,,,,,,,191.52535040001385,191.54172939999262,192.02649129997008,192.03634009999223,192.06000789999962,192.06000789999962,192.06000789999962,193.3318663999671,Objects\076b.jpg,post,s,1.2621154999942519,None,,,,,,,,,00039,001,2026-01-17_12h10.16.109,MST_test,2024.2.0,59.79080393623539,2026-01-17 12h10.33.354093 +0530,
34,0,35,s,4.361444599984679,None,35,0,34,193.34799889998976,,,,,,,,,,,,,,,,,,,,,,,,,,,,,,,,,,,,,,,,,,,,,,,,,,193.33196169999428,193.34799889998976,193.83308379998198,193.84051170002203,193.84945410001092,193.84945410001092,193.84945410001092,198.2155598999816,Objects\340a.jpg,mid,s,4.361444599984679,None,,,,,,,,,00039,001,2026-01-17_12h10.16.109,MST_test,2024.2.0,59.79080393623539,2026-01-17 12h10.33.354093 +0530,
35,0,36,o,0.9010591999976896,None,36,0,35,198.23148949997267,,,,,,,,,,,,,,,,,,,,,,,,,,,,,,,,,,,,,,,,,,,,,,,,,,198.21565259998897,198.23148949997267,198.71683779999148,198.72446160000982,198.7329977999907,198.7329977999907,198.7329977999907,199.637201000005,Objects\042a.jpg,mid,o,0.9010591999976896,None,,,,,,,,,00039,001,2026-01-17_12h10.16.109,MST_test,2024.2.0,59.79080393623539,2026-01-17 12h10.33.354093 +0530,
36,0,37,s,2.7904708000132814,None,37,0,36,199.65326649998315,,,,,,,,,,,,,,,,,,,,,,,,,,,,,,,,,,,,,,,,,,,,,,,,,,199.63729119999334,199.65326649998315,200.13839819998248,200.14791469997726,200.17192739999155,200.17192739999155,200.17192739999155,202.96569899999304,Objects\119b.jpg,mid,s,2.7904708000132814,None,,,,,,,,,00039,001,2026-01-17_12h10.16.109,MST_test,2024.2.0,59.79080393623539,2026-01-17 12h10.33.354093 +0530,
37,0,38,n,1.5744129000231624,None,38,0,37,202.9815998999984,,,,,,,,,,,,,,,,,,,,,,,,,,,,,,,,,,,,,,,,,,,,,,,,,,202.96579320001183,202.9815998999984,203.46654300001683,203.4767800999689,203.50060610001674,203.50060610001674,203.50060610001674,205.08969409996644,Foils\105a.jpg,none,n,1.5744129000231624,None,,,,,,,,,00039,001,2026-01-17_12h10.16.109,MST_test,2024.2.0,59.79080393623539,2026-01-17 12h10.33.354093 +0530,
38,0,39,s,2.3151310000102967,None,39,0,38,205.10581019998062,,,,,,,,,,,,,,,,,,,,,,,,,,,,,,,,,,,,,,,,,,,,,,,,,,205.08978560002288,205.10581019998062,205.59076419996563,205.6003866000101,205.62421420001192,205.62421420001192,205.62421420001192,207.94948640000075,Objects\178b.jpg,pre,s,2.3151310000102967,None,,,,,,,,,00039,001,2026-01-17_12h10.16.109,MST_test,2024.2.0,59.79080393623539,2026-01-17 12h10.33.354093 +0530,
39,0,40,n,1.4790236999979243,None,40,0,39,207.96559239999624,,,,,,,,,,,,,,,,,,,,,,,,,,,,,,,,,,,,,,,,,,,,,,,,,,207.94957850000355,207.96559239999624,208.4509213999845,208.46028399997158,208.48407649999717,208.48407649999717,208.48407649999717,209.9733185999794,Foils\009a.jpg,none,n,1.4790236999979243,None,,,,,,,,,00039,001,2026-01-17_12h10.16.109,MST_test,2024.2.0,59.79080393623539,2026-01-17 12h10.33.354093 +0530,
40,0,41,n,1.2305181000265293,None,41,0,40,209.98935190000338,,,,,,,,,,,,,,,,,,,,,,,,,,,,,,,,,,,,,,,,,,,,,,,,,,209.9734098999761,209.98935190000338,210.47456240002066,210.48658879997674,210.50807340000756,210.50807340000756,210.50807340000756,211.7459242999903,Foils\f7.jpg,none,n,1.2305181000265293,None,,,,,,,,,00039,001,2026-01-17_12h10.16.109,MST_test,2024.2.0,59.79080393623539,2026-01-17 12h10.33.354093 +0530,
41,0,42,s,1.3054348999867216,None,42,0,41,211.76234830002068,,,,,,,,,,,,,,,,,,,,,,,,,,,,,,,,,,,,,,,,,,,,,,,,,,211.746032199997,211.76234830002068,212.24738189997151,212.2621145999874,212.28097510000225,212.28097510000225,212.28097510000225,213.60277779999888,Objects\009b.jpg,mid,s,1.3054348999867216,None,,,,,,,,,00039,001,2026-01-17_12h10.16.109,MST_test,2024.2.0,59.79080393623539,2026-01-17 12h10.33.354093 +0530,
42,0,43,s,1.2818655999726616,None,43,0,42,213.61896659998456,,,,,,,,,,,,,,,,,,,,,,,,,,,,,,,,,,,,,,,,,,,,,,,,,,213.60287210001843,213.61896659998456,214.10395939997397,214.11549029999878,214.13731489999918,214.13731489999918,214.13731489999918,215.42572659999132,Objects\071b.jpg,pre,s,1.2818655999726616,None,,,,,,,,,00039,001,2026-01-17_12h10.16.109,MST_test,2024.2.0,59.79080393623539,2026-01-17 12h10.33.354093 +0530,
43,0,44,s,0.8828031999873929,None,44,0,43,215.44203410000773,,,,,,,,,,,,,,,,,,,,,,,,,,,,,,,,,,,,,,,,,,,,,,,,,,215.42582930001663,215.44203410000773,215.92686289997073,215.92958389996784,215.943721299991,215.943721299991,215.943721299991,216.83051170001272,Objects\086a.jpg,post,s,0.8828031999873929,None,,,,,,,,,00039,001,2026-01-17_12h10.16.109,MST_test,2024.2.0,59.79080393623539,2026-01-17 12h10.33.354093 +0530,
44,0,45,n,1.9495452999835834,None,45,0,44,216.84681869996712,,,,,,,,,,,,,,,,,,,,,,,,,,,,,,,,,,,,,,,,,,,,,,,,,,216.83060709998244,216.84681869996712,217.3318098000018,217.34208540001418,217.36542829999235,217.36542829999235,217.36542829999235,219.3227205000003,Foils\097a.jpg,none,n,1.9495452999835834,None,,,,,,,,,00039,001,2026-01-17_12h10.16.109,MST_test,2024.2.0,59.79080393623539,2026-01-17 12h10.33.354093 +0530,
45,0,46,n,1.3225735999876633,None,46,0,45,219.33888250001473,,,,,,,,,,,,,,,,,,,,,,,,,,,,,,,,,,,,,,,,,,,,,,,,,,219.322817999986,219.33888250001473,219.82383750000736,219.8262489999761,219.84061569999903,219.84061569999903,219.84061569999903,221.1792395999655,Objects\157a.jpg,post,n,1.3225735999876633,None,,,,,,,,,00039,001,2026-01-17_12h10.16.109,MST_test,2024.2.0,59.79080393623539,2026-01-17 12h10.33.354093 +0530,
46,0,47,n,1.8575804000138305,None,47,0,46,221.19537009997293,,,,,,,,,,,,,,,,,,,,,,,,,,,,,,,,,,,,,,,,,,,,,,,,,,221.17933169996832,221.19537009997293,221.68046459998004,221.69008719996782,221.71375519997673,221.71375519997673,221.71375519997673,223.58769590000156,Foils\113a.jpg,none,n,1.8575804000138305,None,,,,,,,,,00039,001,2026-01-17_12h10.16.109,MST_test,2024.2.0,59.79080393623539,2026-01-17 12h10.33.354093 +0530,
47,0,48,o,1.4413177000242285,None,48,0,47,223.603828399966,,,,,,,,,,,,,,,,,,,,,,,,,,,,,,,,,,,,,,,,,,,,,,,,,,223.5877912999713,223.603828399966,224.08877849997953,224.09633719996782,224.1054765000008,224.1054765000008,224.1054765000008,225.56126629997743,Objects\250a.jpg,post,o,1.4413177000242285,None,,,,,,,,,00039,001,2026-01-17_12h10.16.109,MST_test,2024.2.0,59.79080393623539,2026-01-17 12h10.33.354093 +0530,
48,0,49,s,1.6034114999929443,None,49,0,48,225.5772807999747,,,,,,,,,,,,,,,,,,,,,,,,,,,,,,,,,,,,,,,,,,,,,,,,,,225.56136509997305,225.5772807999747,226.0624616999994,226.0764949999866,226.09579170000507,226.09579170000507,226.09579170000507,227.7022021000157,Objects\309b.jpg,mid,s,1.6034114999929443,None,,,,,,,,,00039,001,2026-01-17_12h10.16.109,MST_test,2024.2.0,59.79080393623539,2026-01-17 12h10.33.354093 +0530,
49,0,50,s,2.6298636000137776,None,50,0,49,227.71821640001144,,,,,,,,,,,,,,,,,,,,,,,,,,,,,,,,,,,,,,,,,,,,,,,,,,227.70232229999965,227.71821640001144,228.20319889998063,228.21941369998967,228.23669609997887,228.23669609997887,228.23669609997887,230.87993120000465,Objects\131b.jpg,pre,s,2.6298636000137776,None,,,,,,,,,00039,001,2026-01-17_12h10.16.109,MST_test,2024.2.0,59.79080393623539,2026-01-17 12h10.33.354093 +0530,
50,0,51,o,1.2534090000553988,None,51,0,50,230.8959012000123,,,,,,,,,,,,,,,,,,,,,,,,,,,,,,,,,,,,,,,,,,,,,,,,,,230.88002440001583,230.8959012000123,231.38112279999768,231.38747439999133,231.39762279996648,231.39762279996648,231.39762279996648,232.65262870001607,Objects\292a.jpg,pre,o,1.2534090000553988,None,,,,,,,,,00039,001,2026-01-17_12h10.16.109,MST_test,2024.2.0,59.79080393623539,2026-01-17 12h10.33.354093 +0530,
51,0,52,o,0.9755353000364266,None,52,0,51,232.66877240000758,,,,,,,,,,,,,,,,,,,,,,,,,,,,,,,,,,,,,,,,,,,,,,,,,,232.65272219997132,232.66877240000758,233.1539827999659,233.1623240999761,233.18725199997425,233.18725199997425,233.18725199997425,234.1747312999796,Objects\172a.jpg,mid,o,0.9755353000364266,None,,,,,,,,,00039,001,2026-01-17_12h10.16.109,MST_test,2024.2.0,59.79080393623539,2026-01-17 12h10.33.354093 +0530,
52,0,53,n,1.500741099996958,None,53,0,52,234.19078439997975,,,,,,,,,,,,,,,,,,,,,,,,,,,,,,,,,,,,,,,,,,,,,,,,,,234.17482359998394,234.19078439997975,234.67597729997942,234.6852601999999,234.70939219999127,234.70939219999127,234.70939219999127,236.2152708999929,Foils\101b.jpg,none,n,1.500741099996958,None,,,,,,,,,00039,001,2026-01-17_12h10.16.109,MST_test,2024.2.0,59.79080393623539,2026-01-17 12h10.33.354093 +0530,
53,0,54,o,3.8839412000379525,None,54,0,53,236.23136769997654,,,,,,,,,,,,,,,,,,,,,,,,,,,,,,,,,,,,,,,,,,,,,,,,,,236.21536400000332,236.23136769997654,236.71632359997602,236.72547720000148,236.75043870002264,236.75043870002264,236.75043870002264,240.64743640000233,Objects\165b.jpg,pre,o,3.8839412000379525,None,,,,,,,,,00039,001,2026-01-17_12h10.16.109,MST_test,2024.2.0,59.79080393623539,2026-01-17 12h10.33.354093 +0530,
54,0,55,n,2.8606482000323012,None,55,0,54,240.66352970001753,,,,,,,,,,,,,,,,,,,,,,,,,,,,,,,,,,,,,,,,,,,,,,,,,,240.6475304000196,240.66352970001753,241.14857829996618,241.15831739996793,241.1821598999668,241.1821598999668,241.1821598999668,244.05938890000107,Foils\073a.jpg,none,n,2.8606482000323012,None,,,,,,,,,00039,001,2026-01-17_12h10.16.109,MST_test,2024.2.0,59.79080393623539,2026-01-17 12h10.33.354093 +0530,
55,0,56,s,1.6897996999905445,None,56,0,55,244.07549690001179,,,,,,,,,,,,,,,,,,,,,,,,,,,,,,,,,,,,,,,,,,,,,,,,,,244.05948019999778,244.07549690001179,244.56058469996788,244.57465630001388,244.59399249998387,244.59399249998387,244.59399249998387,246.30019430001266,Objects\368b.jpg,mid,s,1.6897996999905445,None,,,,,,,,,00039,001,2026-01-17_12h10.16.109,MST_test,2024.2.0,59.79080393623539,2026-01-17 12h10.33.354093 +0530,
56,0,57,n,1.6243391000316478,None,57,0,56,246.3162632000167,,,,,,,,,,,,,,,,,,,,,,,,,,,,,,,,,,,,,,,,,,,,,,,,,,246.30028849997325,246.3162632000167,246.8016850000131,246.81773549999343,246.83472189999884,246.83472189999884,246.83472189999884,248.47505020000972,Foils\081a.jpg,none,n,1.6243391000316478,None,,,,,,,,,00039,001,2026-01-17_12h10.16.109,MST_test,2024.2.0,59.79080393623539,2026-01-17 12h10.33.354093 +0530,
57,0,58,o,2.1457813999732025,None,58,0,57,248.49141199997393,,,,,,,,,,,,,,,,,,,,,,,,,,,,,,,,,,,,,,,,,,,,,,,,,,248.47514240001328,248.49141199997393,248.97590570000466,248.978376700019,248.99257750000106,248.99257750000106,248.99257750000106,251.1508961999789,Objects\065a.jpg,post,o,2.1457813999732025,None,,,,,,,,,00039,001,2026-01-17_12h10.16.109,MST_test,2024.2.0,59.79080393623539,2026-01-17 12h10.33.354093 +0530,
58,0,59,s,1.526144800009206,None,59,0,58,251.1672143000178,,,,,,,,,,,,,,,,,,,,,,,,,,,,,,,,,,,,,,,,,,,,,,,,,,251.15102420002222,251.1672143000178,251.65171070001088,251.66826070001116,251.68515139998635,251.68515139998635,251.68515139998635,253.2242729999707,Objects\324b.jpg,post,s,1.526144800009206,None,,,,,,,,,00039,001,2026-01-17_12h10.16.109,MST_test,2024.2.0,59.79080393623539,2026-01-17 12h10.33.354093 +0530,
59,0,60,o,1.595740900025703,None,60,0,59,253.24062060000142,,,,,,,,,,,,,,,,,,,,,,,,,,,,,,,,,,,,,,,,,,,,,,,,,,253.2243945999653,253.24062060000142,253.72710289998213,253.7366769000073,253.75974670000141,253.75974670000141,253.75974670000141,255.36558370001148,Objects\126a.jpg,mid,o,1.595740900025703,None,,,,,,,,,00039,001,2026-01-17_12h10.16.109,MST_test,2024.2.0,59.79080393623539,2026-01-17 12h10.33.354093 +0530,
60,0,61,n,1.1984981000423431,None,61,0,60,255.38198090001242,,,,,,,,,,,,,,,,,,,,,,,,,,,,,,,,,,,,,,,,,,,,,,,,,,255.36568340001395,255.38198090001242,255.8672311999835,255.87661189999199,255.9000755000161,255.9000755000161,255.9000755000161,257.10466760001145,Foils\017a.jpg,none,n,1.1984981000423431,None,,,,,,,,,00039,001,2026-01-17_12h10.16.109,MST_test,2024.2.0,59.79080393623539,2026-01-17 12h10.33.354093 +0530,
61,0,62,n,3.730876299960073,None,62,0,61,257.1209351000143,,,,,,,,,,,,,,,,,,,,,,,,,,,,,,,,,,,,,,,,,,,,,,,,,,257.10476020001806,257.1209351000143,257.60671570000704,257.6170599000179,257.6396335000172,257.6396335000172,257.6396335000172,261.3862959999824,Foils\121a.jpg,none,n,3.730876299960073,None,,,,,,,,,00039,001,2026-01-17_12h10.16.109,MST_test,2024.2.0,59.79080393623539,2026-01-17 12h10.33.354093 +0530,
62,0,63,s,1.2033567000180483,None,63,0,62,261.40242719999515,,,,,,,,,,,,,,,,,,,,,,,,,,,,,,,,,,,,,,,,,,,,,,,,,,261.3863914000103,261.40242719999515,261.8878897000104,261.8959223999991,261.9041631,261.9041631,261.9041631,263.1093568999786,Objects\232a.jpg,pre,s,1.2033567000180483,None,,,,,,,,,00039,001,2026-01-17_12h10.16.109,MST_test,2024.2.0,59.79080393623539,2026-01-17 12h10.33.354093 +0530,
63,0,64,o,1.3107705000438727,None,64,0,63,263.1252621000167,,,,,,,,,,,,,,,,,,,,,,,,,,,,,,,,,,,,,,,,,,,,,,,,,,263.1094518000027,263.1252621000167,263.61020639998605,263.6196243999875,263.6437024999759,263.6437024999759,263.6437024999759,264.9655432999716,Objects\122a.jpg,pre,o,1.3107705000438727,None,,,,,,,,,00039,001,2026-01-17_12h10.16.109,MST_test,2024.2.0,59.79080393623539,2026-01-17 12h10.33.354093 +0530,
64,0,65,s,1.3266843000310473,None,65,0,64,264.9817559000221,,,,,,,,,,,,,,,,,,,,,,,,,,,,,,,,,,,,,,,,,,,,,,,,,,264.96563509997213,264.9817559000221,265.4667335000122,265.47615329996916,265.500193600019,265.500193600019,265.500193600019,266.8388255999889,Objects\068b.jpg,mid,s,1.3266843000310473,None,,,,,,,,,00039,001,2026-01-17_12h10.16.109,MST_test,2024.2.0,59.79080393623539,2026-01-17 12h10.33.354093 +0530,
65,0,66,o,1.4697643000399694,None,66,0,65,266.8548654000042,,,,,,,,,,,,,,,,,,,,,,,,,,,,,,,,,,,,,,,,,,,,,,,,,,266.83891950000543,266.8548654000042,267.34030589996837,267.3497389999684,267.37329149997095,267.37329149997095,267.37329149997095,268.84580750000896,Objects\125b.jpg,post,o,1.4697643000399694,None,,,,,,,,,00039,001,2026-01-17_12h10.16.109,MST_test,2024.2.0,59.79080393623539,2026-01-17 12h10.33.354093 +0530,
66,0,67,o,0.9667951000155881,None,67,0,66,268.86232620000374,,,,,,,,,,,,,,,,,,,,,,,,,,,,,,,,,,,,,,,,,,,,,,,,,,268.84589830000186,268.86232620000374,269.34702430001926,269.3505194999743,269.3638554000063,269.3638554000063,269.3638554000063,270.33460230001947,Objects\285a.jpg,pre,o,0.9667951000155881,None,,,,,,,,,00039,001,2026-01-17_12h10.16.109,MST_test,2024.2.0,59.79080393623539,2026-01-17 12h10.33.354093 +0530,
67,0,68,o,0.8145939000532962,None,68,0,67,270.3505427999771,,,,,,,,,,,,,,,,,,,,,,,,,,,,,,,,,,,,,,,,,,,,,,,,,,270.33469290001085,270.3505427999771,270.83562999998685,270.8384126999881,270.85218980000354,270.85218980000354,270.85218980000354,271.67241100000683,Objects\058a.jpg,post,o,0.8145939000532962,None,,,,,,,,,00039,001,2026-01-17_12h10.16.109,MST_test,2024.2.0,59.79080393623539,2026-01-17 12h10.33.354093 +0530,
68,0,69,o,0.8522613999666646,None,69,0,68,271.6884490000084,,,,,,,,,,,,,,,,,,,,,,,,,,,,,,,,,,,,,,,,,,,,,,,,,,271.6725054999697,271.6884490000084,272.17364330001874,272.17710319999605,272.1903072000132,272.1903072000132,272.1903072000132,273.04381359997205,Objects\384a.jpg,pre,o,0.8522613999666646,None,,,,,,,,,00039,001,2026-01-17_12h10.16.109,MST_test,2024.2.0,59.79080393623539,2026-01-17 12h10.33.354093 +0530,
69,0,70,s,1.208866000000853,None,70,0,69,273.0599194999668,,,,,,,,,,,,,,,,,,,,,,,,,,,,,,,,,,,,,,,,,,,,,,,,,,273.04390569997486,273.0599194999668,273.54511599999387,273.5544576999964,273.57836260000477,273.57836260000477,273.57836260000477,274.80001220002305,Objects\027b.jpg,pre,s,1.208866000000853,None,,,,,,,,,00039,001,2026-01-17_12h10.16.109,MST_test,2024.2.0,59.79080393623539,2026-01-17 12h10.33.354093 +0530,
70,0,71,o,1.1963970999931917,None,71,0,70,274.81605500000296,,,,,,,,,,,,,,,,,,,,,,,,,,,,,,,,,,,,,,,,,,,,,,,,,,274.80010609998135,274.81605500000296,275.30149909999454,275.30443849996664,275.3180878999992,275.3180878999992,275.3180878999992,276.5227205000119,Objects\024a.jpg,post,o,1.1963970999931917,None,,,,,,,,,00039,001,2026-01-17_12h10.16.109,MST_test,2024.2.0,59.79080393623539,2026-01-17 12h10.33.354093 +0530,
71,0,72,s,1.1939378999522887,None,72,0,71,276.5388744000229,,,,,,,,,,,,,,,,,,,,,,,,,,,,,,,,,,,,,,,,,,,,,,,,,,276.52281280001625,276.5388744000229,277.0242256000056,277.03476279997267,277.0573267000145,277.0573267000145,277.0573267000145,278.2622056999826,Objects\241b.jpg,post,s,1.1939378999522887,None,,,,,,,,,00039,001,2026-01-17_12h10.16.109,MST_test,2024.2.0,59.79080393623539,2026-01-17 12h10.33.354093 +0530,
72,0,73,s,1.2546620999928564,None,73,0,72,278.2781932000071,,,,,,,,,,,,,,,,,,,,,,,,,,,,,,,,,,,,,,,,,,,,,,,,,,278.2624554000213,278.2781932000071,278.7635651999735,278.78064700000687,278.7967427999829,278.7967427999829,278.7967427999829,280.0684889999684,Objects\315b.jpg,pre,s,1.2546620999928564,None,,,,,,,,,00039,001,2026-01-17_12h10.16.109,MST_test,2024.2.0,59.79080393623539,2026-01-17 12h10.33.354093 +0530,
73,0,74,s,1.0561641999520361,None,74,0,73,280.0845155999996,,,,,,,,,,,,,,,,,,,,,,,,,,,,,,,,,,,,,,,,,,,,,,,,,,280.06857730000047,280.0845155999996,280.56989919999614,280.5859337999718,280.6029490000219,280.6029490000219,280.6029490000219,281.6741820999887,Foils\057a.jpg,none,s,1.0561641999520361,None,,,,,,,,,00039,001,2026-01-17_12h10.16.109,MST_test,2024.2.0,59.79080393623539,2026-01-17 12h10.33.354093 +0530,
74,0,75,n,1.4736598000163212,None,75,0,74,281.6903777999687,,,,,,,,,,,,,,,,,,,,,,,,,,,,,,,,,,,,,,,,,,,,,,,,,,281.674274399993,281.6903777999687,282.1752725999686,282.1848472999991,282.20881739998003,282.20881739998003,282.20881739998003,283.69765569997253,Foils\033a.jpg,none,n,1.4736598000163212,None,,,,,,,,,00039,001,2026-01-17_12h10.16.109,MST_test,2024.2.0,59.79080393623539,2026-01-17 12h10.33.354093 +0530,
75,0,76,s,1.1540977000258863,None,76,0,75,283.71401729999343,,,,,,,,,,,,,,,,,,,,,,,,,,,,,,,,,,,,,,,,,,,,,,,,,,283.69774649996543,283.71401729999343,284.19899220002117,284.2150673000142,284.2325449999771,284.2325449999771,284.2325449999771,285.3874426999828,Objects\222b.jpg,mid,s,1.1540977000258863,None,,,,,,,,,00039,001,2026-01-17_12h10.16.109,MST_test,2024.2.0,59.79080393623539,2026-01-17 12h10.33.354093 +0530,
76,0,77,s,3.809005299990531,None,77,0,76,285.40341709996574,,,,,,,,,,,,,,,,,,,,,,,,,,,,,,,,,,,,,,,,,,,,,,,,,,285.38753850001376,285.40341709996574,285.8883805999649,285.90223359997617,285.9218669999973,285.9218669999973,285.9218669999973,289.7357270999928,Objects\107b.jpg,post,s,3.809005299990531,None,,,,,,,,,00039,001,2026-01-17_12h10.16.109,MST_test,2024.2.0,59.79080393623539,2026-01-17 12h10.33.354093 +0530,
77,0,78,s,1.228583800024353,None,78,0,77,289.7517020999803,,,,,,,,,,,,,,,,,,,,,,,,,,,,,,,,,,,,,,,,,,,,,,,,,,289.7358220000169,289.7517020999803,290.23692100000335,290.2500954999705,290.2701392999734,290.2701392999734,290.2701392999734,291.50852749997284,Objects\208b.jpg,mid,s,1.228583800024353,None,,,,,,,,,00039,001,2026-01-17_12h10.16.109,MST_test,2024.2.0,59.79080393623539,2026-01-17 12h10.33.354093 +0530,
78,0,79,s,2.399358899972867,None,79,0,78,291.5247984000016,,,,,,,,,,,,,,,,,,,,,,,,,,,,,,,,,,,,,,,,,,,,,,,,,,291.5086196999764,291.5247984000016,292.0096525999834,292.0242355999653,292.0431418999797,292.0431418999797,292.0431418999797,294.45200689998455,Foils\034a.jpg,none,s,2.399358899972867,None,,,,,,,,,00039,001,2026-01-17_12h10.16.109,MST_test,2024.2.0,59.79080393623539,2026-01-17 12h10.33.354093 +0530,
79,0,80,s,2.968033299956005,None,80,0,79,294.4685085999663,,,,,,,,,,,,,,,,,,,,,,,,,,,,,,,,,,,,,,,,,,,,,,,,,,294.4521036000224,294.4685085999663,294.9540635999874,294.963132600009,294.9869460000191,294.9869460000191,294.9869460000191,297.964496599976,Objects\274b.jpg,pre,s,2.968033299956005,None,,,,,,,,,00039,001,2026-01-17_12h10.16.109,MST_test,2024.2.0,59.79080393623539,2026-01-17 12h10.33.354093 +0530,
80,0,81,o,1.3116018999717198,None,81,0,80,297.9806388000143,,,,,,,,,,,,,,,,,,,,,,,,,,,,,,,,,,,,,,,,,,,,,,,,,,297.9645860000164,297.9806388000143,298.4657257000217,298.480455300014,298.49908219999634,298.49908219999634,298.49908219999634,299.82096260000253,Objects\288b.jpg,pre,o,1.3116018999717198,None,,,,,,,,,00039,001,2026-01-17_12h10.16.109,MST_test,2024.2.0,59.79080393623539,2026-01-17 12h10.33.354093 +0530,
81,0,82,n,1.463183999992907,None,82,0,81,299.83714040002087,,,,,,,,,,,,,,,,,,,,,,,,,,,,,,,,,,,,,,,,,,,,,,,,,,299.821054,299.83714040002087,300.32213529996807,300.3383388000075,300.3555919000064,300.3555919000064,300.3555919000064,301.82788870000513,Foils\066a.jpg,none,n,1.463183999992907,None,,,,,,,,,00039,001,2026-01-17_12h10.16.109,MST_test,2024.2.0,59.79080393623539,2026-01-17 12h10.33.354093 +0530,
82,0,83,o,1.0563573999679647,None,83,0,82,301.8440419000108,,,,,,,,,,,,,,,,,,,,,,,,,,,,,,,,,,,,,,,,,,,,,,,,,,301.82797869999195,301.8440419000108,302.32956599997124,302.3330648000119,302.34576349996496,302.34576349996496,302.34576349996496,303.41690710000694,Objects\130a.jpg,pre,o,1.0563573999679647,None,,,,,,,,,00039,001,2026-01-17_12h10.16.109,MST_test,2024.2.0,59.79080393623539,2026-01-17 12h10.33.354093 +0530,
83,0,84,o,1.0040840999572538,None,84,0,83,303.4330547999707,,,,,,,,,,,,,,,,,,,,,,,,,,,,,,,,,,,,,,,,,,,,,,,,,,303.4169986000052,303.4330547999707,303.9180397000164,303.92126450000796,303.93478349997895,303.93478349997895,303.93478349997895,304.9556144999806,Objects\034a.jpg,mid,o,1.0040840999572538,None,,,,,,,,,00039,001,2026-01-17_12h10.16.109,MST_test,2024.2.0,59.79080393623539,2026-01-17 12h10.33.354093 +0530,
84,0,85,o,0.9458565999520943,None,85,0,84,304.97178849997,,,,,,,,,,,,,,,,,,,,,,,,,,,,,,,,,,,,,,,,,,,,,,,,,,304.95571030001156,304.97178849997,305.45678299997235,305.4642340000137,305.4730672999867,305.4730672999867,305.4730672999867,306.4274560000049,Objects\207a.jpg,post,o,0.9458565999520943,None,,,,,,,,,00039,001,2026-01-17_12h10.16.109,MST_test,2024.2.0,59.79080393623539,2026-01-17 12h10.33.354093 +0530,
85,0,86,s,1.4966951999813318,None,86,0,85,306.44360369996866,,,,,,,,,,,,,,,,,,,,,,,,,,,,,,,,,,,,,,,,,,,,,,,,,,306.42754639999475,306.44360369996866,306.9286806000164,306.94365909998305,306.9620530999964,306.9620530999964,306.9620530999964,308.4677908999729,Objects\204b.jpg,mid,s,1.4966951999813318,None,,,,,,,,,00039,001,2026-01-17_12h10.16.109,MST_test,2024.2.0,59.79080393623539,2026-01-17 12h10.33.354093 +0530,
86,0,87,s,1.7209802999859676,None,87,0,86,308.4839652000228,,,,,,,,,,,,,,,,,,,,,,,,,,,,,,,,,,,,,,,,,,,,,,,,,,308.46788620000007,308.4839652000228,308.96918499999447,308.97250610002084,308.9856697000214,308.9856697000214,308.9856697000214,310.71022040001117,Objects\228a.jpg,post,s,1.7209802999859676,None,,,,,,,,,00039,001,2026-01-17_12h10.16.109,MST_test,2024.2.0,59.79080393623539,2026-01-17 12h10.33.354093 +0530,
87,0,88,o,1.2632774999947287,None,88,0,87,310.7258675000048,,,,,,,,,,,,,,,,,,,,,,,,,,,,,,,,,,,,,,,,,,,,,,,,,,310.71031880000373,310.7258675000048,311.21054130000994,311.22131619998254,311.2436073999852,311.2436073999852,311.2436073999852,312.5155615999829,Objects\028b.jpg,post,o,1.2632774999947287,None,,,,,,,,,00039,001,2026-01-17_12h10.16.109,MST_test,2024.2.0,59.79080393623539,2026-01-17 12h10.33.354093 +0530,
88,0,89,s,1.561519999988377,None,89,0,88,312.5315981999738,,,,,,,,,,,,,,,,,,,,,,,,,,,,,,,,,,,,,,,,,,,,,,,,,,312.51565259997733,312.5315981999738,313.0166046000086,313.0196033999673,313.03330209996784,313.03330209996784,313.03330209996784,314.60613099997863,Objects\225a.jpg,mid,s,1.561519999988377,None,,,,,,,,,00039,001,2026-01-17_12h10.16.109,MST_test,2024.2.0,59.79080393623539,2026-01-17 12h10.33.354093 +0530,
89,0,90,s,2.6539241999853402,None,90,0,89,314.6223668999737,,,,,,,,,,,,,,,,,,,,,,,,,,,,,,,,,,,,,,,,,,,,,,,,,,314.6062233999837,314.6223668999737,315.107217199984,315.110851800011,315.12418199999956,315.12418199999956,315.12418199999956,317.7838710999931,Objects\096a.jpg,post,s,2.6539241999853402,None,,,,,,,,,00039,001,2026-01-17_12h10.16.109,MST_test,2024.2.0,59.79080393623539,2026-01-17 12h10.33.354093 +0530,
90,0,91,s,4.020496100012679,None,91,0,90,317.80004270002246,,,,,,,,,,,,,,,,,,,,,,,,,,,,,,,,,,,,,,,,,,,,,,,,,,317.7839645000058,317.80004270002246,318.2850539999781,318.29606969997985,318.3185683999909,318.3185683999909,318.3185683999909,322.34986169997137,Foils\020b.jpg,none,s,4.020496100012679,None,,,,,,,,,00039,001,2026-01-17_12h10.16.109,MST_test,2024.2.0,59.79080393623539,2026-01-17 12h10.33.354093 +0530,
91,0,92,n,3.8542472000117414,None,92,0,91,322.3660344000091,,,,,,,,,,,,,,,,,,,,,,,,,,,,,,,,,,,,,,,,,,,,,,,,,,322.3499579000054,322.3660344000091,322.851137599966,322.86120360001223,322.88448170002084,322.88448170002084,322.88448170002084,326.74855389998993,Foils\050a.jpg,none,n,3.8542472000117414,None,,,,,,,,,00039,001,2026-01-17_12h10.16.109,MST_test,2024.2.0,59.79080393623539,2026-01-17 12h10.33.354093 +0530,
92,0,93,s,1.3110535999876447,None,93,0,92,326.7647780000116,,,,,,,,,,,,,,,,,,,,,,,,,,,,,,,,,,,,,,,,,,,,,,,,,,326.74865139997564,326.7647780000116,327.24984459998086,327.2665410999907,327.28321879997384,327.28321879997384,327.28321879997384,328.60524269996677,Objects\335b.jpg,mid,s,1.3110535999876447,None,,,,,,,,,00039,001,2026-01-17_12h10.16.109,MST_test,2024.2.0,59.79080393623539,2026-01-17 12h10.33.354093 +0530,
93,0,94,s,1.1825758999912068,None,94,0,93,328.6212715000147,,,,,,,,,,,,,,,,,,,,,,,,,,,,,,,,,,,,,,,,,,,,,,,,,,328.6053375999909,328.6212715000147,329.10624920000555,329.12205790000735,329.13970459997654,329.13970459997654,329.13970459997654,330.32784029998584,Objects\233b.jpg,post,s,1.1825758999912068,None,,,,,,,,,00039,001,2026-01-17_12h10.16.109,MST_test,2024.2.0,59.79080393623539,2026-01-17 12h10.33.354093 +0530,
94,0,95,s,1.4198882000055164,None,95,0,94,330.34398170001805,,,,,,,,,,,,,,,,,,,,,,,,,,,,,,,,,,,,,,,,,,,,,,,,,,330.32793470000615,330.34398170001805,330.8289634999819,330.84679949999554,330.86327769997297,330.86327769997297,330.86327769997297,332.2846536000143,Objects\303b.jpg,pre,s,1.4198882000055164,None,,,,,,,,,00039,001,2026-01-17_12h10.16.109,MST_test,2024.2.0,59.79080393623539,2026-01-17 12h10.33.354093 +0530,
95,0,96,s,1.3039979999884963,None,96,0,95,332.300696899998,,,,,,,,,,,,,,,,,,,,,,,,,,,,,,,,,,,,,,,,,,,,,,,,,,332.2847436000011,332.300696899998,332.7863465999835,332.79515179997543,332.81913790002,332.81913790002,332.81913790002,334.12459339998895,Objects\183a.jpg,pre,s,1.3039979999884963,None,,,,,,,,,00039,001,2026-01-17_12h10.16.109,MST_test,2024.2.0,59.79080393623539,2026-01-17 12h10.33.354093 +0530,
96,0,97,s,1.871629400004167,None,97,0,96,334.1407222999842,,,,,,,,,,,,,,,,,,,,,,,,,,,,,,,,,,,,,,,,,,,,,,,,,,334.1246899999678,334.1407222999842,334.62566760001937,334.634834699973,334.6590481000021,334.6590481000021,334.6590481000021,336.5327094999957,Objects\235b.jpg,pre,s,1.871629400004167,None,,,,,,,,,00039,001,2026-01-17_12h10.16.109,MST_test,2024.2.0,59.79080393623539,2026-01-17 12h10.33.354093 +0530,
97,0,98,o,1.0792310999822803,None,98,0,97,336.54892660002224,,,,,,,,,,,,,,,,,,,,,,,,,,,,,,,,,,,,,,,,,,,,,,,,,,336.5328053999692,336.54892660002224,337.034105299972,337.0420729999896,337.05080409999937,337.05080409999937,337.05080409999937,338.13888909999514,Objects\383a.jpg,mid,o,1.0792310999822803,None,,,,,,,,,00039,001,2026-01-17_12h10.16.109,MST_test,2024.2.0,59.79080393623539,2026-01-17 12h10.33.354093 +0530,
98,0,99,s,1.0259974999935366,None,99,0,98,338.15452909999294,,,,,,,,,,,,,,,,,,,,,,,,,,,,,,,,,,,,,,,,,,,,,,,,,,338.1389887999976,338.15452909999294,338.63985949999187,338.65652670001145,338.6729805999785,338.6729805999785,338.6729805999785,339.71053559996653,Objects\132b.jpg,pre,s,1.0259974999935366,None,,,,,,,,,00039,001,2026-01-17_12h10.16.109,MST_test,2024.2.0,59.79080393623539,2026-01-17 12h10.33.354093 +0530,
99,0,100,s,1.3642373999464326,None,100,0,99,339.7269762000069,,,,,,,,,,,,,,,,,,,,,,,,,,,,,,,,,,,,,,,,,,,,,,,,,,339.71062919998076,339.7269762000069,340.21181140001863,340.2214601999731,340.2460468999925,340.2460468999925,340.2460468999925,341.6184168999898,Foils\106a.jpg,none,s,1.3642373999464326,None,,,,,,,,,00039,001,2026-01-17_12h10.16.109,MST_test,2024.2.0,59.79080393623539,2026-01-17 12h10.33.354093 +0530,
100,0,101,o,0.9397453000419773,None,101,0,100,341.63341800001217,,,,,,,,,,,,,,,,,,,,,,,,,,,,,,,,,,,,,,,,,,,,,,,,,,341.6185182000045,341.63341800001217,342.1186001999886,342.12632659997325,342.1345507000224,342.1345507000224,342.1345507000224,343.0890438000206,Objects\291a.jpg,pre,o,0.9397453000419773,None,,,,,,,,,00039,001,2026-01-17_12h10.16.109,MST_test,2024.2.0,59.79080393623539,2026-01-17 12h10.33.354093 +0530,
101,0,102,o,0.7702980000176467,None,102,0,101,343.1053259000182,,,,,,,,,,,,,,,,,,,,,,,,,,,,,,,,,,,,,,,,,,,,,,,,,,343.08913879998727,343.1053259000182,343.5909186999779,343.59871719998773,343.62364990002243,343.62364990002243,343.62364990002243,344.4103083999944,Objects\223a.jpg,post,o,0.7702980000176467,None,,,,,,,,,00039,001,2026-01-17_12h10.16.109,MST_test,2024.2.0,59.79080393623539,2026-01-17 12h10.33.354093 +0530,
102,0,103,o,4.473757100000512,None,103,0,102,344.4265080000041,,,,,,,,,,,,,,,,,,,,,,,,,,,,,,,,,,,,,,,,,,,,,,,,,,344.41039669996826,344.4265080000041,344.9120066000032,344.9216120999772,344.9449486999656,344.9449486999656,344.9449486999656,349.4278659999836,Objects\008b.jpg,mid,o,4.473757100000512,None,,,,,,,,,00039,001,2026-01-17_12h10.16.109,MST_test,2024.2.0,59.79080393623539,2026-01-17 12h10.33.354093 +0530,
103,0,104,n,1.318574900040403,None,104,0,103,349.4443567999988,,,,,,,,,,,,,,,,,,,,,,,,,,,,,,,,,,,,,,,,,,,,,,,,,,349.42795990000013,349.4443567999988,349.9294346999959,349.94132689997787,349.96350189996883,349.96350189996883,349.96350189996883,351.2845614000107,Foils\f6.jpg,none,n,1.318574900040403,None,,,,,,,,,00039,001,2026-01-17_12h10.16.109,MST_test,2024.2.0,59.79080393623539,2026-01-17 12h10.33.354093 +0530,
104,0,105,o,3.2716467999853194,None,105,0,104,351.3007307999651,,,,,,,,,,,,,,,,,,,,,,,,,,,,,,,,,,,,,,,,,,,,,,,,,,351.2846570999827,351.3007307999651,351.7857644999749,351.795504299982,351.8190095999744,351.8190095999744,351.8190095999744,355.09786310000345,Objects\378a.jpg,pre,o,3.2716467999853194,None,,,,,,,,,00039,001,2026-01-17_12h10.16.109,MST_test,2024.2.0,59.79080393623539,2026-01-17 12h10.33.354093 +0530,
105,0,106,s,8.850668099999893,None,106,0,105,355.11404229997424,,,,,,,,,,,,,,,,,,,,,,,,,,,,,,,,,,,,,,,,,,,,,,,,,,355.0979567000177,355.11404229997424,355.59899680002127,355.6086233999813,355.63244129996747,355.63244129996747,355.63244129996747,364.4978863999713,Foils\042a.jpg,none,s,8.850668099999893,None,,,,,,,,,00039,001,2026-01-17_12h10.16.109,MST_test,2024.2.0,59.79080393623539,2026-01-17 12h10.33.354093 +0530,
106,0,107,s,2.09907050000038,None,107,0,106,364.5136405999656,,,,,,,,,,,,,,,,,,,,,,,,,,,,,,,,,,,,,,,,,,,,,,,,,,364.49798899999587,364.5136405999656,364.99862660001963,365.0017546999734,365.0153525000205,365.0153525000205,365.0153525000205,367.1244984000223,Objects\077a.jpg,mid,s,2.09907050000038,None,,,,,,,,,00039,001,2026-01-17_12h10.16.109,MST_test,2024.2.0,59.79080393623539,2026-01-17 12h10.33.354093 +0530,
107,0,108,o,0.8803232000209391,None,108,0,107,367.1393763999804,,,,,,,,,,,,,,,,,,,,,,,,,,,,,,,,,,,,,,,,,,,,,,,,,,367.1245988999726,367.1393763999804,367.6247839999851,367.6352183999843,367.65795129997423,367.65795129997423,367.65795129997423,368.54508840001654,Objects\236a.jpg,post,o,0.8803232000209391,None,367.65795129997423,,,,,,,,00039,001,2026-01-17_12h10.16.109,MST_test,2024.2.0,59.79080393623539,2026-01-17 12h10.33.354093 +0530,
108,0,109,o,1.0105380000313744,None,109,0,108,368.5613168000127,,,,,,,,,,,,,,,,,,,,,,,,,,,,,,,,,,,,,,,,,,,,,,,,,,368.545190099976,368.5613168000127,369.0461228999775,369.05529310001293,369.07957299996633,369.07957299996633,369.07957299996633,370.10089800000424,Objects\317a.jpg,pre,o,1.0105380000313744,None,,,,,,,,,00039,001,2026-01-17_12h10.16.109,MST_test,2024.2.0,59.79080393623539,2026-01-17 12h10.33.354093 +0530,
109,0,110,o,4.479437600006349,None,110,0,109,370.11738609999884,,,,,,,,,,,,,,,,,,,,,,,,,,,,,,,,,,,,,,,,,,,,,,,,,,370.10104769998,370.11738609999884,370.6020431999932,370.6125080999918,370.63519240001915,370.63519240001915,370.63519240001915,375.11798579996685,Objects\015b.jpg,post,o,4.479437600006349,None,,,,,,,,,00039,001,2026-01-17_12h10.16.109,MST_test,2024.2.0,59.79080393623539,2026-01-17 12h10.33.354093 +0530,
110,0,111,s,1.0544950000476092,None,111,0,110,375.13401749997865,,,,,,,,,,,,,,,,,,,,,,,,,,,,,,,,,,,,,,,,,,,,,,,,,,375.11807919997955,375.13401749997865,375.61923780001234,375.6220714999945,375.6357225999818,375.6357225999818,375.6357225999818,376.7069307999918,Objects\334a.jpg,pre,s,1.0544950000476092,None,,,,,,,,,00039,001,2026-01-17_12h10.16.109,MST_test,2024.2.0,59.79080393623539,2026-01-17 12h10.33.354093 +0530,
111,0,112,s,1.305164400022477,None,112,0,111,376.7230367999873,,,,,,,,,,,,,,,,,,,,,,,,,,,,,,,,,,,,,,,,,,,,,,,,,,376.7070238000015,376.7230367999873,377.2080156999873,377.2112216000096,377.22475150000537,377.22475150000537,377.22475150000537,378.5464708000072,Objects\246a.jpg,pre,s,1.305164400022477,None,,,,,,,,,00039,001,2026-01-17_12h10.16.109,MST_test,2024.2.0,59.79080393623539,2026-01-17 12h10.33.354093 +0530,
112,0,113,o,1.0492111000348814,None,113,0,112,378.5633141999715,,,,,,,,,,,,,,,,,,,,,,,,,,,,,,,,,,,,,,,,,,,,,,,,,,378.54656360001536,378.5633141999715,379.0478914999985,379.05154590000166,379.06473659997573,379.06473659997573,379.06473659997573,380.11879769997904,Objects\033a.jpg,mid,o,1.0492111000348814,None,,,,,,,,,00039,001,2026-01-17_12h10.16.109,MST_test,2024.2.0,59.79080393623539,2026-01-17 12h10.33.354093 +0530,
113,0,114,n,1.2454403000301681,None,114,0,113,380.1349984999979,,,,,,,,,,,,,,,,,,,,,,,,,,,,,,,,,,,,,,,,,,,,,,,,,,380.11889290000545,380.1349984999979,380.6200689999969,380.63233240001136,380.65360099996906,380.65360099996906,380.65360099996906,381.90853050001897,Foils\090a.jpg,none,n,1.2454403000301681,None,,,,,,,,,00039,001,2026-01-17_12h10.16.109,MST_test,2024.2.0,59.79080393623539,2026-01-17 12h10.33.354093 +0530,
114,0,115,n,5.239659900020342,None,115,0,114,381.92458479997003,,,,,,,,,,,,,,,,,,,,,,,,,,,,,,,,,,,,,,,,,,,,,,,,,,381.9086226000218,381.92458479997003,382.40957269998034,382.41960199997993,382.4430255999905,382.4430255999905,382.4430255999905,387.69535379996523,Objects\282b.jpg,post,n,5.239659900020342,None,,,,,,,,,00039,001,2026-01-17_12h10.16.109,MST_test,2024.2.0,59.79080393623539,2026-01-17 12h10.33.354093 +0530,
115,0,116,s,1.2922761000227183,None,116,0,115,387.7115257999976,,,,,,,,,,,,,,,,,,,,,,,,,,,,,,,,,,,,,,,,,,,,,,,,,,387.6954447000171,387.7115257999976,388.1971377999871,388.2124106999836,388.2300906999735,388.2300906999735,388.2300906999735,389.53502050001407,Objects\239b.jpg,mid,s,1.2922761000227183,None,,,,,,,,,00039,001,2026-01-17_12h10.16.109,MST_test,2024.2.0,59.79080393623539,2026-01-17 12h10.33.354093 +0530,
116,0,117,o,1.1169653999968432,None,117,0,116,389.5511875000084,,,,,,,,,,,,,,,,,,,,,,,,,,,,,,,,,,,,,,,,,,,,,,,,,,389.53510949999327,389.5511875000084,390.0365228999872,390.0511214999715,390.0696240999969,390.0696240999969,390.0696240999969,391.1909403000027,Objects\016b.jpg,pre,o,1.1169653999968432,None,,,,,,,,,00039,001,2026-01-17_12h10.16.109,MST_test,2024.2.0,59.79080393623539,2026-01-17 12h10.33.354093 +0530,
117,0,118,o,1.3983330000191927,None,118,0,117,391.2069855000009,,,,,,,,,,,,,,,,,,,,,,,,,,,,,,,,,,,,,,,,,,,,,,,,,,391.1910292999819,391.2069855000009,391.69236210000236,391.69526299997233,391.70868979999796,391.70868979999796,391.70868979999796,393.11430929997005,Objects\037a.jpg,post,o,1.3983330000191927,None,,,,,,,,,00039,001,2026-01-17_12h10.16.109,MST_test,2024.2.0,59.79080393623539,2026-01-17 12h10.33.354093 +0530,
118,0,119,s,1.6899850000045262,None,119,0,118,393.1305054000113,,,,,,,,,,,,,,,,,,,,,,,,,,,,,,,,,,,,,,,,,,,,,,,,,,393.1143970999983,393.1305054000113,393.6154696000158,393.62488550000126,393.64894629997434,393.64894629997434,393.64894629997434,395.35560419998365,Foils\074a.jpg,none,s,1.6899850000045262,None,,,,,,,,,00039,001,2026-01-17_12h10.16.109,MST_test,2024.2.0,59.79080393623539,2026-01-17 12h10.33.354093 +0530,
119,0,120,o,1.0091888000024483,None,120,0,119,395.3715629000217,,,,,,,,,,,,,,,,,,,,,,,,,,,,,,,,,,,,,,,,,,,,,,,,,,395.3556934000226,395.3715629000217,395.85693999996874,395.8638672999805,395.87321079999674,395.87321079999674,395.87321079999674,396.89420739997877,Objects\210a.jpg,mid,o,1.0091888000024483,None,,,,,,,,,00039,001,2026-01-17_12h10.16.109,MST_test,2024.2.0,59.79080393623539,2026-01-17 12h10.33.354093 +0530,
120,0,121,o,2.461407299968414,None,121,0,120,396.9103236999945,,,,,,,,,,,,,,,,,,,,,,,,,,,,,,,,,,,,,,,,,,,,,,,,,,396.8942990999785,396.9103236999945,397.3955001999857,397.41195739997784,397.42872700002044,397.42872700002044,397.42872700002044,399.90540719998535,Objects\187b.jpg,pre,o,2.461407299968414,None,,,,,,,,,00039,001,2026-01-17_12h10.16.109,MST_test,2024.2.0,59.79080393623539,2026-01-17 12h10.33.354093 +0530,
121,0,122,s,1.1230651999940164,None,122,0,121,399.9209533999674,,,,,,,,,,,,,,,,,,,,,,,,,,,,,,,,,,,,,,,,,,,,,,,,,,399.90550350002013,399.9209533999674,400.40592829999514,400.41676940000616,400.43937919999007,400.43937919999007,400.43937919999007,401.5771656999714,Objects\105b.jpg,mid,s,1.1230651999940164,None,,,,,,,,,00039,001,2026-01-17_12h10.16.109,MST_test,2024.2.0,59.79080393623539,2026-01-17 12h10.33.354093 +0530,
122,0,123,s,1.2268385000061244,None,123,0,122,401.5933392000152,,,,,,,,,,,,,,,,,,,,,,,,,,,,,,,,,,,,,,,,,,,,,,,,,,401.577254200005,401.5933392000152,402.07856809999794,402.0880503000226,402.11178440001095,402.11178440001095,402.11178440001095,403.35005609999644,Objects\048b.jpg,pre,s,1.2268385000061244,None,,,,,,,,,00039,001,2026-01-17_12h10.16.109,MST_test,2024.2.0,59.79080393623539,2026-01-17 12h10.33.354093 +0530,
123,0,124,s,1.2300716000027023,None,124,0,123,403.36621930002,,,,,,,,,,,,,,,,,,,,,,,,,,,,,,,,,,,,,,,,,,,,,,,,,,403.35014920000685,403.36621930002,403.8516313,403.8547383999685,403.8679405999719,403.8679405999719,403.8679405999719,405.1063675999758,Objects\013a.jpg,mid,s,1.2300716000027023,None,,,,,,,,,00039,001,2026-01-17_12h10.16.109,MST_test,2024.2.0,59.79080393623539,2026-01-17 12h10.33.354093 +0530,
124,0,125,o,0.9221538999699987,None,125,0,124,405.1227291999967,,,,,,,,,,,,,,,,,,,,,,,,,,,,,,,,,,,,,,,,,,,,,,,,,,405.1064671999775,405.1227291999967,405.6076145999832,405.61015129997395,405.62425389996497,405.62425389996497,405.62425389996497,406.5618281000061,Objects\040a.jpg,pre,o,0.9221538999699987,None,,,,,,,,,00039,001,2026-01-17_12h10.16.109,MST_test,2024.2.0,59.79080393623539,2026-01-17 12h10.33.354093 +0530,
125,0,126,n,1.1606586999841966,None,126,0,125,406.57839829998557,,,,,,,,,,,,,,,,,,,,,,,,,,,,,,,,,,,,,,,,,,,,,,,,,,406.56192840001313,406.57839829998557,407.062797999999,407.07241560000693,407.12971489998745,407.12971489998745,407.12971489998745,408.30156200000783,Foils\026a.jpg,none,n,1.1606586999841966,None,,,,,,,,,00039,001,2026-01-17_12h10.16.109,MST_test,2024.2.0,59.79080393623539,2026-01-17 12h10.33.354093 +0530,
126,0,127,o,1.1271632999996655,None,127,0,126,408.3168845999753,,,,,,,,,,,,,,,,,,,,,,,,,,,,,,,,,,,,,,,,,,,,,,,,,,408.3016566999722,408.3168845999753,408.80216809996637,408.8102575999801,408.8187500999775,408.8187500999775,408.8187500999775,409.95690950000426,Objects\209a.jpg,pre,o,1.1271632999996655,None,,,,,,,,,00039,001,2026-01-17_12h10.16.109,MST_test,2024.2.0,59.79080393623539,2026-01-17 12h10.33.354093 +0530,
127,0,128,o,1.0793439999688417,None,128,0,127,409.9728192000184,,,,,,,,,,,,,,,,,,,,,,,,,,,,,,,,,,,,,,,,,,,,,,,,,,409.9570148999919,409.9728192000184,410.4577736000065,410.47233059996506,410.4912510999711,410.4912510999711,410.4912510999711,411.5791772999801,Objects\264b.jpg,mid,o,1.0793439999688417,None,,,,,,,,,00039,001,2026-01-17_12h10.16.109,MST_test,2024.2.0,59.79080393623539,2026-01-17 12h10.33.354093 +0530,
128,0,129,o,0.8488449000287801,None,129,0,128,411.595170399989,,,,,,,,,,,,,,,,,,,,,,,,,,,,,,,,,,,,,,,,,,,,,,,,,,411.579270599992,411.595170399989,412.0801248999778,412.09069280000404,412.1135914999759,412.1135914999759,412.1135914999759,412.9672370000044,Objects\259a.jpg,mid,o,0.8488449000287801,None,,,,,,,,,00039,001,2026-01-17_12h10.16.109,MST_test,2024.2.0,59.79080393623539,2026-01-17 12h10.33.354093 +0530,
129,0,130,o,0.9416833000141196,None,130,0,129,412.98335439997027,,,,,,,,,,,,,,,,,,,,,,,,,,,,,,,,,,,,,,,,,,,,,,,,,,412.96733409998706,412.98335439997027,413.46842390001984,413.4764933999977,413.48456349998014,413.48456349998014,413.48456349998014,414.4389042999828,Objects\115a.jpg,post,o,0.9416833000141196,None,,,,,,,,,00039,001,2026-01-17_12h10.16.109,MST_test,2024.2.0,59.79080393623539,2026-01-17 12h10.33.354093 +0530,
130,0,131,s,1.1410882999771275,None,131,0,130,414.4551618999685,,,,,,,,,,,,,,,,,,,,,,,,,,,,,,,,,,,,,,,,,,,,,,,,,,414.4389993000077,414.4551618999685,414.9401717999717,414.9576394999749,414.9736203000066,414.9736203000066,414.9736203000066,416.1283784999978,Objects\330b.jpg,mid,s,1.1410882999771275,None,,,,,,,,,00039,001,2026-01-17_12h10.16.109,MST_test,2024.2.0,59.79080393623539,2026-01-17 12h10.33.354093 +0530,
131,0,132,s,1.267863799992483,None,132,0,131,416.1444114000187,,,,,,,,,,,,,,,,,,,,,,,,,,,,,,,,,,,,,,,,,,,,,,,,,,416.128469999996,416.1444114000187,416.6294306999771,416.6453512000153,416.66287130001,416.66287130001,416.66287130001,417.93463759997394,Objects\168b.jpg,mid,s,1.267863799992483,None,,,,,,,,,00039,001,2026-01-17_12h10.16.109,MST_test,2024.2.0,59.79080393623539,2026-01-17 12h10.33.354093 +0530,
132,0,133,s,1.037291800021194,None,133,0,132,417.9506313999882,,,,,,,,,,,,,,,,,,,,,,,,,,,,,,,,,,,,,,,,,,,,,,,,,,417.93473899998935,417.9506313999882,418.4369027999928,418.4524491999764,418.4694886999787,418.4694886999787,418.4694886999787,419.52348109998275,Objects\327b.jpg,pre,s,1.037291800021194,None,,,,,,,,,00039,001,2026-01-17_12h10.16.109,MST_test,2024.2.0,59.79080393623539,2026-01-17 12h10.33.354093 +0530,
133,0,134,s,2.216509699996095,None,134,0,133,419.5396865999792,,,,,,,,,,,,,,,,,,,,,,,,,,,,,,,,,,,,,,,,,,,,,,,,,,419.5235765000107,419.5396865999792,420.02490179997403,420.03346509998664,420.0581556999823,420.0581556999823,420.0581556999823,422.2831535000005,Objects\154a.jpg,post,s,2.216509699996095,None,,,,,,,,,00039,001,2026-01-17_12h10.16.109,MST_test,2024.2.0,59.79080393623539,2026-01-17 12h10.33.354093 +0530,
134,0,135,s,1.0894643000210635,None,135,0,134,422.299628400011,,,,,,,,,,,,,,,,,,,,,,,,,,,,,,,,,,,,,,,,,,,,,,,,,,422.2832464000094,422.299628400011,422.7844711000216,422.7943181999726,422.8177574999863,422.8177574999863,422.8177574999863,423.9223133000196,Objects\275b.jpg,mid,s,1.0894643000210635,None,,,,,,,,,00039,001,2026-01-17_12h10.16.109,MST_test,2024.2.0,59.79080393623539,2026-01-17 12h10.33.354093 +0530,
135,0,136,o,0.8507052999921143,None,136,0,135,423.93838439998217,,,,,,,,,,,,,,,,,,,,,,,,,,,,,,,,,,,,,,,,,,,,,,,,,,423.92240530002164,423.93838439998217,424.42346109997015,424.42602899996564,424.43997120001586,424.43997120001586,424.43997120001586,425.29354400001466,Objects\245a.jpg,post,o,0.8507052999921143,None,,,,,,,,,00039,001,2026-01-17_12h10.16.109,MST_test,2024.2.0,59.79080393623539,2026-01-17 12h10.33.354093 +0530,
136,0,137,s,2.701751200016588,None,137,0,136,425.30984529998386,,,,,,,,,,,,,,,,,,,,,,,,,,,,,,,,,,,,,,,,,,,,,,,,,,425.2936521000229,425.30984529998386,425.79496600001585,425.8083368000225,425.8284053999814,425.8284053999814,425.8284053999814,428.5384335999843,Objects\353b.jpg,post,s,2.701751200016588,None,,,,,,,,,00039,001,2026-01-17_12h10.16.109,MST_test,2024.2.0,59.79080393623539,2026-01-17 12h10.33.354093 +0530,
137,0,138,s,0.99350380001124,None,138,0,137,428.5544936999795,,,,,,,,,,,,,,,,,,,,,,,,,,,,,,,,,,,,,,,,,,,,,,,,,,428.5385307999677,428.5544936999795,429.0396617000224,429.0545953999972,429.0728766999673,429.0728766999673,429.0728766999673,430.0771097000106,Objects\117b.jpg,pre,s,0.99350380001124,None,,,,,,,,,00039,001,2026-01-17_12h10.16.109,MST_test,2024.2.0,59.79080393623539,2026-01-17 12h10.33.354093 +0530,
138,0,139,s,1.4865943000186235,None,139,0,138,430.0932768000057,,,,,,,,,,,,,,,,,,,,,,,,,,,,,,,,,,,,,,,,,,,,,,,,,,430.07720659999177,430.0932768000057,430.57824030000484,430.5880409000092,430.61170489998767,430.61170489998767,430.61170489998767,432.10086279996904,Objects\113b.jpg,post,s,1.4865943000186235,None,,,,,,,,,00039,001,2026-01-17_12h10.16.109,MST_test,2024.2.0,59.79080393623539,2026-01-17 12h10.33.354093 +0530,
139,0,140,o,0.9109423000481911,None,140,0,139,432.1170231999713,,,,,,,,,,,,,,,,,,,,,,,,,,,,,,,,,,,,,,,,,,,,,,,,,,432.1009573999909,432.1170231999713,432.6020351999905,432.6121204000083,432.63546169997426,432.63546169997426,432.63546169997426,433.5559177999967,Objects\180b.jpg,mid,o,0.9109423000481911,None,,,,,,,,,00039,001,2026-01-17_12h10.16.109,MST_test,2024.2.0,59.79080393623539,2026-01-17 12h10.33.354093 +0530,
140,0,141,o,1.0645608000340872,None,141,0,140,433.5721096000052,,,,,,,,,,,,,,,,,,,,,,,,,,,,,,,,,,,,,,,,,,,,,,,,,,433.55601309996564,433.5721096000052,434.0573448999785,434.06105259998003,434.07393919996684,434.07393919996684,434.07393919996684,435.1449497999856,Objects\311a.jpg,post,o,1.0645608000340872,None,,,,,,,,,00039,001,2026-01-17_12h10.16.109,MST_test,2024.2.0,59.79080393623539,2026-01-17 12h10.33.354093 +0530,
141,0,142,o,1.8840078000212088,None,142,0,141,435.16088959999615,,,,,,,,,,,,,,,,,,,,,,,,,,,,,,,,,,,,,,,,,,,,,,,,,,435.14504259999376,435.16088959999615,435.6463980000117,435.6494992999942,435.6628295999835,435.6628295999835,435.6628295999835,437.5532804999966,Objects\007a.jpg,pre,o,1.8840078000212088,None,,,,,,,,,00039,001,2026-01-17_12h10.16.109,MST_test,2024.2.0,59.79080393623539,2026-01-17 12h10.33.354093 +0530,
142,0,143,s,1.1706976999994367,None,143,0,142,437.5712175000226,,,,,,,,,,,,,,,,,,,,,,,,,,,,,,,,,,,,,,,,,,,,,,,,,,437.5533735000063,437.5712175000226,438.0547199000139,438.068654600007,438.08776580000995,438.08776580000995,438.08776580000995,439.2594562000013,Objects\242b.jpg,post,s,1.1706976999994367,None,,,,,,,,,00039,001,2026-01-17_12h10.16.109,MST_test,2024.2.0,59.79080393623539,2026-01-17 12h10.33.354093 +0530,
143,0,144,n,3.6491876000072807,None,144,0,143,439.275295200001,,,,,,,,,,,,,,,,,,,,,,,,,,,,,,,,,,,,,,,,,,,,,,,,,,439.2595480000018,439.275295200001,439.7605171999894,439.77508390002185,439.79373989999294,439.79373989999294,439.79373989999294,443.45722669997485,Foils\058a.jpg,none,n,3.6491876000072807,None,,,,,,,,,00039,001,2026-01-17_12h10.16.109,MST_test,2024.2.0,59.79080393623539,2026-01-17 12h10.33.354093 +0530,
144,0,145,o,5.275540800008457,None,145,0,144,443.47332260000985,,,,,,,,,,,,,,,,,,,,,,,,,,,,,,,,,,,,,,,,,,,,,,,,,,443.45731680002064,443.47332260000985,443.95874799997546,443.9612469999702,443.9753403000068,443.9753403000068,443.9753403000068,449.26070799998706,Objects\010a.jpg,mid,o,5.275540800008457,None,,,,,,,,,00039,001,2026-01-17_12h10.16.109,MST_test,2024.2.0,59.79080393623539,2026-01-17 12h10.33.354093 +0530,
145,0,146,o,1.0790397000382654,None,146,0,145,449.277159499994,,,,,,,,,,,,,,,,,,,,,,,,,,,,,,,,,,,,,,,,,,,,,,,,,,449.2608024000074,449.277159499994,449.7624985000002,449.77222889999393,449.79560319997836,449.79560319997836,449.79560319997836,450.8834174000076,Objects\248a.jpg,mid,o,1.0790397000382654,None,,,,,,,,,00039,001,2026-01-17_12h10.16.109,MST_test,2024.2.0,59.79080393623539,2026-01-17 12h10.33.354093 +0530,
146,0,147,o,1.2006437000236474,None,147,0,146,450.90011440002127,,,,,,,,,,,,,,,,,,,,,,,,,,,,,,,,,,,,,,,,,,,,,,,,,,450.88351770001464,450.90011440002127,451.38476210000226,451.39450809999835,451.4180401000194,451.4180401000194,451.4180401000194,452.6229655999923,Objects\196a.jpg,post,o,1.2006437000236474,None,,,,,,,,,00039,001,2026-01-17_12h10.16.109,MST_test,2024.2.0,59.79080393623539,2026-01-17 12h10.33.354093 +0530,
147,0,148,n,1.4291416000341997,None,148,0,147,452.63888799998676,,,,,,,,,,,,,,,,,,,,,,,,,,,,,,,,,,,,,,,,,,,,,,,,,,452.623061100021,452.63888799998676,453.12437560001854,453.13370760000544,453.1573249999783,453.1573249999783,453.1573249999783,454.59654960001353,Foils\018a.jpg,none,n,1.4291416000341997,None,,,,,,,,,00039,001,2026-01-17_12h10.16.109,MST_test,2024.2.0,59.79080393623539,2026-01-17 12h10.33.354093 +0530,
148,0,149,n,0.9278469000128098,None,149,0,148,454.6123453999753,,,,,,,,,,,,,,,,,,,,,,,,,,,,,,,,,,,,,,,,,,,,,,,,,,454.5966416000156,454.6123453999753,455.09814409998944,455.10834799997974,455.1308038000134,455.1308038000134,455.1308038000134,456.06834729999537,Foils\002a.jpg,none,n,0.9278469000128098,None,,,,,,,,,00039,001,2026-01-17_12h10.16.109,MST_test,2024.2.0,59.79080393623539,2026-01-17 12h10.33.354093 +0530,
149,0,150,o,1.1689808000228368,None,150,0,149,456.08428569999523,,,,,,,,,,,,,,,,,,,,,,,,,,,,,,,,,,,,,,,,,,,,,,,,,,456.0684449999826,456.08428569999523,456.56928009999683,456.5770240999991,456.58588229998713,456.58588229998713,456.58588229998713,457.7573417999665,Objects\356a.jpg,post,o,1.1689808000228368,None,,,,,,,,,00039,001,2026-01-17_12h10.16.109,MST_test,2024.2.0,59.79080393623539,2026-01-17 12h10.33.354093 +0530,
,,,,,,,,,,,,,,,,,,,,,,,,,,,,,,,,,,,,,,,,,,,,,,,,,,,,,,,,,,,,,,,,,,,,,,,,,457.7574038999737,457.7735135999974,457.7735135999974,460.0825261999853,space,2.2928361000376754,None,00039,001,2026-01-17_12h10.16.109,MST_test,2024.2.0,59.79080393623539,2026-01-17 12h10.33.354093 +0530,
