thisN,thisTrialN,thisRepN,key_resp_3.keys,key_resp_3.rt,key_resp_3.duration,trials.thisRepN,trials.thisTrialN,trials.thisN,thisRow.t,notes,intro_page.started,text.started,key_resp.started,intro_page.stopped,key_resp.keys,key_resp.rt,key_resp.duration,instructions.started,text_2.started,key_resp_2.started,instructions.stopped,key_resp_2.keys,key_resp_2.rt,key_resp_2.duration,demo1.started,image_1.started,image_2.started,text_7.started,key_resp_6.started,text_9.started,demo1.stopped,key_resp_6.keys,key_resp_6.rt,key_resp_6.duration,demo3.started,image_5.started,image_6.started,text_11.started,text_12.started,key_resp_8.started,demo3.stopped,key_resp_8.keys,key_resp_8.rt,key_resp_8.duration,demo_conclusion.started,text_13.started,key_resp_9.started,demo_conclusion.stopped,key_resp_9.keys,key_resp_9.rt,key_resp_9.duration,start_test.started,text_6.started,key_resp_5.started,start_test.stopped,key_resp_5.keys,key_resp_5.rt,key_resp_5.duration,ISI.started,text_4.started,text_4.stopped,ISI.stopped,routine_1.started,image.started,text_3.started,key_resp_3.started,routine_1.stopped,image_path,position_of_stimuli,trials.key_resp_3.keys,trials.key_resp_3.rt,trials.key_resp_3.duration,End_page.started,text_5.started,key_resp_4.started,End_page.stopped,key_resp_4.keys,key_resp_4.rt,key_resp_4.duration,participant,session,date,expName,psychopyVersion,frameRate,expStart,
,,,,,,,,,,,0.001112099998863414,0.0025796999980229884,0.0025796999980229884,4.081283099978464,space,4.072612600022694,None,,,,,,,,,,,,,,,,,,,,,,,,,,,,,,,,,,,,,,,,,,,,,,,,,,,,,,,,,,,,,,,00037,001,2026-01-17_11h06.07.125,MST_test,2024.2.0,60.003012149697476,2026-01-17 11h06.25.247320 +0530,
,,,,,,,,,,,,,,,,,,4.081320899975253,4.0957262000010815,4.0957262000010815,13.746683599980315,space,9.650369100010721,None,,,,,,,,,,,,,,,,,,,,,,,,,,,,,,,,,,,,,,,,,,,,,,,,,,,,,,,,00037,001,2026-01-17_11h06.07.125,MST_test,2024.2.0,60.003012149697476,2026-01-17 11h06.25.247320 +0530,
,,,,,,,,,,,,,,,,,,,,,,,,,13.746710499981418,13.76315999997314,13.76315999997314,13.76315999997314,13.76315999997314,13.76315999997314,17.463380499975756,space,3.6950901999953203,None,,,,,,,,,,,,,,,,,,,,,,,,,,,,,,,,,,,,,,,,,,,,,,00037,001,2026-01-17_11h06.07.125,MST_test,2024.2.0,60.003012149697476,2026-01-17 11h06.25.247320 +0530,
,,,,,,,,,,,,,,,,,,,,,,,,,,,,,,,,,,,17.463412699988112,17.479549599986058,17.479549599986058,17.479549599986058,17.479549599986058,17.479549599986058,21.313217099988833,space,3.8186264999967534,None,,,,,,,,,,,,,,,,,,,,,,,,,,,,,,,,,,,,00037,001,2026-01-17_11h06.07.125,MST_test,2024.2.0,60.003012149697476,2026-01-17 11h06.25.247320 +0530,
,,,,,,,,,,,,,,,,,,,,,,,,,,,,,,,,,,,,,,,,,,,,,21.313247099984437,21.32923979999032,21.32923979999032,33.29639809997752,space,11.960918099997798,None,,,,,,,,,,,,,,,,,,,,,,,,,,,,,00037,001,2026-01-17_11h06.07.125,MST_test,2024.2.0,60.003012149697476,2026-01-17 11h06.25.247320 +0530,
,,,,,,,,,,,,,,,,,,,,,,,,,,,,,,,,,,,,,,,,,,,,,,,,,,,,33.29643019998912,33.31590539999888,33.31590539999888,84.81322419998469,space,51.48657219999586,None,,,,,,,,,,,,,,,,,,,,,,00037,001,2026-01-17_11h06.07.125,MST_test,2024.2.0,60.003012149697476,2026-01-17 11h06.25.247320 +0530,
0,0,1,s,4.550017500005197,None,1,0,0,84.82899259999976,,,,,,,,,,,,,,,,,,,,,,,,,,,,,,,,,,,,,,,,,,,,,,,,,,84.81707579997601,84.82899259999976,85.33232529999805,85.3127783999953,85.33026399998926,85.33232529999805,85.33232529999805,85.33232529999805,89.89635409999755,Foils\082a.jpg,none,s,4.550017500005197,None,,,,,,,,00037,001,2026-01-17_11h06.07.125,MST_test,2024.2.0,60.003012149697476,2026-01-17 11h06.25.247320 +0530,
1,0,2,o,3.590308799990453,None,2,0,1,89.91239339997992,,,,,,,,,,,,,,,,,,,,,,,,,,,,,,,,,,,,,,,,,,,,,,,,,,89.8964452999935,89.91239339997992,90.4126984999748,90.39605759998085,90.40693459997419,90.4126984999748,90.4126984999748,90.4126984999748,94.01294549999875,Objects\145b.jpg,mid,o,3.590308799990453,None,,,,,,,,00037,001,2026-01-17_11h06.07.125,MST_test,2024.2.0,60.003012149697476,2026-01-17 11h06.25.247320 +0530,
2,0,3,n,4.369671699998435,None,3,0,2,94.02901629998814,,,,,,,,,,,,,,,,,,,,,,,,,,,,,,,,,,,,,,,,,,,,,,,,,,94.01303839997854,94.02901629998814,94.5292789999803,94.51286319998326,94.52307479997398,94.5292789999803,94.5292789999803,94.5292789999803,98.91304559999844,Objects\142b.jpg,mid,n,4.369671699998435,None,,,,,,,,00037,001,2026-01-17_11h06.07.125,MST_test,2024.2.0,60.003012149697476,2026-01-17 11h06.25.247320 +0530,
3,0,4,s,3.0849788000050467,None,4,0,3,98.9289873999951,,,,,,,,,,,,,,,,,,,,,,,,,,,,,,,,,,,,,,,,,,,,,,,,,,98.91313789997366,98.9289873999951,99.42940459999954,99.41294069998548,99.42468859997462,99.42940459999954,99.42940459999954,99.42940459999954,102.52963949998957,Foils\f6.jpg,none,s,3.0849788000050467,None,,,,,,,,00037,001,2026-01-17_11h06.07.125,MST_test,2024.2.0,60.003012149697476,2026-01-17 11h06.25.247320 +0530,
4,0,5,s,2.916192400007276,None,5,0,4,102.5457691999909,,,,,,,,,,,,,,,,,,,,,,,,,,,,,,,,,,,,,,,,,,,,,,,,,,102.52973729997757,102.5457691999909,103.04610629999661,103.02922859997489,103.03945069998736,103.04610629999661,103.04610629999661,103.04610629999661,105.96294429997215,Objects\115b.jpg,pre,s,2.916192400007276,None,,,,,,,,00037,001,2026-01-17_11h06.07.125,MST_test,2024.2.0,60.003012149697476,2026-01-17 11h06.25.247320 +0530,
5,0,6,o,2.219744300004095,None,6,0,5,105.9790987999877,,,,,,,,,,,,,,,,,,,,,,,,,,,,,,,,,,,,,,,,,,,,,,,,,,105.96303839999018,105.9790987999877,106.47947279998334,106.46269849999226,106.47214479997638,106.47947279998334,106.47947279998334,106.47947279998334,108.71320389999892,Objects\264b.jpg,pre,o,2.219744300004095,None,,,,,,,,00037,001,2026-01-17_11h06.07.125,MST_test,2024.2.0,60.003012149697476,2026-01-17 11h06.25.247320 +0530,
6,0,7,o,2.1335499999986496,None,7,0,6,108.72914599999785,,,,,,,,,,,,,,,,,,,,,,,,,,,,,,,,,,,,,,,,,,,,,,,,,,108.71329599997262,108.72914599999785,109.22945849999087,109.21293399998103,109.21687569998903,109.22945849999087,109.22945849999087,109.22945849999087,111.37963519999175,Objects\330a.jpg,mid,o,2.1335499999986496,None,,,,,,,,00037,001,2026-01-17_11h06.07.125,MST_test,2024.2.0,60.003012149697476,2026-01-17 11h06.25.247320 +0530,
7,0,8,s,2.1389044000243302,None,8,0,7,111.3959267999744,,,,,,,,,,,,,,,,,,,,,,,,,,,,,,,,,,,,,,,,,,,,,,,,,,111.37972539998009,111.3959267999744,111.89616039997782,111.87947739998344,111.88914709998062,111.89616039997782,111.89616039997782,111.89616039997782,114.04638939999859,Objects\103b.jpg,mid,s,2.1389044000243302,None,,,,,,,,00037,001,2026-01-17_11h06.07.125,MST_test,2024.2.0,60.003012149697476,2026-01-17 11h06.25.247320 +0530,
8,0,9,o,1.408048699988285,None,9,0,8,114.06243559997529,,,,,,,,,,,,,,,,,,,,,,,,,,,,,,,,,,,,,,,,,,,,,,,,,,114.04648959997576,114.06243559997529,114.56276539998362,114.54609920000075,114.54848009999841,114.56276539998362,114.56276539998362,114.56276539998362,115.97980239999015,Objects\179a.jpg,pre,o,1.408048699988285,None,,,,,,,,00037,001,2026-01-17_11h06.07.125,MST_test,2024.2.0,60.003012149697476,2026-01-17 11h06.25.247320 +0530,
9,0,10,n,1.7785594000015408,None,10,0,9,115.99584540000069,,,,,,,,,,,,,,,,,,,,,,,,,,,,,,,,,,,,,,,,,,,,,,,,,,115.97989119999693,115.99584540000069,116.49609539998346,116.47929769998882,116.48935709998477,116.49609539998346,116.49609539998346,116.49609539998346,118.27984239999205,Foils\010a.jpg,none,n,1.7785594000015408,None,,,,,,,,00037,001,2026-01-17_11h06.07.125,MST_test,2024.2.0,60.003012149697476,2026-01-17 11h06.25.247320 +0530,
10,0,11,o,1.5104045000043698,None,11,0,10,118.29579859998194,,,,,,,,,,,,,,,,,,,,,,,,,,,,,,,,,,,,,,,,,,,,,,,,,,118.2799384999962,118.29579859998194,118.79607539999415,118.7793731999991,118.78244319997611,118.79607539999415,118.79607539999415,118.79607539999415,120.31315609999001,Objects\095a.jpg,mid,o,1.5104045000043698,None,,,,,,,,00037,001,2026-01-17_11h06.07.125,MST_test,2024.2.0,60.003012149697476,2026-01-17 11h06.25.247320 +0530,
11,0,12,o,0.7976981999818236,None,12,0,11,120.32913899997948,,,,,,,,,,,,,,,,,,,,,,,,,,,,,,,,,,,,,,,,,,,,,,,,,,120.3132471999852,120.32913899997948,120.82931069997721,120.81300329999067,120.8222394999757,120.82931069997721,120.82931069997721,120.82931069997721,121.6296642999805,Objects\037b.jpg,mid,o,0.7976981999818236,None,,,,,,,,00037,001,2026-01-17_11h06.07.125,MST_test,2024.2.0,60.003012149697476,2026-01-17 11h06.25.247320 +0530,
12,0,13,s,4.1207394000084605,None,13,0,12,121.6459337999986,,,,,,,,,,,,,,,,,,,,,,,,,,,,,,,,,,,,,,,,,,,,,,,,,,121.6297571999894,121.6459337999986,122.14616439997917,122.12937329997658,122.14008569999714,122.14616439997917,122.14616439997917,122.14616439997917,126.27982509997673,Foils\105a.jpg,none,s,4.1207394000084605,None,,,,,,,,00037,001,2026-01-17_11h06.07.125,MST_test,2024.2.0,60.003012149697476,2026-01-17 11h06.25.247320 +0530,
13,0,14,o,12.094358700007433,None,14,0,13,126.29590040000039,,,,,,,,,,,,,,,,,,,,,,,,,,,,,,,,,,,,,,,,,,,,,,,,,,126.27991739998106,126.29590040000039,126.79625019998639,126.77954229997704,126.79183750000084,126.79625019998639,126.79625019998639,126.79625019998639,138.89628609997453,Objects\082b.jpg,post,o,12.094358700007433,None,,,,,,,,00037,001,2026-01-17_11h06.07.125,MST_test,2024.2.0,60.003012149697476,2026-01-17 11h06.25.247320 +0530,
14,0,15,o,2.581411699997261,None,15,0,14,138.91245899998466,,,,,,,,,,,,,,,,,,,,,,,,,,,,,,,,,,,,,,,,,,,,,,,,,,138.8963792999857,138.91245899998466,139.41271959998994,139.39613209999516,139.39929709999706,139.41271959998994,139.41271959998994,139.41271959998994,141.99644089999492,Objects\193a.jpg,pre,o,2.581411699997261,None,,,,,,,,00037,001,2026-01-17_11h06.07.125,MST_test,2024.2.0,60.003012149697476,2026-01-17 11h06.25.247320 +0530,
15,0,16,o,1.2255039000010584,None,16,0,15,142.01243289999547,,,,,,,,,,,,,,,,,,,,,,,,,,,,,,,,,,,,,,,,,,,,,,,,,,141.99653569998918,142.01243289999547,142.51268109999364,142.4961102999805,142.4987482999859,142.51268109999364,142.51268109999364,142.51268109999364,143.74642009998206,Objects\053a.jpg,post,o,1.2255039000010584,None,,,,,,,,00037,001,2026-01-17_11h06.07.125,MST_test,2024.2.0,60.003012149697476,2026-01-17 11h06.25.247320 +0530,
16,0,17,n,1.6923587000055704,None,17,0,16,143.762439299986,,,,,,,,,,,,,,,,,,,,,,,,,,,,,,,,,,,,,,,,,,,,,,,,,,143.74651199998334,143.762439299986,144.26269589998992,144.2462419999938,144.25581239999156,144.26269589998992,144.26269589998992,144.26269589998992,145.96300129999872,Foils\050a.jpg,none,n,1.6923587000055704,None,,,,,,,,00037,001,2026-01-17_11h06.07.125,MST_test,2024.2.0,60.003012149697476,2026-01-17 11h06.25.247320 +0530,
17,0,18,s,1.4270952000224497,None,18,0,17,145.97897759999614,,,,,,,,,,,,,,,,,,,,,,,,,,,,,,,,,,,,,,,,,,,,,,,,,,145.96309359997394,145.97897759999614,146.47936389999813,146.4626424999733,146.4728825999773,146.47936389999813,146.47936389999813,146.47936389999813,147.91321759999846,Objects\366b.jpg,pre,s,1.4270952000224497,None,,,,,,,,00037,001,2026-01-17_11h06.07.125,MST_test,2024.2.0,60.003012149697476,2026-01-17 11h06.25.247320 +0530,
18,0,19,s,2.0054756999888923,None,19,0,18,147.92914939997718,,,,,,,,,,,,,,,,,,,,,,,,,,,,,,,,,,,,,,,,,,,,,,,,,,147.91332039999543,147.92914939997718,148.42940759999328,148.41264819999924,148.42501329997322,148.42940759999328,148.42940759999328,148.42940759999328,150.44632819999242,Objects\043b.jpg,mid,s,2.0054756999888923,None,,,,,,,,00037,001,2026-01-17_11h06.07.125,MST_test,2024.2.0,60.003012149697476,2026-01-17 11h06.25.247320 +0530,
19,0,20,o,1.4161214999912772,None,20,0,19,150.4624815999996,,,,,,,,,,,,,,,,,,,,,,,,,,,,,,,,,,,,,,,,,,,,,,,,,,150.4464213999745,150.4624815999996,150.9626419999986,150.9460397999792,150.94853139997576,150.9626419999986,150.9626419999986,150.9626419999986,152.37945739997667,Objects\109a.jpg,post,o,1.4161214999912772,None,,,,,,,,00037,001,2026-01-17_11h06.07.125,MST_test,2024.2.0,60.003012149697476,2026-01-17 11h06.25.247320 +0530,
20,0,21,o,1.275354499986861,None,21,0,20,152.395803899999,,,,,,,,,,,,,,,,,,,,,,,,,,,,,,,,,,,,,,,,,,,,,,,,,,152.3795491999772,152.395803899999,152.89605889999075,152.87919879998663,152.88169179999386,152.89605889999075,152.89605889999075,152.89605889999075,154.17968629999086,Objects\009a.jpg,post,o,1.275354499986861,None,,,,,,,,00037,001,2026-01-17_11h06.07.125,MST_test,2024.2.0,60.003012149697476,2026-01-17 11h06.25.247320 +0530,
21,0,22,n,1.1951367000001483,None,22,0,21,154.19580039998982,,,,,,,,,,,,,,,,,,,,,,,,,,,,,,,,,,,,,,,,,,,,,,,,,,154.17977589997463,154.19580039998982,154.6960099999851,154.67942029997357,154.68895279997378,154.6960099999851,154.6960099999851,154.6960099999851,155.89638079999713,Foils\026a.jpg,none,n,1.1951367000001483,None,,,,,,,,00037,001,2026-01-17_11h06.07.125,MST_test,2024.2.0,60.003012149697476,2026-01-17 11h06.25.247320 +0530,
22,0,23,o,1.5416563999897335,None,23,0,22,155.9124500999751,,,,,,,,,,,,,,,,,,,,,,,,,,,,,,,,,,,,,,,,,,,,,,,,,,155.89647719997447,155.9124500999751,156.41294419998303,156.3961259999778,156.40509229997406,156.41294419998303,156.41294419998303,156.41294419998303,157.96304419997614,Objects\356b.jpg,post,o,1.5416563999897335,None,,,,,,,,00037,001,2026-01-17_11h06.07.125,MST_test,2024.2.0,60.003012149697476,2026-01-17 11h06.25.247320 +0530,
23,0,24,o,1.2356143000070006,None,24,0,23,157.9790715999843,,,,,,,,,,,,,,,,,,,,,,,,,,,,,,,,,,,,,,,,,,,,,,,,,,157.96313749998808,157.9790715999843,158.47927869998966,158.4629407999746,158.4722463999933,158.47927869998966,158.47927869998966,158.47927869998966,159.72956949999207,Objects\200b.jpg,pre,o,1.2356143000070006,None,,,,,,,,00037,001,2026-01-17_11h06.07.125,MST_test,2024.2.0,60.003012149697476,2026-01-17 11h06.25.247320 +0530,
24,0,25,o,1.3408949000004213,None,25,0,24,159.74594299998716,,,,,,,,,,,,,,,,,,,,,,,,,,,,,,,,,,,,,,,,,,,,,,,,,,159.72966219999944,159.74594299998716,160.24612989998423,160.2292679999955,160.23930489999475,160.24612989998423,160.24612989998423,160.24612989998423,161.59635579999303,Objects\086b.jpg,mid,o,1.3408949000004213,None,,,,,,,,00037,001,2026-01-17_11h06.07.125,MST_test,2024.2.0,60.003012149697476,2026-01-17 11h06.25.247320 +0530,
25,0,26,n,1.2339343999919947,None,26,0,25,161.61247549997643,,,,,,,,,,,,,,,,,,,,,,,,,,,,,,,,,,,,,,,,,,,,,,,,,,161.59644569997909,161.61247549997643,162.11280229999102,162.09607369999867,162.09887569997227,162.11280229999102,162.11280229999102,162.11280229999102,163.36305569999968,Objects\221a.jpg,pre,n,1.2339343999919947,None,,,,,,,,00037,001,2026-01-17_11h06.07.125,MST_test,2024.2.0,60.003012149697476,2026-01-17 11h06.25.247320 +0530,
26,0,27,n,1.7552068999793846,None,27,0,26,163.3790218999784,,,,,,,,,,,,,,,,,,,,,,,,,,,,,,,,,,,,,,,,,,,,,,,,,,163.36314639999182,163.3790218999784,163.87949179997668,163.86266189999878,163.87268069997663,163.87949179997668,163.87949179997668,163.87949179997668,165.646428499982,Foils\020b.jpg,none,n,1.7552068999793846,None,,,,,,,,00037,001,2026-01-17_11h06.07.125,MST_test,2024.2.0,60.003012149697476,2026-01-17 11h06.25.247320 +0530,
27,0,28,s,2.0405494000006,None,28,0,27,165.66252969999914,,,,,,,,,,,,,,,,,,,,,,,,,,,,,,,,,,,,,,,,,,,,,,,,,,165.64653129997896,165.66252969999914,166.162991899997,166.14616909998585,166.15681319998112,166.162991899997,166.162991899997,166.162991899997,168.21320969998487,Objects\309b.jpg,pre,s,2.0405494000006,None,,,,,,,,00037,001,2026-01-17_11h06.07.125,MST_test,2024.2.0,60.003012149697476,2026-01-17 11h06.25.247320 +0530,
28,0,29,o,5.720711600006325,None,29,0,28,168.22910820000106,,,,,,,,,,,,,,,,,,,,,,,,,,,,,,,,,,,,,,,,,,,,,,,,,,168.21330859998125,168.22910820000106,168.7294371999742,168.7126564999926,168.71529929997632,168.7294371999742,168.7294371999742,168.7294371999742,174.46309259999543,Objects\373a.jpg,pre,o,5.720711600006325,None,,,,,,,,00037,001,2026-01-17_11h06.07.125,MST_test,2024.2.0,60.003012149697476,2026-01-17 11h06.25.247320 +0530,
29,0,30,o,2.071026300021913,None,30,0,29,174.47898039998836,,,,,,,,,,,,,,,,,,,,,,,,,,,,,,,,,,,,,,,,,,,,,,,,,,174.46319939999375,174.47898039998836,174.97940369998105,174.9627617999795,174.97245279999333,174.97940369998105,174.97940369998105,174.97940369998105,177.0631436999829,Objects\336b.jpg,pre,o,2.071026300021913,None,,,,,,,,00037,001,2026-01-17_11h06.07.125,MST_test,2024.2.0,60.003012149697476,2026-01-17 11h06.25.247320 +0530,
30,0,31,o,1.9593929999973625,None,31,0,30,177.07898179997574,,,,,,,,,,,,,,,,,,,,,,,,,,,,,,,,,,,,,,,,,,,,,,,,,,177.0632406999939,177.07898179997574,177.57944129998214,177.562835299992,177.56598059998942,177.57944129998214,177.57944129998214,177.57944129998214,179.54630170000019,Objects\149a.jpg,post,o,1.9593929999973625,None,,,,,,,,00037,001,2026-01-17_11h06.07.125,MST_test,2024.2.0,60.003012149697476,2026-01-17 11h06.25.247320 +0530,
31,0,32,n,1.683550899993861,None,32,0,31,179.56247479998274,,,,,,,,,,,,,,,,,,,,,,,,,,,,,,,,,,,,,,,,,,,,,,,,,,179.54639389997465,179.56247479998274,180.06288569999742,180.04597649999778,180.0566185999778,180.06288569999742,180.06288569999742,180.06288569999742,181.76326509998762,Objects\322b.jpg,post,n,1.683550899993861,None,,,,,,,,00037,001,2026-01-17_11h06.07.125,MST_test,2024.2.0,60.003012149697476,2026-01-17 11h06.25.247320 +0530,
32,0,33,o,4.059627299982822,None,33,0,32,181.77898109998205,,,,,,,,,,,,,,,,,,,,,,,,,,,,,,,,,,,,,,,,,,,,,,,,,,181.7633603999857,181.77898109998205,182.27951579997898,182.26266729997587,182.27284539997345,182.27951579997898,182.27951579997898,182.27951579997898,186.34635529998923,Objects\026b.jpg,post,o,4.059627299982822,None,,,,,,,,00037,001,2026-01-17_11h06.07.125,MST_test,2024.2.0,60.003012149697476,2026-01-17 11h06.25.247320 +0530,
33,0,34,s,1.7318546999886166,None,34,0,33,186.3626664999756,,,,,,,,,,,,,,,,,,,,,,,,,,,,,,,,,,,,,,,,,,,,,,,,,,186.34644739999203,186.3626664999756,186.86284679998062,186.8460678999836,186.85806719999528,186.86284679998062,186.86284679998062,186.86284679998062,188.59656579999137,Objects\256b.jpg,post,s,1.7318546999886166,None,,,,,,,,00037,001,2026-01-17_11h06.07.125,MST_test,2024.2.0,60.003012149697476,2026-01-17 11h06.25.247320 +0530,
34,0,35,n,1.3777057000261266,None,35,0,34,188.61256159999175,,,,,,,,,,,,,,,,,,,,,,,,,,,,,,,,,,,,,,,,,,,,,,,,,,188.5966664000007,188.61256159999175,189.11283269998967,189.09605959997862,189.10610710000037,189.11283269998967,189.11283269998967,189.11283269998967,190.49631659997976,Foils\098a.jpg,none,n,1.3777057000261266,None,,,,,,,,00037,001,2026-01-17_11h06.07.125,MST_test,2024.2.0,60.003012149697476,2026-01-17 11h06.25.247320 +0530,
35,0,36,n,1.1183032999979332,None,36,0,35,190.51249889997416,,,,,,,,,,,,,,,,,,,,,,,,,,,,,,,,,,,,,,,,,,,,,,,,,,190.49640849998104,190.51249889997416,191.01262769999448,190.9959951999772,191.00508559998707,191.01262769999448,191.01262769999448,191.01262769999448,192.14637289999519,Foils\074a.jpg,none,n,1.1183032999979332,None,,,,,,,,00037,001,2026-01-17_11h06.07.125,MST_test,2024.2.0,60.003012149697476,2026-01-17 11h06.25.247320 +0530,
36,0,37,o,4.228053500002716,None,37,0,36,192.16246699998737,,,,,,,,,,,,,,,,,,,,,,,,,,,,,,,,,,,,,,,,,,,,,,,,,,192.14646789999097,192.16246699998737,192.66269649998867,192.6460962999845,192.65562139998656,192.66269649998867,192.66269649998867,192.66269649998867,196.89631609999924,Objects\164b.jpg,pre,o,4.228053500002716,None,,,,,,,,00037,001,2026-01-17_11h06.07.125,MST_test,2024.2.0,60.003012149697476,2026-01-17 11h06.25.247320 +0530,
37,0,38,o,1.0937852000060957,None,38,0,37,196.9124609999999,,,,,,,,,,,,,,,,,,,,,,,,,,,,,,,,,,,,,,,,,,,,,,,,,,196.89640819997294,196.9124609999999,197.41269349999493,197.39605319997645,197.3990635999944,197.41269349999493,197.41269349999493,197.41269349999493,198.51310409998405,Objects\099a.jpg,pre,o,1.0937852000060957,None,,,,,,,,00037,001,2026-01-17_11h06.07.125,MST_test,2024.2.0,60.003012149697476,2026-01-17 11h06.25.247320 +0530,
38,0,39,s,4.373624200001359,None,39,0,38,198.52899359998992,,,,,,,,,,,,,,,,,,,,,,,,,,,,,,,,,,,,,,,,,,,,,,,,,,198.5132050999964,198.52899359998992,199.02928529999917,199.0127508000005,199.01532249999582,199.02928529999917,199.02928529999917,199.02928529999917,203.41309079999337,Objects\173a.jpg,post,s,4.373624200001359,None,,,,,,,,00037,001,2026-01-17_11h06.07.125,MST_test,2024.2.0,60.003012149697476,2026-01-17 11h06.25.247320 +0530,
39,0,40,o,1.0413037999824155,None,40,0,39,203.4289658999769,,,,,,,,,,,,,,,,,,,,,,,,,,,,,,,,,,,,,,,,,,,,,,,,,,203.41321299999254,203.4289658999769,203.92946039998787,203.91272269998444,203.922880899976,203.92946039998787,203.92946039998787,203.92946039998787,204.97986249998212,Objects\354b.jpg,pre,o,1.0413037999824155,None,,,,,,,,00037,001,2026-01-17_11h06.07.125,MST_test,2024.2.0,60.003012149697476,2026-01-17 11h06.25.247320 +0530,
40,0,41,n,0.9788291000004392,None,41,0,40,204.99591139997938,,,,,,,,,,,,,,,,,,,,,,,,,,,,,,,,,,,,,,,,,,,,,,,,,,204.97996279998915,204.99591139997938,205.49612060000072,205.47927579999669,205.48928089998662,205.49612060000072,205.49612060000072,205.49612060000072,206.4795755999803,Foils\106a.jpg,none,n,0.9788291000004392,None,,,,,,,,00037,001,2026-01-17_11h06.07.125,MST_test,2024.2.0,60.003012149697476,2026-01-17 11h06.25.247320 +0530,
41,0,42,n,1.0302274999849033,None,42,0,41,206.49580599999172,,,,,,,,,,,,,,,,,,,,,,,,,,,,,,,,,,,,,,,,,,,,,,,,,,206.47966709997854,206.49580599999172,206.99606739997398,206.97939049999695,206.9887877999863,206.99606739997398,206.99606739997398,206.99606739997398,208.02966329999617,Objects\022b.jpg,post,n,1.0302274999849033,None,,,,,,,,00037,001,2026-01-17_11h06.07.125,MST_test,2024.2.0,60.003012149697476,2026-01-17 11h06.25.247320 +0530,
42,0,43,o,1.3450920999748632,None,43,0,42,208.0458136999805,,,,,,,,,,,,,,,,,,,,,,,,,,,,,,,,,,,,,,,,,,,,,,,,,,208.02975809999043,208.0458136999805,208.54600519998348,208.5293423999974,208.53210129999206,208.54600519998348,208.54600519998348,208.54600519998348,209.89641679998022,Objects\118a.jpg,mid,o,1.3450920999748632,None,,,,,,,,00037,001,2026-01-17_11h06.07.125,MST_test,2024.2.0,60.003012149697476,2026-01-17 11h06.25.247320 +0530,
43,0,44,s,2.5103999999992084,None,44,0,43,209.91247349997866,,,,,,,,,,,,,,,,,,,,,,,,,,,,,,,,,,,,,,,,,,,,,,,,,,209.89650569998776,209.91247349997866,210.41267459999654,210.39608159998897,210.3984622999851,210.41267459999654,210.41267459999654,210.41267459999654,212.92958469997393,Objects\175a.jpg,mid,s,2.5103999999992084,None,,,,,,,,00037,001,2026-01-17_11h06.07.125,MST_test,2024.2.0,60.003012149697476,2026-01-17 11h06.25.247320 +0530,
44,0,45,s,1.900220099982107,None,45,0,44,212.9458195999905,,,,,,,,,,,,,,,,,,,,,,,,,,,,,,,,,,,,,,,,,,,,,,,,,,212.9296809999796,212.9458195999905,213.4459727999929,213.4292693999887,213.43863029999193,213.4459727999929,213.4459727999929,213.4459727999929,215.36290439998265,Objects\019b.jpg,post,s,1.900220099982107,None,,,,,,,,00037,001,2026-01-17_11h06.07.125,MST_test,2024.2.0,60.003012149697476,2026-01-17 11h06.25.247320 +0530,
45,0,46,o,3.1083358000032604,None,46,0,45,215.37898519998998,,,,,,,,,,,,,,,,,,,,,,,,,,,,,,,,,,,,,,,,,,,,,,,,,,215.36299470000085,215.37898519998998,215.8792125999753,215.86265269998694,215.86492849999922,215.8792125999753,215.8792125999753,215.8792125999753,218.9966864999733,Objects\177a.jpg,post,o,3.1083358000032604,None,,,,,,,,00037,001,2026-01-17_11h06.07.125,MST_test,2024.2.0,60.003012149697476,2026-01-17 11h06.25.247320 +0530,
46,0,47,o,1.5383173000009265,None,47,0,46,219.01267169998027,,,,,,,,,,,,,,,,,,,,,,,,,,,,,,,,,,,,,,,,,,,,,,,,,,218.99678879999556,219.01267169998027,219.51269279999542,219.49608849998913,219.49857809999958,219.51269279999542,219.51269279999542,219.51269279999542,221.0630968999758,Objects\156a.jpg,post,o,1.5383173000009265,None,,,,,,,,00037,001,2026-01-17_11h06.07.125,MST_test,2024.2.0,60.003012149697476,2026-01-17 11h06.25.247320 +0530,
47,0,48,o,0.8471130999969319,None,48,0,47,221.07901909999782,,,,,,,,,,,,,,,,,,,,,,,,,,,,,,,,,,,,,,,,,,,,,,,,,,221.0631925999769,221.07901909999782,221.57922729998245,221.5626461999782,221.56494459998794,221.57922729998245,221.57922729998245,221.57922729998245,222.42965989999357,Objects\190a.jpg,post,o,0.8471130999969319,None,,,,,,,,00037,001,2026-01-17_11h06.07.125,MST_test,2024.2.0,60.003012149697476,2026-01-17 11h06.25.247320 +0530,
48,0,49,o,0.8405263000167906,None,49,0,48,222.44581189999008,,,,,,,,,,,,,,,,,,,,,,,,,,,,,,,,,,,,,,,,,,,,,,,,,,222.42975459998706,222.44581189999008,222.94595399999525,222.92924859997584,222.93152999997255,222.94595399999525,222.94595399999525,222.94595399999525,223.79635789999156,Objects\245a.jpg,pre,o,0.8405263000167906,None,,,,,,,,00037,001,2026-01-17_11h06.07.125,MST_test,2024.2.0,60.003012149697476,2026-01-17 11h06.25.247320 +0530,
49,0,50,n,2.4179104000213556,None,50,0,49,223.81245739999576,,,,,,,,,,,,,,,,,,,,,,,,,,,,,,,,,,,,,,,,,,,,,,,,,,223.79645129997516,223.81245739999576,224.31266259998665,224.29599709998,224.30544769999688,224.31266259998665,224.31266259998665,224.31266259998665,226.74629069998628,Objects\001b.jpg,pre,n,2.4179104000213556,None,,,,,,,,00037,001,2026-01-17_11h06.07.125,MST_test,2024.2.0,60.003012149697476,2026-01-17 11h06.25.247320 +0530,
50,0,51,s,1.5555326000030618,None,51,0,50,226.7624576999806,,,,,,,,,,,,,,,,,,,,,,,,,,,,,,,,,,,,,,,,,,,,,,,,,,226.74638489997596,226.7624576999806,227.26282369997352,227.2461265999882,227.2560850000009,227.26282369997352,227.26282369997352,227.26282369997352,228.82975799997803,Objects\252b.jpg,post,s,1.5555326000030618,None,,,,,,,,00037,001,2026-01-17_11h06.07.125,MST_test,2024.2.0,60.003012149697476,2026-01-17 11h06.25.247320 +0530,
51,0,52,o,1.376073899999028,None,52,0,51,228.84593949999544,,,,,,,,,,,,,,,,,,,,,,,,,,,,,,,,,,,,,,,,,,,,,,,,,,228.82985079998616,228.84593949999544,229.3463087999844,229.32962209999096,229.33283109997865,229.3463087999844,229.3463087999844,229.3463087999844,230.72984449999058,Objects\260a.jpg,pre,o,1.376073899999028,None,,,,,,,,00037,001,2026-01-17_11h06.07.125,MST_test,2024.2.0,60.003012149697476,2026-01-17 11h06.25.247320 +0530,
52,0,53,o,1.140547399991192,None,53,0,52,230.74594219998107,,,,,,,,,,,,,,,,,,,,,,,,,,,,,,,,,,,,,,,,,,,,,,,,,,230.72993649999262,230.74594219998107,231.24634169999626,231.2295023999759,231.23244349999004,231.24634169999626,231.24634169999626,231.24634169999626,232.39658589998726,Objects\287a.jpg,mid,o,1.140547399991192,None,,,,,,,,00037,001,2026-01-17_11h06.07.125,MST_test,2024.2.0,60.003012149697476,2026-01-17 11h06.25.247320 +0530,
53,0,54,n,1.1618515999871306,None,54,0,53,232.41260779998265,,,,,,,,,,,,,,,,,,,,,,,,,,,,,,,,,,,,,,,,,,,,,,,,,,232.39667779998854,232.41260779998265,232.91302359997644,232.89615200000117,232.9065860999981,232.91302359997644,232.91302359997644,232.91302359997644,234.07995299997856,Foils\090a.jpg,none,n,1.1618515999871306,None,,,,,,,,00037,001,2026-01-17_11h06.07.125,MST_test,2024.2.0,60.003012149697476,2026-01-17 11h06.25.247320 +0530,
54,0,55,n,0.9183272000227589,None,55,0,54,234.09590809998917,,,,,,,,,,,,,,,,,,,,,,,,,,,,,,,,,,,,,,,,,,,,,,,,,,234.0800418999861,234.09590809998917,234.5961871999898,234.57951679997495,234.58890959998826,234.5961871999898,234.5961871999898,234.5961871999898,235.529892999999,Objects\023b.jpg,mid,n,0.9183272000227589,None,,,,,,,,00037,001,2026-01-17_11h06.07.125,MST_test,2024.2.0,60.003012149697476,2026-01-17 11h06.25.247320 +0530,
55,0,56,s,1.8042247999983374,None,56,0,55,235.5459458999976,,,,,,,,,,,,,,,,,,,,,,,,,,,,,,,,,,,,,,,,,,,,,,,,,,235.52998279998428,235.5459458999976,236.04616539998096,236.02939269997296,236.03955749998568,236.04616539998096,236.04616539998096,236.04616539998096,237.86303379997844,Objects\189b.jpg,post,s,1.8042247999983374,None,,,,,,,,00037,001,2026-01-17_11h06.07.125,MST_test,2024.2.0,60.003012149697476,2026-01-17 11h06.25.247320 +0530,
56,0,57,n,1.1274585999781266,None,57,0,56,237.8792391999741,,,,,,,,,,,,,,,,,,,,,,,,,,,,,,,,,,,,,,,,,,,,,,,,,,237.86312609998276,237.8792391999741,238.37956219998887,238.36277059998247,238.37259879999328,238.37956219998887,238.37956219998887,238.37956219998887,239.5132195999904,Foils\009a.jpg,none,n,1.1274585999781266,None,,,,,,,,00037,001,2026-01-17_11h06.07.125,MST_test,2024.2.0,60.003012149697476,2026-01-17 11h06.25.247320 +0530,
57,0,58,o,2.19717510000919,None,58,0,57,239.52942509998684,,,,,,,,,,,,,,,,,,,,,,,,,,,,,,,,,,,,,,,,,,,,,,,,,,239.5133142999839,239.52942509998684,240.02950609999243,240.0127696999989,240.0151985999837,240.02950609999243,240.02950609999243,240.02950609999243,242.23009169998113,Objects\364a.jpg,pre,o,2.19717510000919,None,,,,,,,,00037,001,2026-01-17_11h06.07.125,MST_test,2024.2.0,60.003012149697476,2026-01-17 11h06.25.247320 +0530,
58,0,59,s,3.2246620999940205,None,59,0,58,242.24590939999325,,,,,,,,,,,,,,,,,,,,,,,,,,,,,,,,,,,,,,,,,,,,,,,,,,242.2301864999754,242.24590939999325,242.74622849997832,242.72969859998557,242.73933909999323,242.74622849997832,242.74622849997832,242.74622849997832,245.97992939999676,Objects\020b.jpg,post,s,3.2246620999940205,None,,,,,,,,00037,001,2026-01-17_11h06.07.125,MST_test,2024.2.0,60.003012149697476,2026-01-17 11h06.25.247320 +0530,
59,0,60,n,0.9946219999983441,None,60,0,59,245.99594659998547,,,,,,,,,,,,,,,,,,,,,,,,,,,,,,,,,,,,,,,,,,,,,,,,,,245.98002339998493,245.99594659998547,246.4960921999882,246.4794640999753,246.48998559999745,246.4960921999882,246.4960921999882,246.4960921999882,247.4963917999994,Objects\083b.jpg,pre,n,0.9946219999983441,None,,,,,,,,00037,001,2026-01-17_11h06.07.125,MST_test,2024.2.0,60.003012149697476,2026-01-17 11h06.25.247320 +0530,
60,0,61,n,0.9901745000097435,None,61,0,60,247.51257739998982,,,,,,,,,,,,,,,,,,,,,,,,,,,,,,,,,,,,,,,,,,,,,,,,,,247.49648429997615,247.51257739998982,248.0128459999978,247.9961464999942,248.00607889998355,248.0128459999978,248.0128459999978,248.0128459999978,249.01324749999912,Foils\081a.jpg,none,n,0.9901745000097435,None,,,,,,,,00037,001,2026-01-17_11h06.07.125,MST_test,2024.2.0,60.003012149697476,2026-01-17 11h06.25.247320 +0530,
61,0,62,s,3.144998300005682,None,62,0,61,249.02918809998664,,,,,,,,,,,,,,,,,,,,,,,,,,,,,,,,,,,,,,,,,,,,,,,,,,249.01334519998636,249.02918809998664,249.52951579997898,249.51297029998386,249.52307959998143,249.52951579997898,249.52951579997898,249.52951579997898,252.68025439998019,Objects\088b.jpg,pre,s,3.144998300005682,None,,,,,,,,00037,001,2026-01-17_11h06.07.125,MST_test,2024.2.0,60.003012149697476,2026-01-17 11h06.25.247320 +0530,
62,0,63,s,1.5668405999895185,None,63,0,62,252.695925899985,,,,,,,,,,,,,,,,,,,,,,,,,,,,,,,,,,,,,,,,,,,,,,,,,,252.68035339997732,252.695925899985,253.19612859998597,253.17952259999583,253.18949879999855,253.19612859998597,253.19612859998597,253.19612859998597,254.77996219997294,Objects\178b.jpg,mid,s,1.5668405999895185,None,,,,,,,,00037,001,2026-01-17_11h06.07.125,MST_test,2024.2.0,60.003012149697476,2026-01-17 11h06.25.247320 +0530,
63,0,64,o,2.586062199989101,None,64,0,63,254.79592409997713,,,,,,,,,,,,,,,,,,,,,,,,,,,,,,,,,,,,,,,,,,,,,,,,,,254.78005359999952,254.79592409997713,255.29621789997327,255.27976289999788,255.28272029999061,255.29621789997327,255.29621789997327,255.29621789997327,257.89650109998183,Objects\152a.jpg,post,o,2.586062199989101,None,,,,,,,,00037,001,2026-01-17_11h06.07.125,MST_test,2024.2.0,60.003012149697476,2026-01-17 11h06.25.247320 +0530,
64,0,65,o,0.9897092999890447,None,65,0,64,257.91262749998714,,,,,,,,,,,,,,,,,,,,,,,,,,,,,,,,,,,,,,,,,,,,,,,,,,257.896592199977,257.91262749998714,258.4126880999829,258.3961088999931,258.39840169998934,258.4126880999829,258.4126880999829,258.4126880999829,259.4131636999955,Objects\056a.jpg,mid,o,0.9897092999890447,None,,,,,,,,00037,001,2026-01-17_11h06.07.125,MST_test,2024.2.0,60.003012149697476,2026-01-17 11h06.25.247320 +0530,
65,0,66,s,1.7456257999874651,None,66,0,65,259.4292489999789,,,,,,,,,,,,,,,,,,,,,,,,,,,,,,,,,,,,,,,,,,,,,,,,,,259.4132534999808,259.4292489999789,259.929667599994,259.91279849997954,259.9180779999879,259.929667599994,259.929667599994,259.929667599994,261.67975769998156,Objects\303a.jpg,mid,s,1.7456257999874651,None,,,,,,,,00037,001,2026-01-17_11h06.07.125,MST_test,2024.2.0,60.003012149697476,2026-01-17 11h06.25.247320 +0530,
66,0,67,s,1.9031094000092708,None,67,0,66,261.6958135999739,,,,,,,,,,,,,,,,,,,,,,,,,,,,,,,,,,,,,,,,,,,,,,,,,,261.6798561999749,261.6958135999739,262.1963437999948,262.17945299998973,262.1896838999819,262.1963437999948,262.1963437999948,262.1963437999948,264.113068799983,Foils\086a.jpg,none,s,1.9031094000092708,None,,,,,,,,00037,001,2026-01-17_11h06.07.125,MST_test,2024.2.0,60.003012149697476,2026-01-17 11h06.25.247320 +0530,
67,0,68,s,1.2935682999959681,None,68,0,67,264.129234299995,,,,,,,,,,,,,,,,,,,,,,,,,,,,,,,,,,,,,,,,,,,,,,,,,,264.1131591000012,264.129234299995,264.6297460999922,264.61287749998155,264.62265529998695,264.6297460999922,264.6297460999922,264.6297460999922,265.929801899998,Objects\325b.jpg,mid,s,1.2935682999959681,None,,,,,,,,00037,001,2026-01-17_11h06.07.125,MST_test,2024.2.0,60.003012149697476,2026-01-17 11h06.25.247320 +0530,
68,0,69,n,0.9240672999876551,None,69,0,68,265.9459129999741,,,,,,,,,,,,,,,,,,,,,,,,,,,,,,,,,,,,,,,,,,,,,,,,,,265.9299031999835,265.9459129999741,266.44631829997525,266.42969439999433,266.44073079997906,266.44631829997525,266.44631829997525,266.44631829997525,267.37993070000084,Foils\101b.jpg,none,n,0.9240672999876551,None,,,,,,,,00037,001,2026-01-17_11h06.07.125,MST_test,2024.2.0,60.003012149697476,2026-01-17 11h06.25.247320 +0530,
69,0,70,o,0.9543873999791685,None,70,0,69,267.3958827999886,,,,,,,,,,,,,,,,,,,,,,,,,,,,,,,,,,,,,,,,,,,,,,,,,,267.3800243999867,267.3958827999886,267.89616499998374,267.8794544999837,267.88220769999316,267.89616499998374,267.89616499998374,267.89616499998374,268.8630855999945,Objects\341a.jpg,pre,o,0.9543873999791685,None,,,,,,,,00037,001,2026-01-17_11h06.07.125,MST_test,2024.2.0,60.003012149697476,2026-01-17 11h06.25.247320 +0530,
70,0,71,o,4.742660599993542,None,71,0,70,268.8792635999853,,,,,,,,,,,,,,,,,,,,,,,,,,,,,,,,,,,,,,,,,,,,,,,,,,268.86317549998057,268.8792635999853,269.379471799999,269.3628309999767,269.3722292999737,269.379471799999,269.379471799999,269.379471799999,274.1297421999916,Objects\080b.jpg,pre,o,4.742660599993542,None,,,,,,,,00037,001,2026-01-17_11h06.07.125,MST_test,2024.2.0,60.003012149697476,2026-01-17 11h06.25.247320 +0530,
71,0,72,o,1.4696524000028148,None,72,0,71,274.1459391999815,,,,,,,,,,,,,,,,,,,,,,,,,,,,,,,,,,,,,,,,,,,,,,,,,,274.12983669998357,274.1459391999815,274.64619519998087,274.6297364999773,274.63239499999327,274.64619519998087,274.64619519998087,274.64619519998087,276.1297049999994,Objects\273a.jpg,mid,o,1.4696524000028148,None,,,,,,,,00037,001,2026-01-17_11h06.07.125,MST_test,2024.2.0,60.003012149697476,2026-01-17 11h06.25.247320 +0530,
72,0,73,s,3.5893117999949027,None,73,0,72,276.1458868999907,,,,,,,,,,,,,,,,,,,,,,,,,,,,,,,,,,,,,,,,,,,,,,,,,,276.1298045000003,276.1458868999907,276.6460564000008,276.62948049997794,276.63225019999663,276.6460564000008,276.6460564000008,276.6460564000008,280.2465356999892,Objects\102a.jpg,mid,s,3.5893117999949027,None,,,,,,,,00037,001,2026-01-17_11h06.07.125,MST_test,2024.2.0,60.003012149697476,2026-01-17 11h06.25.247320 +0530,
73,0,74,n,1.0632318999851122,None,74,0,73,280.26257939997595,,,,,,,,,,,,,,,,,,,,,,,,,,,,,,,,,,,,,,,,,,,,,,,,,,280.2466233999876,280.26257939997595,280.7629882999754,280.74637019998045,280.75544009997975,280.7629882999754,280.7629882999754,280.7629882999754,281.82970779997413,Foils\f5.jpg,none,n,1.0632318999851122,None,,,,,,,,00037,001,2026-01-17_11h06.07.125,MST_test,2024.2.0,60.003012149697476,2026-01-17 11h06.25.247320 +0530,
74,0,75,o,0.9046565000026021,None,75,0,74,281.84594749999815,,,,,,,,,,,,,,,,,,,,,,,,,,,,,,,,,,,,,,,,,,,,,,,,,,281.8297970999847,281.84594749999815,282.3462531999976,282.3294918999891,282.33261169999605,282.3462531999976,282.3462531999976,282.3462531999976,283.2632601999794,Objects\345a.jpg,post,o,0.9046565000026021,None,,,,,,,,00037,001,2026-01-17_11h06.07.125,MST_test,2024.2.0,60.003012149697476,2026-01-17 11h06.25.247320 +0530,
75,0,76,o,1.3350136000080965,None,76,0,75,283.2792187999876,,,,,,,,,,,,,,,,,,,,,,,,,,,,,,,,,,,,,,,,,,,,,,,,,,283.2633515999769,283.2792187999876,283.77922299999045,283.762828899984,283.7722232999804,283.77922299999045,283.77922299999045,283.77922299999045,285.1297074999893,Foils\066a.jpg,none,o,1.3350136000080965,None,,,,,,,,00037,001,2026-01-17_11h06.07.125,MST_test,2024.2.0,60.003012149697476,2026-01-17 11h06.25.247320 +0530,
76,0,77,o,1.6445984000165481,None,77,0,76,285.14592119998997,,,,,,,,,,,,,,,,,,,,,,,,,,,,,,,,,,,,,,,,,,,,,,,,,,285.1298024999851,285.14592119998997,285.64634479998494,285.62954209998134,285.63304909999715,285.64634479998494,285.64634479998494,285.64634479998494,287.29645809999784,Objects\238a.jpg,mid,o,1.6445984000165481,None,,,,,,,,00037,001,2026-01-17_11h06.07.125,MST_test,2024.2.0,60.003012149697476,2026-01-17 11h06.25.247320 +0530,
77,0,78,o,2.7181927999772597,None,78,0,77,287.3125033999968,,,,,,,,,,,,,,,,,,,,,,,,,,,,,,,,,,,,,,,,,,,,,,,,,,287.2965500999999,287.3125033999968,287.81291819998296,287.79610589999356,287.8068806999945,287.81291819998296,287.81291819998296,287.81291819998296,290.5464167999744,Objects\182b.jpg,post,o,2.7181927999772597,None,,,,,,,,00037,001,2026-01-17_11h06.07.125,MST_test,2024.2.0,60.003012149697476,2026-01-17 11h06.25.247320 +0530,
78,0,79,o,0.8764776999887545,None,79,0,78,290.56243109999923,,,,,,,,,,,,,,,,,,,,,,,,,,,,,,,,,,,,,,,,,,,,,,,,,,290.5465072999941,290.56243109999923,291.0626887999824,291.0460317999823,291.0483799999929,291.0626887999824,291.0626887999824,291.0626887999824,291.9463904000004,Objects\035a.jpg,pre,o,0.8764776999887545,None,,,,,,,,00037,001,2026-01-17_11h06.07.125,MST_test,2024.2.0,60.003012149697476,2026-01-17 11h06.25.247320 +0530,
79,0,80,o,0.8846753999823704,None,80,0,79,291.9624841999903,,,,,,,,,,,,,,,,,,,,,,,,,,,,,,,,,,,,,,,,,,,,,,,,,,291.9464795999811,291.9624841999903,292.46269699998084,292.4460855999787,292.44834949998767,292.46269699998084,292.46269699998084,292.46269699998084,293.3631583999959,Objects\305a.jpg,mid,o,0.8846753999823704,None,,,,,,,,00037,001,2026-01-17_11h06.07.125,MST_test,2024.2.0,60.003012149697476,2026-01-17 11h06.25.247320 +0530,
80,0,81,o,1.0274617999966722,None,81,0,80,293.37911339997663,,,,,,,,,,,,,,,,,,,,,,,,,,,,,,,,,,,,,,,,,,,,,,,,,,293.36325080000097,293.37911339997663,293.87922869998147,293.8626946999866,293.8651810999727,293.87922869998147,293.87922869998147,293.87922869998147,294.9138259999745,Objects\111a.jpg,post,o,1.0274617999966722,None,,,,,,,,00037,001,2026-01-17_11h06.07.125,MST_test,2024.2.0,60.003012149697476,2026-01-17 11h06.25.247320 +0530,
81,0,82,n,1.0777444999839645,None,82,0,81,294.9290949999995,,,,,,,,,,,,,,,,,,,,,,,,,,,,,,,,,,,,,,,,,,,,,,,,,,294.91391669999575,294.9290949999995,295.4292750999739,295.41289629999665,295.4227194999985,295.4292750999739,295.4292750999739,295.4292750999739,296.51318639999954,Foils\033a.jpg,none,n,1.0777444999839645,None,,,,,,,,00037,001,2026-01-17_11h06.07.125,MST_test,2024.2.0,60.003012149697476,2026-01-17 11h06.25.247320 +0530,
82,0,83,n,1.1650864999974146,None,83,0,82,296.5291038999858,,,,,,,,,,,,,,,,,,,,,,,,,,,,,,,,,,,,,,,,,,,,,,,,,,296.5132765999879,296.5291038999858,297.0292081999942,297.01275299998815,297.02259569999296,297.0292081999942,297.0292081999942,297.0292081999942,298.1964705999999,Objects\027b.jpg,mid,n,1.1650864999974146,None,,,,,,,,00037,001,2026-01-17_11h06.07.125,MST_test,2024.2.0,60.003012149697476,2026-01-17 11h06.25.247320 +0530,
83,0,84,o,1.4176766999880783,None,84,0,83,298.21243769998546,,,,,,,,,,,,,,,,,,,,,,,,,,,,,,,,,,,,,,,,,,,,,,,,,,298.19656739998027,298.21243769998546,298.71266459999606,298.69607119998545,298.70562809999683,298.71266459999606,298.71266459999606,298.71266459999606,300.14654560000054,Objects\078b.jpg,pre,o,1.4176766999880783,None,,,,,,,,00037,001,2026-01-17_11h06.07.125,MST_test,2024.2.0,60.003012149697476,2026-01-17 11h06.25.247320 +0530,
84,0,85,o,1.3553441999829374,None,85,0,84,300.1625323999906,,,,,,,,,,,,,,,,,,,,,,,,,,,,,,,,,,,,,,,,,,,,,,,,,,300.1466390999849,300.1625323999906,300.66289659999893,300.646193099994,300.6487777000002,300.66289659999893,300.66289659999893,300.66289659999893,302.02957229997264,Objects\269a.jpg,mid,o,1.3553441999829374,None,,,,,,,,00037,001,2026-01-17_11h06.07.125,MST_test,2024.2.0,60.003012149697476,2026-01-17 11h06.25.247320 +0530,
85,0,86,s,1.3281210999994073,None,86,0,85,302.04583889999776,,,,,,,,,,,,,,,,,,,,,,,,,,,,,,,,,,,,,,,,,,,,,,,,,,302.0296675999998,302.04583889999776,302.54618359997403,302.52942869998515,302.5393729999778,302.54618359997403,302.54618359997403,302.54618359997403,303.87961859998177,Objects\007b.jpg,mid,s,1.3281210999994073,None,,,,,,,,00037,001,2026-01-17_11h06.07.125,MST_test,2024.2.0,60.003012149697476,2026-01-17 11h06.25.247320 +0530,
86,0,87,n,0.9348192000179552,None,87,0,86,303.8958362999838,,,,,,,,,,,,,,,,,,,,,,,,,,,,,,,,,,,,,,,,,,,,,,,,,,303.8797085999977,303.8958362999838,304.39606799997273,304.3792932999786,304.3901227999886,304.39606799997273,304.39606799997273,304.39606799997273,305.34641889997874,Objects\062b.jpg,pre,n,0.9348192000179552,None,,,,,,,,00037,001,2026-01-17_11h06.07.125,MST_test,2024.2.0,60.003012149697476,2026-01-17 11h06.25.247320 +0530,
87,0,88,s,1.4441634000104386,None,88,0,87,305.3625124999962,,,,,,,,,,,,,,,,,,,,,,,,,,,,,,,,,,,,,,,,,,,,,,,,,,305.3465110999823,305.3625124999962,305.86270309999236,305.84611409998615,305.84856679997756,305.86270309999236,305.86270309999236,305.86270309999236,307.31316819999483,Objects\181a.jpg,pre,s,1.4441634000104386,None,,,,,,,,00037,001,2026-01-17_11h06.07.125,MST_test,2024.2.0,60.003012149697476,2026-01-17 11h06.25.247320 +0530,
88,0,89,s,2.0296193000103813,None,89,0,88,307.3290480999858,,,,,,,,,,,,,,,,,,,,,,,,,,,,,,,,,,,,,,,,,,,,,,,,,,307.3132579999801,307.3290480999858,307.8293275999895,307.8127961999853,307.82399659999646,307.8293275999895,307.8293275999895,307.8293275999895,309.8631358999992,Objects\282b.jpg,pre,s,2.0296193000103813,None,,,,,,,,00037,001,2026-01-17_11h06.07.125,MST_test,2024.2.0,60.003012149697476,2026-01-17 11h06.25.247320 +0530,
89,0,90,n,3.143425999995088,None,90,0,89,309.87915549997706,,,,,,,,,,,,,,,,,,,,,,,,,,,,,,,,,,,,,,,,,,,,,,,,,,309.86323019998963,309.87915549997706,310.3796715999779,310.3627596999868,310.3651970999781,310.3796715999779,310.3796715999779,310.3796715999779,313.5295694999804,Objects\286a.jpg,mid,n,3.143425999995088,None,,,,,,,,00037,001,2026-01-17_11h06.07.125,MST_test,2024.2.0,60.003012149697476,2026-01-17 11h06.25.247320 +0530,
90,0,91,n,0.9323442000022624,None,91,0,90,313.5458394999732,,,,,,,,,,,,,,,,,,,,,,,,,,,,,,,,,,,,,,,,,,,,,,,,,,313.52965899999253,313.5458394999732,314.0461777999881,314.02943080000114,314.0392820999841,314.0461777999881,314.0461777999881,314.0461777999881,314.97955609997734,Foils\121a.jpg,none,n,0.9323442000022624,None,,,,,,,,00037,001,2026-01-17_11h06.07.125,MST_test,2024.2.0,60.003012149697476,2026-01-17 11h06.25.247320 +0530,
91,0,92,n,1.3941501999797765,None,92,0,91,314.99578489997657,,,,,,,,,,,,,,,,,,,,,,,,,,,,,,,,,,,,,,,,,,,,,,,,,,314.97965129997465,314.99578489997657,315.4960703999968,315.47935139999026,315.4886493999802,315.4960703999968,315.4960703999968,315.4960703999968,316.8963104999857,Foils\113a.jpg,none,n,1.3941501999797765,None,,,,,,,,00037,001,2026-01-17_11h06.07.125,MST_test,2024.2.0,60.003012149697476,2026-01-17 11h06.25.247320 +0530,
92,0,93,n,1.8869880000129342,None,93,0,92,316.9125012999866,,,,,,,,,,,,,,,,,,,,,,,,,,,,,,,,,,,,,,,,,,,,,,,,,,316.896422299993,316.9125012999866,317.41268539999146,317.39602599997306,317.40568579998217,317.41268539999146,317.41268539999146,317.41268539999146,319.3131322999834,Objects\060b.jpg,post,n,1.8869880000129342,None,,,,,,,,00037,001,2026-01-17_11h06.07.125,MST_test,2024.2.0,60.003012149697476,2026-01-17 11h06.25.247320 +0530,
93,0,94,o,1.0210467999859247,None,94,0,93,319.32910539998556,,,,,,,,,,,,,,,,,,,,,,,,,,,,,,,,,,,,,,,,,,,,,,,,,,319.31322529999306,319.32910539998556,319.8292609999771,319.8128332999768,319.81526699999813,319.8292609999771,319.8292609999771,319.8292609999771,320.863019899989,Objects\185a.jpg,mid,o,1.0210467999859247,None,,,,,,,,00037,001,2026-01-17_11h06.07.125,MST_test,2024.2.0,60.003012149697476,2026-01-17 11h06.25.247320 +0530,
94,0,95,s,1.2465058000234421,None,95,0,94,320.87901059997967,,,,,,,,,,,,,,,,,,,,,,,,,,,,,,,,,,,,,,,,,,,,,,,,,,320.86310979997506,320.87901059997967,321.37977649999084,321.3627768000006,321.36583469997277,321.37977649999084,321.37977649999084,321.37977649999084,322.62985509997816,Objects\359a.jpg,post,s,1.2465058000234421,None,,,,,,,,00037,001,2026-01-17_11h06.07.125,MST_test,2024.2.0,60.003012149697476,2026-01-17 11h06.25.247320 +0530,
95,0,96,o,0.8486183000204619,None,96,0,95,322.6457793999871,,,,,,,,,,,,,,,,,,,,,,,,,,,,,,,,,,,,,,,,,,,,,,,,,,322.62994779998553,322.6457793999871,323.1462530999852,323.12927949998993,323.1391039000009,323.1462530999852,323.1462530999852,323.1462530999852,323.99652699998114,Objects\150b.jpg,post,o,0.8486183000204619,None,,,,,,,,00037,001,2026-01-17_11h06.07.125,MST_test,2024.2.0,60.003012149697476,2026-01-17 11h06.25.247320 +0530,
96,0,97,s,1.6175261000171304,None,97,0,96,324.01249939997797,,,,,,,,,,,,,,,,,,,,,,,,,,,,,,,,,,,,,,,,,,,,,,,,,,323.9966175999725,324.01249939997797,324.51273149999906,324.4961555999762,324.4987472999783,324.51273149999906,324.51273149999906,324.51273149999906,326.1464362999832,Objects\153a.jpg,pre,s,1.6175261000171304,None,,,,,,,,00037,001,2026-01-17_11h06.07.125,MST_test,2024.2.0,60.003012149697476,2026-01-17 11h06.25.247320 +0530,
97,0,98,n,2.3080413000134286,None,98,0,97,326.16245209999033,,,,,,,,,,,,,,,,,,,,,,,,,,,,,,,,,,,,,,,,,,,,,,,,,,326.146525499993,326.16245209999033,326.6627403999737,326.646078699996,326.65572159999283,326.6627403999737,326.6627403999737,326.6627403999737,328.97969659999944,Objects\050b.jpg,mid,n,2.3080413000134286,None,,,,,,,,00037,001,2026-01-17_11h06.07.125,MST_test,2024.2.0,60.003012149697476,2026-01-17 11h06.25.247320 +0530,
98,0,99,o,3.906994399992982,None,99,0,98,328.9958285999892,,,,,,,,,,,,,,,,,,,,,,,,,,,,,,,,,,,,,,,,,,,,,,,,,,328.97978999998304,328.9958285999892,329.49605839999276,329.4792802000011,329.48894529999234,329.49605839999276,329.49605839999276,329.49605839999276,333.41308979998576,Objects\081b.jpg,mid,o,3.906994399992982,None,,,,,,,,00037,001,2026-01-17_11h06.07.125,MST_test,2024.2.0,60.003012149697476,2026-01-17 11h06.25.247320 +0530,
99,0,100,s,1.3211882000032347,None,100,0,99,333.42904109999654,,,,,,,,,,,,,,,,,,,,,,,,,,,,,,,,,,,,,,,,,,,,,,,,,,333.4131765999773,333.42904109999654,333.9291602000012,333.91279360000044,333.91531949999626,333.9291602000012,333.9291602000012,333.9291602000012,335.26301219998277,Objects\198a.jpg,pre,s,1.3211882000032347,None,,,,,,,,00037,001,2026-01-17_11h06.07.125,MST_test,2024.2.0,60.003012149697476,2026-01-17 11h06.25.247320 +0530,
100,0,101,n,0.9271326000161935,None,101,0,100,335.27910859999247,,,,,,,,,,,,,,,,,,,,,,,,,,,,,,,,,,,,,,,,,,,,,,,,,,335.26310749998083,335.27910859999247,335.7793757999898,335.76279159999103,335.7721851999813,335.7793757999898,335.7793757999898,335.7793757999898,336.7130465999944,Foils\097a.jpg,none,n,0.9271326000161935,None,,,,,,,,00037,001,2026-01-17_11h06.07.125,MST_test,2024.2.0,60.003012149697476,2026-01-17 11h06.25.247320 +0530,
101,0,102,n,2.4298044000170194,None,102,0,101,336.72911309998017,,,,,,,,,,,,,,,,,,,,,,,,,,,,,,,,,,,,,,,,,,,,,,,,,,336.7131329999829,336.72911309998017,337.22924539999804,337.2128833999741,337.22211229999084,337.22924539999804,337.22924539999804,337.22924539999804,339.66330869999365,Foils\042a.jpg,none,n,2.4298044000170194,None,,,,,,,,00037,001,2026-01-17_11h06.07.125,MST_test,2024.2.0,60.003012149697476,2026-01-17 11h06.25.247320 +0530,
102,0,103,n,1.1196593000204302,None,103,0,102,339.67902659997344,,,,,,,,,,,,,,,,,,,,,,,,,,,,,,,,,,,,,,,,,,,,,,,,,,339.66340179997496,339.67902659997344,340.1793614999915,340.1628746999777,340.1734505999775,340.1793614999915,340.1793614999915,340.1793614999915,341.31310549998307,Objects\377b.jpg,post,n,1.1196593000204302,None,,,,,,,,00037,001,2026-01-17_11h06.07.125,MST_test,2024.2.0,60.003012149697476,2026-01-17 11h06.25.247320 +0530,
103,0,104,s,2.0294022999878507,None,104,0,103,341.32902029997786,,,,,,,,,,,,,,,,,,,,,,,,,,,,,,,,,,,,,,,,,,,,,,,,,,341.3131996000011,341.32902029997786,341.82937529997434,341.8129276999971,341.82325509999646,341.82937529997434,341.82937529997434,341.82937529997434,343.86309659999097,Objects\275b.jpg,mid,s,2.0294022999878507,None,,,,,,,,00037,001,2026-01-17_11h06.07.125,MST_test,2024.2.0,60.003012149697476,2026-01-17 11h06.25.247320 +0530,
104,0,105,s,5.103244400001131,None,105,0,104,343.8790392999945,,,,,,,,,,,,,,,,,,,,,,,,,,,,,,,,,,,,,,,,,,,,,,,,,,343.86318749998463,343.8790392999945,344.3794668999908,344.3627959000005,344.37390569999116,344.3794668999908,344.3794668999908,344.3794668999908,349.4964548999851,Objects\315b.jpg,mid,s,5.103244400001131,None,,,,,,,,00037,001,2026-01-17_11h06.07.125,MST_test,2024.2.0,60.003012149697476,2026-01-17 11h06.25.247320 +0530,
105,0,106,n,0.8771501999872271,None,106,0,105,349.5126020999742,,,,,,,,,,,,,,,,,,,,,,,,,,,,,,,,,,,,,,,,,,,,,,,,,,349.49654639998334,349.5126020999742,350.0130986000004,349.9962460999959,350.00627189999796,350.0130986000004,350.0130986000004,350.0130986000004,350.8966465999838,Foils\017a.jpg,none,n,0.8771501999872271,None,,,,,,,,00037,001,2026-01-17_11h06.07.125,MST_test,2024.2.0,60.003012149697476,2026-01-17 11h06.25.247320 +0530,
106,0,107,s,1.3975513000041246,None,107,0,106,350.9125528000004,,,,,,,,,,,,,,,,,,,,,,,,,,,,,,,,,,,,,,,,,,,,,,,,,,350.89673369997763,350.9125528000004,351.4128650999919,351.3961683999805,351.39846119997674,351.4128650999919,351.4128650999919,351.4128650999919,352.8131514999841,Objects\047a.jpg,mid,s,1.3975513000041246,None,,,,,,,,00037,001,2026-01-17_11h06.07.125,MST_test,2024.2.0,60.003012149697476,2026-01-17 11h06.25.247320 +0530,
107,0,108,s,1.4333142999967095,None,108,0,107,352.8292646999762,,,,,,,,,,,,,,,,,,,,,,,,,,,,,,,,,,,,,,,,,,,,,,,,,,352.81324269998004,352.8292646999762,353.3296504999744,353.31286679999903,353.32443079998484,353.3296504999744,353.3296504999744,353.3296504999744,354.77971379997325,Objects\231b.jpg,mid,s,1.4333142999967095,None,,,,,,,,00037,001,2026-01-17_11h06.07.125,MST_test,2024.2.0,60.003012149697476,2026-01-17 11h06.25.247320 +0530,
108,0,109,n,2.633732099988265,None,109,0,108,354.796002499992,,,,,,,,,,,,,,,,,,,,,,,,,,,,,,,,,,,,,,,,,,,,,,,,,,354.77980569997453,354.796002499992,355.2964358999743,355.279573399981,355.29022249998525,355.2964358999743,355.2964358999743,355.2964358999743,357.946531900001,Objects\183b.jpg,mid,n,2.633732099988265,None,,,,,,,,00037,001,2026-01-17_11h06.07.125,MST_test,2024.2.0,60.003012149697476,2026-01-17 11h06.25.247320 +0530,
109,0,110,s,1.5797920000040904,None,110,0,109,357.9626967999793,,,,,,,,,,,,,,,,,,,,,,,,,,,,,,,,,,,,,,,,,,,,,,,,,,357.9466203999764,357.9626967999793,358.46304829997825,358.44628779997583,358.45547249997617,358.46304829997825,358.46304829997825,358.46304829997825,360.0464478999784,Objects\360b.jpg,post,s,1.5797920000040904,None,,,,,,,,00037,001,2026-01-17_11h06.07.125,MST_test,2024.2.0,60.003012149697476,2026-01-17 11h06.25.247320 +0530,
110,0,111,n,1.2399676000059117,None,111,0,110,360.06263729999773,,,,,,,,,,,,,,,,,,,,,,,,,,,,,,,,,,,,,,,,,,,,,,,,,,360.0465360999806,360.06263729999773,360.5629009999975,360.54621999998926,360.54898479999974,360.5629009999975,360.5629009999975,360.5629009999975,361.81330859998707,Objects\040a.jpg,post,n,1.2399676000059117,None,,,,,,,,00037,001,2026-01-17_11h06.07.125,MST_test,2024.2.0,60.003012149697476,2026-01-17 11h06.25.247320 +0530,
111,0,112,n,3.4492809000075795,None,112,0,111,361.8292728999804,,,,,,,,,,,,,,,,,,,,,,,,,,,,,,,,,,,,,,,,,,,,,,,,,,361.8133984999731,361.8292728999804,362.32954269999755,362.3128261999809,362.322161899996,362.32954269999755,362.32954269999755,362.32954269999755,365.7798836999864,Foils\093b.jpg,none,n,3.4492809000075795,None,,,,,,,,00037,001,2026-01-17_11h06.07.125,MST_test,2024.2.0,60.003012149697476,2026-01-17 11h06.25.247320 +0530,
112,0,113,o,1.0507912999892142,None,113,0,112,365.79589280000073,,,,,,,,,,,,,,,,,,,,,,,,,,,,,,,,,,,,,,,,,,,,,,,,,,365.7799788999837,365.79589280000073,366.2960984999954,366.2795420999755,366.28226999999606,366.2960984999954,366.2960984999954,366.2960984999954,367.36349789999076,Objects\170a.jpg,mid,o,1.0507912999892142,None,,,,,,,,00037,001,2026-01-17_11h06.07.125,MST_test,2024.2.0,60.003012149697476,2026-01-17 11h06.25.247320 +0530,
113,0,114,o,1.1312811000098009,None,114,0,113,367.3798508999753,,,,,,,,,,,,,,,,,,,,,,,,,,,,,,,,,,,,,,,,,,,,,,,,,,367.36360349997994,367.3798508999753,367.87942620000103,367.86281129997224,367.8651077999966,367.87942620000103,367.87942620000103,367.87942620000103,369.0132289999747,Objects\369a.jpg,post,o,1.1312811000098009,None,,,,,,,,00037,001,2026-01-17_11h06.07.125,MST_test,2024.2.0,60.003012149697476,2026-01-17 11h06.25.247320 +0530,
114,0,115,n,2.377445899997838,None,115,0,114,369.02925429999596,,,,,,,,,,,,,,,,,,,,,,,,,,,,,,,,,,,,,,,,,,,,,,,,,,369.01331829998526,369.02925429999596,369.5296336999745,369.5129304000002,369.5158319999755,369.5296336999745,369.5296336999745,369.5296336999745,371.91315659999964,Objects\323a.jpg,mid,n,2.377445899997838,None,,,,,,,,00037,001,2026-01-17_11h06.07.125,MST_test,2024.2.0,60.003012149697476,2026-01-17 11h06.25.247320 +0530,
115,0,116,o,0.8126864999940153,None,116,0,115,371.929189699993,,,,,,,,,,,,,,,,,,,,,,,,,,,,,,,,,,,,,,,,,,,,,,,,,,371.91324819999863,371.929189699993,372.4296201999823,372.4128104999836,372.4160662999784,372.4296201999823,372.4296201999823,372.4296201999823,373.2465765999805,Objects\226a.jpg,pre,o,0.8126864999940153,None,,,,,,,,00037,001,2026-01-17_11h06.07.125,MST_test,2024.2.0,60.003012149697476,2026-01-17 11h06.25.247320 +0530,
116,0,117,o,1.5273346999892965,None,117,0,116,373.26255689997924,,,,,,,,,,,,,,,,,,,,,,,,,,,,,,,,,,,,,,,,,,,,,,,,,,373.24666589999106,373.26255689997924,373.76299649997964,373.7464057999896,373.7494175999891,373.76299649997964,373.76299649997964,373.76299649997964,375.29659990000073,Objects\255a.jpg,pre,o,1.5273346999892965,None,,,,,,,,00037,001,2026-01-17_11h06.07.125,MST_test,2024.2.0,60.003012149697476,2026-01-17 11h06.25.247320 +0530,
117,0,118,n,1.0460981000214815,None,118,0,117,375.3125553999853,,,,,,,,,,,,,,,,,,,,,,,,,,,,,,,,,,,,,,,,,,,,,,,,,,375.2966888999799,375.3125553999853,375.8130135999818,375.79630959997303,375.8079205999966,375.8130135999818,375.8130135999818,375.8130135999818,376.8631935999729,Foils\058a.jpg,none,n,1.0460981000214815,None,,,,,,,,00037,001,2026-01-17_11h06.07.125,MST_test,2024.2.0,60.003012149697476,2026-01-17 11h06.25.247320 +0530,
118,0,119,n,2.2005109999736305,None,119,0,118,376.87912579998374,,,,,,,,,,,,,,,,,,,,,,,,,,,,,,,,,,,,,,,,,,,,,,,,,,376.86329069998465,376.87912579998374,377.37943319999613,377.3628904999932,377.3722584999923,377.37943319999613,377.37943319999613,377.37943319999613,379.59647839999525,Foils\018a.jpg,none,n,2.2005109999736305,None,,,,,,,,00037,001,2026-01-17_11h06.07.125,MST_test,2024.2.0,60.003012149697476,2026-01-17 11h06.25.247320 +0530,
119,0,120,o,1.2417079999868292,None,120,0,119,379.61264019997907,,,,,,,,,,,,,,,,,,,,,,,,,,,,,,,,,,,,,,,,,,,,,,,,,,379.5965685999836,379.61264019997907,380.11304029999883,380.0961736999743,380.1054586999817,380.11304029999883,380.11304029999883,380.11304029999883,381.3631735999952,Objects\353b.jpg,post,o,1.2417079999868292,None,,,,,,,,00037,001,2026-01-17_11h06.07.125,MST_test,2024.2.0,60.003012149697476,2026-01-17 11h06.25.247320 +0530,
120,0,121,o,1.9150755000009667,None,121,0,120,381.3791013000009,,,,,,,,,,,,,,,,,,,,,,,,,,,,,,,,,,,,,,,,,,,,,,,,,,381.3632719999878,381.3791013000009,381.87949759999174,381.8629212999949,381.8659140999953,381.87949759999174,381.87949759999174,381.87949759999174,383.7964279000007,Objects\100a.jpg,mid,o,1.9150755000009667,None,,,,,,,,00037,001,2026-01-17_11h06.07.125,MST_test,2024.2.0,60.003012149697476,2026-01-17 11h06.25.247320 +0530,
121,0,122,o,1.1134390000079293,None,122,0,121,383.81257929999265,,,,,,,,,,,,,,,,,,,,,,,,,,,,,,,,,,,,,,,,,,,,,,,,,,383.79652739997255,383.81257929999265,384.3128125999938,384.2962368999724,384.3056683999894,384.3128125999938,384.3128125999938,384.3128125999938,385.42979809999815,Objects\154b.jpg,pre,o,1.1134390000079293,None,,,,,,,,00037,001,2026-01-17_11h06.07.125,MST_test,2024.2.0,60.003012149697476,2026-01-17 11h06.25.247320 +0530,
122,0,123,o,1.1840837000054307,None,123,0,122,385.44597699999576,,,,,,,,,,,,,,,,,,,,,,,,,,,,,,,,,,,,,,,,,,,,,,,,,,385.4298892999941,385.44597699999576,385.94616199997836,385.9294287999801,385.9320100999903,385.94616199997836,385.94616199997836,385.94616199997836,387.1465120999783,Objects\234a.jpg,post,o,1.1840837000054307,None,,,,,,,,00037,001,2026-01-17_11h06.07.125,MST_test,2024.2.0,60.003012149697476,2026-01-17 11h06.25.247320 +0530,
123,0,124,o,1.2036686000064947,None,124,0,123,387.16258559998823,,,,,,,,,,,,,,,,,,,,,,,,,,,,,,,,,,,,,,,,,,,,,,,,,,387.14660219999496,387.16258559998823,387.6631817999878,387.6462302999862,387.65662059999886,387.6631817999878,387.6631817999878,387.6631817999878,388.8796613999875,Objects\374b.jpg,post,o,1.2036686000064947,None,,,,,,,,00037,001,2026-01-17_11h06.07.125,MST_test,2024.2.0,60.003012149697476,2026-01-17 11h06.25.247320 +0530,
124,0,125,s,1.27831310001784,None,125,0,124,388.8958323999832,,,,,,,,,,,,,,,,,,,,,,,,,,,,,,,,,,,,,,,,,,,,,,,,,,388.8797587000008,388.8958323999832,389.39639009998064,389.37946159997955,389.3896198000002,389.39639009998064,389.39639009998064,389.39639009998064,390.6798734999902,Objects\018b.jpg,mid,s,1.27831310001784,None,,,,,,,,00037,001,2026-01-17_11h06.07.125,MST_test,2024.2.0,60.003012149697476,2026-01-17 11h06.25.247320 +0530,
125,0,126,n,1.2386013000214007,None,126,0,125,390.6957937999978,,,,,,,,,,,,,,,,,,,,,,,,,,,,,,,,,,,,,,,,,,,,,,,,,,390.67996319997474,390.6957937999978,391.19636049997644,391.17950629998813,391.1822482999996,391.19636049997644,391.19636049997644,391.19636049997644,392.4464248000004,Objects\335a.jpg,pre,n,1.2386013000214007,None,,,,,,,,00037,001,2026-01-17_11h06.07.125,MST_test,2024.2.0,60.003012149697476,2026-01-17 11h06.25.247320 +0530,
126,0,127,n,1.007758499996271,None,127,0,126,392.4626406999887,,,,,,,,,,,,,,,,,,,,,,,,,,,,,,,,,,,,,,,,,,,,,,,,,,392.44651359997806,392.4626406999887,392.9629896999977,392.9461688999727,392.9486523999949,392.9629896999977,392.9629896999977,392.9629896999977,393.9799002999789,Objects\046a.jpg,post,n,1.007758499996271,None,,,,,,,,00037,001,2026-01-17_11h06.07.125,MST_test,2024.2.0,60.003012149697476,2026-01-17 11h06.25.247320 +0530,
127,0,128,s,1.7386297000048216,None,128,0,127,393.99596319999546,,,,,,,,,,,,,,,,,,,,,,,,,,,,,,,,,,,,,,,,,,,,,,,,,,393.97998949998873,393.99596319999546,394.4961360999732,394.4795427999925,394.4818270999822,394.4961360999732,394.4961360999732,394.4961360999732,396.24642119999044,Objects\155a.jpg,pre,s,1.7386297000048216,None,,,,,,,,00037,001,2026-01-17_11h06.07.125,MST_test,2024.2.0,60.003012149697476,2026-01-17 11h06.25.247320 +0530,
128,0,129,o,0.8159233000187669,None,129,0,128,396.2625776999921,,,,,,,,,,,,,,,,,,,,,,,,,,,,,,,,,,,,,,,,,,,,,,,,,,396.24651069997344,396.2625776999921,396.76270079999813,396.746149899991,396.74874839998665,396.76270079999813,396.76270079999813,396.76270079999813,397.5798087999865,Objects\158a.jpg,mid,o,0.8159233000187669,None,,,,,,,,00037,001,2026-01-17_11h06.07.125,MST_test,2024.2.0,60.003012149697476,2026-01-17 11h06.25.247320 +0530,
129,0,130,o,1.0739935000019614,None,130,0,129,397.5960371999827,,,,,,,,,,,,,,,,,,,,,,,,,,,,,,,,,,,,,,,,,,,,,,,,,,397.5799008999893,397.5960371999827,398.0962039999722,398.07952509997995,398.0818637999764,398.0962039999722,398.0962039999722,398.0962039999722,399.17967990000034,Objects\017a.jpg,post,o,1.0739935000019614,None,,,,,,,,00037,001,2026-01-17_11h06.07.125,MST_test,2024.2.0,60.003012149697476,2026-01-17 11h06.25.247320 +0530,
130,0,131,s,1.4340867999999318,None,131,0,130,399.195974799979,,,,,,,,,,,,,,,,,,,,,,,,,,,,,,,,,,,,,,,,,,,,,,,,,,399.17977069999324,399.195974799979,399.69621089997236,399.67941339997924,399.68940119998297,399.69621089997236,399.69621089997236,399.69621089997236,401.14662859999225,Objects\024b.jpg,mid,s,1.4340867999999318,None,,,,,,,,00037,001,2026-01-17_11h06.07.125,MST_test,2024.2.0,60.003012149697476,2026-01-17 11h06.25.247320 +0530,
131,0,132,n,1.0513629000051878,None,132,0,131,401.162559599994,,,,,,,,,,,,,,,,,,,,,,,,,,,,,,,,,,,,,,,,,,,,,,,,,,401.14672169997357,401.162559599994,401.66287429997465,401.6462183999829,401.6557327999908,401.66287429997465,401.66287429997465,401.66287429997465,402.72972249999293,Foils\034a.jpg,none,n,1.0513629000051878,None,,,,,,,,00037,001,2026-01-17_11h06.07.125,MST_test,2024.2.0,60.003012149697476,2026-01-17 11h06.25.247320 +0530,
132,0,133,o,0.8612082999898121,None,133,0,132,402.74598289999994,,,,,,,,,,,,,,,,,,,,,,,,,,,,,,,,,,,,,,,,,,,,,,,,,,402.729817799991,402.74598289999994,403.24637349997647,403.22954189998563,403.23253459998523,403.24637349997647,403.24637349997647,403.24637349997647,404.11320969997905,Objects\319a.jpg,pre,o,0.8612082999898121,None,,,,,,,,00037,001,2026-01-17_11h06.07.125,MST_test,2024.2.0,60.003012149697476,2026-01-17 11h06.25.247320 +0530,
133,0,134,n,4.141326200013282,None,134,0,133,404.1292919999978,,,,,,,,,,,,,,,,,,,,,,,,,,,,,,,,,,,,,,,,,,,,,,,,,,404.1133019999834,404.1292919999978,404.6296564999793,404.6128038999741,404.6226996999758,404.6296564999793,404.6296564999793,404.6296564999793,408.7797672999732,Objects\210b.jpg,mid,n,4.141326200013282,None,,,,,,,,00037,001,2026-01-17_11h06.07.125,MST_test,2024.2.0,60.003012149697476,2026-01-17 11h06.25.247320 +0530,
134,0,135,o,3.978421299980255,None,135,0,134,408.7958783999784,,,,,,,,,,,,,,,,,,,,,,,,,,,,,,,,,,,,,,,,,,,,,,,,,,408.7798735999968,408.7958783999784,409.2961585999874,409.27929539998877,409.2820194999804,409.2961585999874,409.2961585999874,409.2961585999874,413.28064189999714,Objects\277a.jpg,post,o,3.978421299980255,None,,,,,,,,00037,001,2026-01-17_11h06.07.125,MST_test,2024.2.0,60.003012149697476,2026-01-17 11h06.25.247320 +0530,
135,0,136,n,1.0706333999987692,None,136,0,135,413.2957970999996,,,,,,,,,,,,,,,,,,,,,,,,,,,,,,,,,,,,,,,,,,,,,,,,,,413.28073209998547,413.2957970999996,413.7962475999957,413.77938649998396,413.7914942999778,413.7962475999957,413.7962475999957,413.7962475999957,414.879698499979,Objects\326b.jpg,post,n,1.0706333999987692,None,,,,,,,,00037,001,2026-01-17_11h06.07.125,MST_test,2024.2.0,60.003012149697476,2026-01-17 11h06.25.247320 +0530,
136,0,137,s,1.3347804000077303,None,137,0,136,414.8959114999743,,,,,,,,,,,,,,,,,,,,,,,,,,,,,,,,,,,,,,,,,,,,,,,,,,414.879801699979,414.8959114999743,415.39629099998274,415.3793905999919,415.39055609999923,415.39629099998274,415.39629099998274,415.39629099998274,416.7467273999937,Objects\372b.jpg,pre,s,1.3347804000077303,None,,,,,,,,00037,001,2026-01-17_11h06.07.125,MST_test,2024.2.0,60.003012149697476,2026-01-17 11h06.25.247320 +0530,
137,0,138,o,2.131692100025248,None,138,0,137,416.7625375999778,,,,,,,,,,,,,,,,,,,,,,,,,,,,,,,,,,,,,,,,,,,,,,,,,,416.7468232999963,416.7625375999778,417.26274649999687,417.2461449999828,417.2484882999852,417.26274649999687,417.26274649999687,417.26274649999687,419.39659959997516,Objects\204a.jpg,pre,o,2.131692100025248,None,,,,,,,,00037,001,2026-01-17_11h06.07.125,MST_test,2024.2.0,60.003012149697476,2026-01-17 11h06.25.247320 +0530,
138,0,139,n,1.4344578000018373,None,139,0,138,419.41256279998925,,,,,,,,,,,,,,,,,,,,,,,,,,,,,,,,,,,,,,,,,,,,,,,,,,419.39670049998676,419.41256279998925,419.9128311999957,419.89621669999906,419.90649409999605,419.9128311999957,419.9128311999957,419.9128311999957,421.36307339998893,Foils\057a.jpg,none,n,1.4344578000018373,None,,,,,,,,00037,001,2026-01-17_11h06.07.125,MST_test,2024.2.0,60.003012149697476,2026-01-17 11h06.25.247320 +0530,
139,0,140,o,2.763911799993366,None,140,0,139,421.3790345999878,,,,,,,,,,,,,,,,,,,,,,,,,,,,,,,,,,,,,,,,,,,,,,,,,,421.36317369999597,421.3790345999878,421.87929809998604,421.86279210000066,421.87199419998797,421.87929809998604,421.87929809998604,421.87929809998604,424.6464625999797,Objects\380b.jpg,post,o,2.763911799993366,None,,,,,,,,00037,001,2026-01-17_11h06.07.125,MST_test,2024.2.0,60.003012149697476,2026-01-17 11h06.25.247320 +0530,
140,0,141,s,1.1441762000031304,None,141,0,140,424.66252289997647,,,,,,,,,,,,,,,,,,,,,,,,,,,,,,,,,,,,,,,,,,,,,,,,,,424.6465582999808,424.66252289997647,425.16276199999265,425.14606739999726,425.157547299983,425.16276199999265,425.16276199999265,425.16276199999265,426.3132263000007,Objects\048b.jpg,pre,s,1.1441762000031304,None,,,,,,,,00037,001,2026-01-17_11h06.07.125,MST_test,2024.2.0,60.003012149697476,2026-01-17 11h06.25.247320 +0530,
141,0,142,o,2.061435400013579,None,142,0,141,426.3290750999877,,,,,,,,,,,,,,,,,,,,,,,,,,,,,,,,,,,,,,,,,,,,,,,,,,426.31331919998047,426.3290750999877,426.8296134999837,426.8128184999805,426.8158232999849,426.8296134999837,426.8296134999837,426.8296134999837,428.89647799998056,Objects\362a.jpg,post,o,2.061435400013579,None,,,,,,,,00037,001,2026-01-17_11h06.07.125,MST_test,2024.2.0,60.003012149697476,2026-01-17 11h06.25.247320 +0530,
142,0,143,o,1.5102889999980107,None,143,0,142,428.91253459997824,,,,,,,,,,,,,,,,,,,,,,,,,,,,,,,,,,,,,,,,,,,,,,,,,,428.8965702999849,428.91253459997824,429.41291210000054,429.3961252000008,429.39933249997557,429.41291210000054,429.41291210000054,429.41291210000054,430.9296664999856,Objects\357a.jpg,mid,o,1.5102889999980107,None,,,,,,,,00037,001,2026-01-17_11h06.07.125,MST_test,2024.2.0,60.003012149697476,2026-01-17 11h06.25.247320 +0530,
143,0,144,s,1.293394400010584,None,144,0,143,430.9458726999874,,,,,,,,,,,,,,,,,,,,,,,,,,,,,,,,,,,,,,,,,,,,,,,,,,430.929782399995,430.9458726999874,431.4460968999774,431.42942709999625,431.4402714999742,431.4460968999774,431.4460968999774,431.4460968999774,432.7465625999903,Objects\138b.jpg,post,s,1.293394400010584,None,,,,,,,,00037,001,2026-01-17_11h06.07.125,MST_test,2024.2.0,60.003012149697476,2026-01-17 11h06.25.247320 +0530,
144,0,145,n,0.7796720000042114,None,145,0,144,432.76252530000056,,,,,,,,,,,,,,,,,,,,,,,,,,,,,,,,,,,,,,,,,,,,,,,,,,432.74666409997735,432.76252530000056,433.26270279998425,433.2461314999964,433.25645279997843,433.26270279998425,433.26270279998425,433.26270279998425,434.04643989997567,Foils\002a.jpg,none,n,0.7796720000042114,None,,,,,,,,00037,001,2026-01-17_11h06.07.125,MST_test,2024.2.0,60.003012149697476,2026-01-17 11h06.25.247320 +0530,
145,0,146,n,0.8961092999961693,None,146,0,145,434.06251309998333,,,,,,,,,,,,,,,,,,,,,,,,,,,,,,,,,,,,,,,,,,,,,,,,,,434.04653339998913,434.06251309998333,434.5628614999878,434.54604869999457,434.5548566999787,434.5628614999878,434.5628614999878,434.5628614999878,435.46333959998447,Foils\f7.jpg,none,n,0.8961092999961693,None,,,,,,,,00037,001,2026-01-17_11h06.07.125,MST_test,2024.2.0,60.003012149697476,2026-01-17 11h06.25.247320 +0530,
146,0,147,n,0.9202001999947242,None,147,0,146,435.47911190000013,,,,,,,,,,,,,,,,,,,,,,,,,,,,,,,,,,,,,,,,,,,,,,,,,,435.4634369999985,435.47911190000013,435.97937259997707,435.9627135999908,435.9726916999789,435.97937259997707,435.97937259997707,435.97937259997707,436.91304089999176,Objects\174b.jpg,pre,n,0.9202001999947242,None,,,,,,,,00037,001,2026-01-17_11h06.07.125,MST_test,2024.2.0,60.003012149697476,2026-01-17 11h06.25.247320 +0530,
147,0,148,s,2.4533938999811653,None,148,0,147,436.929143699992,,,,,,,,,,,,,,,,,,,,,,,,,,,,,,,,,,,,,,,,,,,,,,,,,,436.91313219998847,436.929143699992,437.4294524999859,437.4129413999908,437.41572369998903,437.4294524999859,437.4294524999859,437.4294524999859,439.89642710000044,Objects\230a.jpg,pre,s,2.4533938999811653,None,,,,,,,,00037,001,2026-01-17_11h06.07.125,MST_test,2024.2.0,60.003012149697476,2026-01-17 11h06.25.247320 +0530,
148,0,149,s,1.81344940001145,None,149,0,148,439.9125721999735,,,,,,,,,,,,,,,,,,,,,,,,,,,,,,,,,,,,,,,,,,,,,,,,,,439.89652739997837,439.9125721999735,440.4128764999914,440.396050499985,440.39922909997404,440.4128764999914,440.4128764999914,440.4128764999914,442.2297159000009,Objects\072a.jpg,post,s,1.81344940001145,None,,,,,,,,00037,001,2026-01-17_11h06.07.125,MST_test,2024.2.0,60.003012149697476,2026-01-17 11h06.25.247320 +0530,
149,0,150,n,1.2169476000126451,None,150,0,149,442.2458738999849,,,,,,,,,,,,,,,,,,,,,,,,,,,,,,,,,,,,,,,,,,,,,,,,,,442.2298092999845,442.2458738999849,442.74623069999507,442.729303399974,442.73934939998435,442.74623069999507,442.74623069999507,442.74623069999507,443.97962149998057,Objects\290b.jpg,pre,n,1.2169476000126451,None,,,,,,,,00037,001,2026-01-17_11h06.07.125,MST_test,2024.2.0,60.003012149697476,2026-01-17 11h06.25.247320 +0530,
,,,,,,,,,,,,,,,,,,,,,,,,,,,,,,,,,,,,,,,,,,,,,,,,,,,,,,,,,,,,,,,,,,,,,,,,,443.97968519999995,443.99590939999325,443.99590939999325,445.596324299986,space,1.5989345999842044,None,00037,001,2026-01-17_11h06.07.125,MST_test,2024.2.0,60.003012149697476,2026-01-17 11h06.25.247320 +0530,
