Sl_no,image_path,thisN,thisTrialN,thisRepN,key_resp_5.keys,key_resp_7.keys,key_resp_7.rt,key_resp_7.duration,key_resp_5.rt,key_resp_5.duration,key_resp_9.keys,key_resp_9.rt,key_resp_9.duration,key_resp_8.keys,key_resp_8.rt,key_resp_8.duration,practice.thisRepN,practice.thisTrialN,practice.thisN,trials.thisRepN,trials.thisTrialN,trials.thisN,thisRow.t,notes,welcome_page.started,text.started,key_resp.started,welcome_page.stopped,key_resp.keys,key_resp.rt,key_resp.duration,instructions.started,ins.started,key_resp_2.started,instructions.stopped,key_resp_2.keys,key_resp_2.rt,key_resp_2.duration,objects_only_instruction.started,text_3.started,key_resp_3.started,objects_only_instruction.stopped,key_resp_3.keys,key_resp_3.rt,key_resp_3.duration,ISI.started,text_4.started,ISI.stopped,practice_block.started,image.started,key_resp_5.started,text_5.started,practice_block.stopped,practice.key_resp_5.keys,indoor_outdoor.started,text_7.started,key_resp_7.started,indoor_outdoor.stopped,practice.key_resp_7.keys,practice.key_resp_7.rt,practice.key_resp_7.duration,text_4.stopped,image.stopped,key_resp_5.stopped,text_5.stopped,practice.key_resp_5.rt,practice.key_resp_5.duration,practice_to_main.started,text_2.started,key_resp_4.started,practice_to_main.stopped,key_resp_4.keys,key_resp_4.rt,key_resp_4.duration,objects.started,image_2.started,text_9.started,key_resp_9.started,objects.stopped,category,trials.key_resp_9.keys,trials.key_resp_9.rt,trials.key_resp_9.duration,encoding_task.started,encoding_task.stopped,trials.key_resp_8.keys,text_8.started,key_resp_8.started,trials.key_resp_8.rt,trials.key_resp_8.duration,image_2.stopped,text_9.stopped,key_resp_9.stopped,end_experiment.started,text_6.started,key_resp_6.started,end_experiment.stopped,key_resp_6.keys,key_resp_6.rt,key_resp_6.duration,list_of_stimuli,encoding_task_accuracy,participant,session,date,expName,psychopyVersion,frameRate,expStart,
,,,,,,,,,,,,,,,,,,,,,,,,,0.0017232000000149128,0.003973900000346475,0.003973900000346475,12.289766900000359,space,12.273824899999909,None,,,,,,,,,,,,,,,,,,,,,,,,,,,,,,,,,,,,,,,,,,,,,,,,,,,,,,,,,,,,,,,,,,,,,,,,00030,001,2025-11-15_18h08.36.625,MST_task,2024.2.0,59.9294390784042,2025-11-15 18h08.41.571378 +0530,
,,,,,,,,,,,,,,,,,,,,,,,,,,,,,,,,12.289798200000405,12.30141309999999,12.30141309999999,53.20144300000038,space,40.89547029999994,None,,,,,,,,,,,,,,,,,,,,,,,,,,,,,,,,,,,,,,,,,,,,,,,,,,,,,,,,,,,,,,,,,00030,001,2025-11-15_18h08.36.625,MST_task,2024.2.0,59.9294390784042,2025-11-15 18h08.41.571378 +0530,
,,,,,,,,,,,,,,,,,,,,,,,,,,,,,,,,,,,,,,,53.20156240000006,53.22095110000009,53.22095110000009,62.316979800000354,space,9.088583399999607,None,,,,,,,,,,,,,,,,,,,,,,,,,,,,,,,,,,,,,,,,,,,,,,,,,,,,,,,,,,00030,001,2025-11-15_18h08.36.625,MST_task,2024.2.0,59.9294390784042,2025-11-15 18h08.41.571378 +0530,
8,practice_images/178a.jpg,0,0,1,None,j,1.635978900000282,None,,,,,,,,,1,0,0,,,,62.34633610000037,,,,,,,,,,,,,,,,,,,,,,,62.34362710000005,62.34633610000037,62.83262330000025,62.85083940000004,62.86209730000019,62.86209730000019,62.86209730000019,65.83308239999997,None,65.83857850000004,65.84883630000013,65.84883630000013,67.50045670000009,j,1.635978900000282,None,,,,,,,,,,,,,,,,,,,,,,,,,,,,,,,,,,,,,,,,,,00030,001,2025-11-15_18h08.36.625,MST_task,2024.2.0,59.9294390784042,2025-11-15 18h08.41.571378 +0530,
10,practice_images/182a.jpg,1,1,1,None,f,6.021090300000196,None,,,,,,,,,1,1,1,,,,67.51554590000023,,,,,,,,,,,,,,,,,,,,,,,67.5007786000001,67.51554590000023,68.00044960000014,68.01533370000016,68.01777020000009,68.01777020000009,68.01777020000009,71.01614940000036,None,71.01628130000017,71.032103,71.032103,77.06741880000027,f,6.021090300000196,None,68.01777020000009,,,,,,,,,,,,,,,,,,,,,,,,,,,,,,,,,,,,,,,,,00030,001,2025-11-15_18h08.36.625,MST_task,2024.2.0,59.9294390784042,2025-11-15 18h08.41.571378 +0530,
7,practice_images/166a.jpg,2,2,1,None,f,3.303726799999822,None,,,,,,,,,1,2,2,,,,77.08228440000039,,,,,,,,,,,,,,,,,,,,,,,77.06773390000035,77.08228440000039,77.56621910000013,77.58071440000003,77.58299660000011,77.58299660000011,77.58299660000011,80.56703349999998,None,80.56711470000027,80.5818849000002,80.5818849000002,83.90051930000027,f,3.303726799999822,None,77.58299660000011,80.5818849000002,80.5818849000002,80.5818849000002,,,,,,,,,,,,,,,,,,,,,,,,,,,,,,,,,,,,,,00030,001,2025-11-15_18h08.36.625,MST_task,2024.2.0,59.9294390784042,2025-11-15 18h08.41.571378 +0530,
4,practice_images/002b.jpg,3,3,1,None,j,3.3247027000002163,None,,,,,,,,,1,3,3,,,,83.91552390000015,,,,,,,,,,,,,,,,,,,,,,,83.90080840000019,83.91552390000015,84.40010570000004,84.41860840000027,84.42091150000033,84.42091150000033,84.42091150000033,87.41608919999999,None,87.41619440000022,87.43188360000022,87.43188360000022,90.76756750000004,j,3.3247027000002163,None,84.42091150000033,,,,,,,,,,,,,,,,,,,,,,,,,,,,,,,,,,,,,,,,,00030,001,2025-11-15_18h08.36.625,MST_task,2024.2.0,59.9294390784042,2025-11-15 18h08.41.571378 +0530,
1,practice_images/013a.jpg,4,4,1,None,j,1.1143520000000535,None,,,,,,,,,1,4,4,,,,90.78219960000024,,,,,,,,,,,,,,,,,,,,,,,90.76785590000009,90.78219960000024,91.26680299999998,91.28341690000025,91.28589430000011,91.28589430000011,91.28589430000011,94.28276910000022,None,94.28289390000009,94.29905420000023,94.29905420000023,95.41798700000027,j,1.1143520000000535,None,91.28589430000011,,,,,,,,,,,,,,,,,,,,,,,,,,,,,,,,,,,,,,,,,00030,001,2025-11-15_18h08.36.625,MST_task,2024.2.0,59.9294390784042,2025-11-15 18h08.41.571378 +0530,
9,practice_images/180a.jpg,5,5,1,None,j,4.392519799999718,None,,,,,,,,,1,5,5,,,,95.43207370000027,,,,,,,,,,,,,,,,,,,,,,,95.41831020000018,95.43207370000027,95.91680010000027,95.93638780000038,95.93884950000029,95.93884950000029,95.93884950000029,98.93274670000028,None,98.93896710000035,98.94886859999997,98.94886859999997,103.35102400000005,j,4.392519799999718,None,95.93884950000029,,,,,,,,,,,,,,,,,,,,,,,,,,,,,,,,,,,,,,,,,00030,001,2025-11-15_18h08.36.625,MST_task,2024.2.0,59.9294390784042,2025-11-15 18h08.41.571378 +0530,
5,practice_images/139a.jpg,6,6,1,j,None,,,2.0723582999999053,0.1762055999997756,,,,,,,1,6,6,,,,103.36567720000039,,,,,,,,,,,,,,,,,,,,,,,103.3513683000001,103.36567720000039,103.85002210000039,103.86624849999998,103.8686447,103.8686447,103.8686447,106.86636850000014,j,106.86653220000017,,,106.86660130000018,None,,,103.8686447,,,,2.0723582999999053,0.1762055999997756,,,,,,,,,,,,,,,,,,,,,,,,,,,,,,,,,,,,00030,001,2025-11-15_18h08.36.625,MST_task,2024.2.0,59.9294390784042,2025-11-15 18h08.41.571378 +0530,
6,practice_images/158a.jpg,7,7,1,None,f,44.21395010000015,None,,,,,,,,,1,7,7,,,,106.88204810000025,,,,,,,,,,,,,,,,,,,,,,,106.8668947000001,106.88204810000025,107.36669870000014,107.38306520000015,107.38544200000024,107.38544200000024,107.38544200000024,110.38266980000026,None,110.3827967000002,110.39901310000005,110.39901310000005,154.61664670000027,f,44.21395010000015,None,107.38544200000024,,,,,,,,,,,,,,,,,,,,,,,,,,,,,,,,,,,,,,,,,00030,001,2025-11-15_18h08.36.625,MST_task,2024.2.0,59.9294390784042,2025-11-15 18h08.41.571378 +0530,
2,practice_images/031a.jpg,8,8,1,None,f,0.68052519999992,None,,,,,,,,,1,8,8,,,,154.6320909000001,,,,,,,,,,,,,,,,,,,,,,,154.61685239999997,154.6320909000001,155.1165490000003,155.133605,155.13593100000026,155.13593100000026,155.13593100000026,158.1328354000002,None,158.13297690000036,158.14878780000026,158.14878780000026,158.8338205,f,0.68052519999992,None,155.13593100000026,,,,,,,,,,,,,,,,,,,,,,,,,,,,,,,,,,,,,,,,,00030,001,2025-11-15_18h08.36.625,MST_task,2024.2.0,59.9294390784042,2025-11-15 18h08.41.571378 +0530,
3,practice_images/037a.jpg,9,9,1,None,f,0.5190185999999812,None,,,,,,,,,1,9,9,,,,158.84888950000004,,,,,,,,,,,,,,,,,,,,,,,158.8340932000001,158.84888950000004,159.33354340000005,159.35463879999998,159.35705140000027,159.35705140000027,159.35705140000027,162.34990870000001,None,162.3500511000002,162.36568420000003,162.36568420000003,162.90138800000022,f,0.5190185999999812,None,159.35705140000027,,,,,,,,,,,,,,,,,,,,,,,,,,,,,,,,,,,,,,,,,00030,001,2025-11-15_18h08.36.625,MST_task,2024.2.0,59.9294390784042,2025-11-15 18h08.41.571378 +0530,
,,,,,,,,,,,,,,,,,,,,,,,,,,,,,,,,,,,,,,,,,,,,,,,,,,,,,,,,,,,,,,,,,,,,162.90173360000017,162.91750170000023,162.91750170000023,231.6512898000001,space,68.72764959999995,None,,,,,,,,,,,,,,,,,,,,,,,,,,,,,00030,001,2025-11-15_18h08.36.625,MST_task,2024.2.0,59.9294390784042,2025-11-15 18h08.41.571378 +0530,
,Objects\108a.jpg,0,0,1,,,,,,,j,2.2066860999998426,0.21577139999999417,None,,,,,,1,0,0,231.66551019999997,,,,,,,,,,,,,,,,,,,,,,,231.65412080000033,231.66551019999997,232.14992389999998,,,,,,,,,,,,,,232.17434300000014,,,,,,,,,,,,,232.17090380000036,232.17434300000014,232.17434300000014,232.17434300000014,235.1660138000002,indoor,j,2.2066860999998426,0.21577139999999417,235.17090129999997,235.1709409,None,,,,,,,,,,,,,,,,,00030,001,2025-11-15_18h08.36.625,MST_task,2024.2.0,59.9294390784042,2025-11-15 18h08.41.571378 +0530,
,Objects\003a.jpg,1,0,2,,,,,,,None,,,f,0.7462070999999924,None,,,,2,0,1,235.18182400000023,,,,,,,,,,,,,,,,,,,,,,,235.17107160000023,235.18182400000023,235.66683750000038,,,,,,,,,,,,,,235.68712840000035,,,,,,,,,,,,,235.68453580000005,235.68712840000035,235.68712840000035,235.68712840000035,238.68294910000031,indoor,None,,,238.6831029,239.45129680000036,f,238.6990191,238.6990191,0.7462070999999924,None,,,,,,,,,,,,,00030,001,2025-11-15_18h08.36.625,MST_task,2024.2.0,59.9294390784042,2025-11-15 18h08.41.571378 +0530,
,Objects\240a.jpg,2,0,3,,,,,,,f,2.485289400000056,0.17577739999978803,None,,,,,,3,0,2,239.4654773000002,,,,,,,,,,,,,,,,,,,,,,,239.4516924000004,239.4654773000002,239.94931700000006,,,,,,,,,,,,,,239.96807720000015,,,,,,,,,,,,,239.9650333000004,239.96807720000015,239.96807720000015,239.96807720000015,242.96609960000023,indoor,f,2.485289400000056,0.17577739999978803,242.96630649999997,242.96636800000033,None,,,,,,,,,,,,,,,,,00030,001,2025-11-15_18h08.36.625,MST_task,2024.2.0,59.9294390784042,2025-11-15 18h08.41.571378 +0530,
,Objects\225a.jpg,3,0,4,,,,,,,None,,,f,None,None,,,,4,0,3,242.98198500000035,,,,,,,,,,,,,,,,,,,,,,,242.96666800000003,242.98198500000035,243.46641880000016,,,,,,,,,,,,,,243.4864523000001,,,,,,,,,,,,,243.48353290000023,243.4864523000001,243.4864523000001,243.4864523000001,246.48260040000014,indoor,None,,,246.48275220000005,246.70133190000024,f,246.4988102000002,246.4988102000002,None,None,,,,,,,,,,,,,00030,001,2025-11-15_18h08.36.625,MST_task,2024.2.0,59.9294390784042,2025-11-15 18h08.41.571378 +0530,
,Objects\065a.jpg,4,0,5,,,,,,,None,,,j,0.5325514999999541,None,,,,5,0,4,246.7153773,,,,,,,,,,,,,,,,,,,,,,,246.70166370000015,246.7153773,247.19997580000017,,,,,,,,,,,,,,247.21909570000025,,,,,,,,,,,,,247.21648010000035,247.21909570000025,247.21909570000025,247.21909570000025,250.21611389999998,indoor,None,,,250.2162513000003,250.76742560000002,j,250.232211,250.232211,0.5325514999999541,None,,,,,,,,,,,,,00030,001,2025-11-15_18h08.36.625,MST_task,2024.2.0,59.9294390784042,2025-11-15 18h08.41.571378 +0530,
,Objects\019a.jpg,5,0,6,,,,,,,f,2.638695000000098,0.18407999999999447,None,,,,,,6,0,5,250.78192370000033,,,,,,,,,,,,,,,,,,,,,,,250.76770520000036,250.78192370000033,251.2663818000001,,,,,,,,,,,,,,251.2861527,,,,,,,,,,,,,251.2836572000001,251.2861527,251.2861527,251.2861527,254.2827728000002,indoor,f,2.638695000000098,0.18407999999999447,254.28294780000033,254.28301069999998,None,,,,,,,,,,,,,,,,,00030,001,2025-11-15_18h08.36.625,MST_task,2024.2.0,59.9294390784042,2025-11-15 18h08.41.571378 +0530,
,Objects\081a.jpg,6,0,7,,,,,,,j,2.2670407000000523,0.24032530000022234,None,,,,,,7,0,6,254.2989179000001,,,,,,,,,,,,,,,,,,,,,,,254.28327690000015,254.2989179000001,254.7830997000001,,,,,,,,,,,,,,254.80164120000018,,,,,,,,,,,,,254.7990861000003,254.80164120000018,254.80164120000018,254.80164120000018,257.7997094000002,indoor,j,2.2670407000000523,0.24032530000022234,257.79985540000007,257.7999289000004,None,,,,,,,,,,,,,,,,,00030,001,2025-11-15_18h08.36.625,MST_task,2024.2.0,59.9294390784042,2025-11-15 18h08.41.571378 +0530,
,Objects\279a.jpg,7,0,8,,,,,,,None,,,j,1.2892671999998129,None,,,,8,0,7,257.81540029999996,,,,,,,,,,,,,,,,,,,,,,,257.80031290000034,257.81540029999996,258.29996340000025,,,,,,,,,,,,,,258.3277430000003,,,,,,,,,,,,,258.3253222000003,258.3277430000003,258.3277430000003,258.3277430000003,261.3160697000003,shoe,None,,,261.32346970000026,262.63403900000003,j,261.3318105000003,261.3318105000003,1.2892671999998129,None,,,,,,,,,,,,,00030,001,2025-11-15_18h08.36.625,MST_task,2024.2.0,59.9294390784042,2025-11-15 18h08.41.571378 +0530,
,Objects\235a.jpg,8,0,9,,,,,,,f,2.4442033000000265,0.19170819999999367,None,,,,,,9,0,8,262.6487594,,,,,,,,,,,,,,,,,,,,,,,262.6344097000001,262.6487594,263.13329190000013,,,,,,,,,,,,,,263.15335920000007,,,,,,,,,,,,,263.1503165000004,263.15335920000007,263.15335920000007,263.15335920000007,266.1494950000001,shoe,f,2.4442033000000265,0.19170819999999367,266.14966440000035,266.14972780000016,None,,,,,,,,,,,,,,,,,00030,001,2025-11-15_18h08.36.625,MST_task,2024.2.0,59.9294390784042,2025-11-15 18h08.41.571378 +0530,
,Objects\292a.jpg,9,0,10,,,,,,,None,,,j,0.41104489999997895,None,,,,10,0,9,266.1655237,,,,,,,,,,,,,,,,,,,,,,,266.15002200000026,266.1655237,266.6499632,,,,,,,,,,,,,,266.6698301000001,,,,,,,,,,,,,266.6669278000004,266.6698301000001,266.6698301000001,266.6698301000001,269.6661035000002,shoe,None,,,269.6662465000004,270.1003903000001,j,269.6821149000002,269.6821149000002,0.41104489999997895,None,,,,,,,,,,,,,00030,001,2025-11-15_18h08.36.625,MST_task,2024.2.0,59.9294390784042,2025-11-15 18h08.41.571378 +0530,
,Objects\085a.jpg,10,0,11,,,,,,,None,,,j,0.237105000000156,None,,,,11,0,10,270.1153655000003,,,,,,,,,,,,,,,,,,,,,,,270.1006604000004,270.1153655000003,270.5999367000004,,,,,,,,,,,,,,270.6338208000002,,,,,,,,,,,,,270.6308264000004,270.6338208000002,270.6338208000002,270.6338208000002,273.6160125000001,shoe,None,,,273.6161505,273.88421050000034,j,273.6320369,273.6320369,0.237105000000156,None,,,,,,,,,,,,,00030,001,2025-11-15_18h08.36.625,MST_task,2024.2.0,59.9294390784042,2025-11-15 18h08.41.571378 +0530,
,Objects\287a.jpg,11,0,12,,,,,,,f,2.3220799999999144,0.1514526000000842,None,,,,,,12,0,11,273.8987761000003,,,,,,,,,,,,,,,,,,,,,,,273.8847025,273.8987761000003,274.3835646000002,,,,,,,,,,,,,,274.4032247,,,,,,,,,,,,,274.4002185000004,274.4032247,274.4032247,274.4032247,277.3995043,shoe,f,2.3220799999999144,0.1514526000000842,277.3996556000002,277.39975270000014,None,,,,,,,,,,,,,,,,,00030,001,2025-11-15_18h08.36.625,MST_task,2024.2.0,59.9294390784042,2025-11-15 18h08.41.571378 +0530,
,Objects\245a.jpg,12,0,13,,,,,,,f,1.8144721999997273,0.16721400000005815,None,,,,,,13,0,12,277.41527640000004,,,,,,,,,,,,,,,,,,,,,,,277.4000299000004,277.41527640000004,277.8999861000002,,,,,,,,,,,,,,277.91902960000016,,,,,,,,,,,,,277.9159549000001,277.91902960000016,277.91902960000016,277.91902960000016,280.9160769,shoe,f,1.8144721999997273,0.16721400000005815,280.9162481000003,280.9163096000002,None,,,,,,,,,,,,,,,,,00030,001,2025-11-15_18h08.36.625,MST_task,2024.2.0,59.9294390784042,2025-11-15 18h08.41.571378 +0530,
,Objects\184a.jpg,13,0,14,,,,,,,j,1.8883252999999058,0.2162927999997919,None,,,,,,14,0,13,280.9321947000003,,,,,,,,,,,,,,,,,,,,,,,280.9166091000002,280.9321947000003,281.4170914000001,,,,,,,,,,,,,,281.4363787000002,,,,,,,,,,,,,281.4336465000001,281.4363787000002,281.4363787000002,281.4363787000002,284.4328397000004,shoe,j,1.8883252999999058,0.2162927999997919,284.4330103000002,284.4330737,None,,,,,,,,,,,,,,,,,00030,001,2025-11-15_18h08.36.625,MST_task,2024.2.0,59.9294390784042,2025-11-15 18h08.41.571378 +0530,
,Objects\015a.jpg,14,0,15,,,,,,,f,2.093749300000127,0.15134589999979653,None,,,,,,15,0,14,284.4489037000003,,,,,,,,,,,,,,,,,,,,,,,284.4334901000002,284.4489037000003,284.9328720000003,,,,,,,,,,,,,,284.9519948000002,,,,,,,,,,,,,284.9490936000002,284.9519948000002,284.9519948000002,284.9519948000002,287.94954240000015,indoor,f,2.093749300000127,0.15134589999979653,287.95532040000035,287.9553568000001,None,,,,,,,,,,,,,,,,,00030,001,2025-11-15_18h08.36.625,MST_task,2024.2.0,59.9294390784042,2025-11-15 18h08.41.571378 +0530,
,Objects\244a.jpg,15,0,16,,,,,,,None,,,j,1.7949456999999711,None,,,,16,0,15,287.9654399000001,,,,,,,,,,,,,,,,,,,,,,,287.95550570000023,287.9654399000001,288.4501504,,,,,,,,,,,,,,288.47067300000026,,,,,,,,,,,,,288.4676012,288.47067300000026,288.47067300000026,288.47067300000026,291.4663747000004,indoor,None,,,291.4665326000004,293.2841029000001,j,291.4821098000002,291.4821098000002,1.7949456999999711,None,,,,,,,,,,,,,00030,001,2025-11-15_18h08.36.625,MST_task,2024.2.0,59.9294390784042,2025-11-15 18h08.41.571378 +0530,
,Objects\319a.jpg,16,0,17,,,,,,,None,,,f,0.28512510000018665,None,,,,17,0,16,293.2989604000004,,,,,,,,,,,,,,,,,,,,,,,293.28447080000024,293.2989604000004,293.7835282000001,,,,,,,,,,,,,,293.80481370000007,,,,,,,,,,,,,293.80182230000037,293.80481370000007,293.80481370000007,293.80481370000007,296.7996051,indoor,None,,,296.7997485000001,297.11765590000005,f,296.8155687000003,296.8155687000003,0.28512510000018665,None,,,,,,,,,,,,,00030,001,2025-11-15_18h08.36.625,MST_task,2024.2.0,59.9294390784042,2025-11-15 18h08.41.571378 +0530,
,Objects\049a.jpg,17,0,18,,,,,,,f,2.7361916999998357,0.20715599999994083,None,,,,,,18,0,17,297.1321442000003,,,,,,,,,,,,,,,,,,,,,,,297.1180241000002,297.1321442000003,297.61687150000034,,,,,,,,,,,,,,297.6376800000003,,,,,,,,,,,,,297.63455390000036,297.6376800000003,297.6376800000003,297.6376800000003,300.6328189000001,indoor,f,2.7361916999998357,0.20715599999994083,300.6330101000003,300.6330769000001,None,,,,,,,,,,,,,,,,,00030,001,2025-11-15_18h08.36.625,MST_task,2024.2.0,59.9294390784042,2025-11-15 18h08.41.571378 +0530,
,Objects\142a.jpg,18,0,19,,,,,,,f,2.5397556000002623,0.18406359999971755,None,,,,,,19,0,18,300.6489147000002,,,,,,,,,,,,,,,,,,,,,,,300.6333767000001,300.6489147000002,301.1334466000003,,,,,,,,,,,,,,301.15327260000004,,,,,,,,,,,,,301.1505669000003,301.15327260000004,301.15327260000004,301.15327260000004,304.1496978,indoor,f,2.5397556000002623,0.18406359999971755,304.1499104000004,304.1499713000003,None,,,,,,,,,,,,,,,,,00030,001,2025-11-15_18h08.36.625,MST_task,2024.2.0,59.9294390784042,2025-11-15 18h08.41.571378 +0530,
,Objects\305a.jpg,19,0,20,,,,,,,j,2.623700000000099,0.27180419999967853,None,,,,,,20,0,19,304.16558680000026,,,,,,,,,,,,,,,,,,,,,,,304.15024710000034,304.16558680000026,304.64973740000005,,,,,,,,,,,,,,304.66908690000037,,,,,,,,,,,,,304.6665197000002,304.66908690000037,304.66908690000037,304.66908690000037,307.66593620000003,indoor,j,2.623700000000099,0.27180419999967853,307.6661073,307.66617240000005,None,,,,,,,,,,,,,,,,,00030,001,2025-11-15_18h08.36.625,MST_task,2024.2.0,59.9294390784042,2025-11-15 18h08.41.571378 +0530,
,Objects\322a.jpg,20,0,21,,,,,,,j,2.8264093000002504,None,None,,,,,,21,0,20,307.6818983000003,,,,,,,,,,,,,,,,,,,,,,,307.6665167000001,307.6818983000003,308.1664923000003,,,,,,,,,,,,,,308.1864604000002,,,,,,,,,,,,,308.1834451,308.1864604000002,308.1864604000002,308.1864604000002,311.1824776000003,indoor,j,2.8264093000002504,None,311.18267220000007,311.1827363000002,None,,,,,,,,,,,,,,,,,00030,001,2025-11-15_18h08.36.625,MST_task,2024.2.0,59.9294390784042,2025-11-15 18h08.41.571378 +0530,
,Objects\036a.jpg,21,0,22,,,,,,,f,2.769666800000323,None,None,,,,,,22,0,21,311.1988072000004,,,,,,,,,,,,,,,,,,,,,,,311.1830347,311.1988072000004,311.6829190000003,,,,,,,,,,,,,,311.7075441000002,,,,,,,,,,,,,311.7044148,311.7075441000002,311.7075441000002,311.7075441000002,314.69941960000006,shoe,f,2.769666800000323,None,314.7061786000004,314.7062073000002,None,,,,,,,,,,,,,,,,,00030,001,2025-11-15_18h08.36.625,MST_task,2024.2.0,59.9294390784042,2025-11-15 18h08.41.571378 +0530,
,Objects\163a.jpg,22,0,23,,,,,,,j,2.4260873000002903,0.22394570000005842,None,,,,,,23,0,22,314.71516640000027,,,,,,,,,,,,,,,,,,,,,,,314.706322,314.71516640000027,315.1997389000003,,,,,,,,,,,,,,315.2188890000002,,,,,,,,,,,,,315.2162250000001,315.2188890000002,315.2188890000002,315.2188890000002,318.21609690000014,shoe,j,2.4260873000002903,0.22394570000005842,318.21626460000016,318.21632720000025,None,,,,,,,,,,,,,,,,,00030,001,2025-11-15_18h08.36.625,MST_task,2024.2.0,59.9294390784042,2025-11-15 18h08.41.571378 +0530,
,Objects\080a.jpg,23,0,24,,,,,,,f,2.1334211999997024,0.18427210000027117,None,,,,,,24,0,23,318.23195380000016,,,,,,,,,,,,,,,,,,,,,,,318.2166269000004,318.23195380000016,318.7164684000004,,,,,,,,,,,,,,318.7352751000003,,,,,,,,,,,,,318.7327763000003,318.7352751000003,318.7352751000003,318.7352751000003,321.73215660000005,shoe,f,2.1334211999997024,0.18427210000027117,321.7322253000002,321.73224849999997,None,,,,,,,,,,,,,,,,,00030,001,2025-11-15_18h08.36.625,MST_task,2024.2.0,59.9294390784042,2025-11-15 18h08.41.571378 +0530,
,Objects\125a.jpg,24,0,25,,,,,,,j,1.9589547999999013,0.23156610000023647,None,,,,,,25,0,24,321.74875980000024,,,,,,,,,,,,,,,,,,,,,,,321.7323613000003,321.74875980000024,322.23317160000033,,,,,,,,,,,,,,322.2701519000002,,,,,,,,,,,,,322.26758080000036,322.2701519000002,322.2701519000002,322.2701519000002,325.2325587,shoe,j,1.9589547999999013,0.23156610000023647,325.2327448000001,325.2328051000004,None,,,,,,,,,,,,,,,,,00030,001,2025-11-15_18h08.36.625,MST_task,2024.2.0,59.9294390784042,2025-11-15 18h08.41.571378 +0530,
,Objects\200a.jpg,25,0,26,,,,,,,j,2.232806000000437,0.22395919999962643,None,,,,,,26,0,25,325.24885680000034,,,,,,,,,,,,,,,,,,,,,,,325.2332187000002,325.24885680000034,325.73290050000014,,,,,,,,,,,,,,325.7558591000002,,,,,,,,,,,,,325.75281280000036,325.7558591000002,325.7558591000002,325.7558591000002,328.74882700000035,shoe,j,2.232806000000437,0.22395919999962643,328.74886990000005,328.7488844000004,None,,,,,,,,,,,,,,,,,00030,001,2025-11-15_18h08.36.625,MST_task,2024.2.0,59.9294390784042,2025-11-15 18h08.41.571378 +0530,
,Objects\174a.jpg,26,0,27,,,,,,,f,1.8392551000001731,0.19201189999967028,None,,,,,,27,0,26,328.76540760000034,,,,,,,,,,,,,,,,,,,,,,,328.74895170000036,328.76540760000034,329.2496070000002,,,,,,,,,,,,,,329.26942529999997,,,,,,,,,,,,,329.26655630000005,329.26942529999997,329.26942529999997,329.26942529999997,332.2490925000002,shoe,f,1.8392551000001731,0.19201189999967028,332.2492159000003,332.24925900000017,None,,,,,,,,,,,,,,,,,00030,001,2025-11-15_18h08.36.625,MST_task,2024.2.0,59.9294390784042,2025-11-15 18h08.41.571378 +0530,
,Objects\350a.jpg,27,0,28,,,,,,,j,2.1637817999999243,0.20799060000035752,None,,,,,,28,0,27,332.26531780000005,,,,,,,,,,,,,,,,,,,,,,,332.2495735000002,332.26531780000005,332.7495593000003,,,,,,,,,,,,,,332.76938420000033,,,,,,,,,,,,,332.7662894,332.76938420000033,332.76938420000033,332.76938420000033,335.7662830000004,shoe,j,2.1637817999999243,0.20799060000035752,335.7664503000001,335.7665148000001,None,,,,,,,,,,,,,,,,,00030,001,2025-11-15_18h08.36.625,MST_task,2024.2.0,59.9294390784042,2025-11-15 18h08.41.571378 +0530,
,Objects\368a.jpg,28,0,29,,,,,,,j,2.4040562999998656,0.23168639999994411,None,,,,,,29,0,28,335.7820049000002,,,,,,,,,,,,,,,,,,,,,,,335.7668156,335.7820049000002,336.26673900000014,,,,,,,,,,,,,,336.28897110000025,,,,,,,,,,,,,336.28592070000013,336.28897110000025,336.28897110000025,336.28897110000025,339.28261180000027,indoor,j,2.4040562999998656,0.23168639999994411,339.2888853000004,339.2889289,None,,,,,,,,,,,,,,,,,00030,001,2025-11-15_18h08.36.625,MST_task,2024.2.0,59.9294390784042,2025-11-15 18h08.41.571378 +0530,
,Objects\365a.jpg,29,0,30,,,,,,,f,2.8285279000001537,None,None,,,,,,30,0,29,339.29858570000033,,,,,,,,,,,,,,,,,,,,,,,339.2890814000002,339.29858570000033,339.78316300000006,,,,,,,,,,,,,,339.8008867000003,,,,,,,,,,,,,339.79805320000014,339.8008867000003,339.8008867000003,339.8008867000003,342.7996621000002,indoor,f,2.8285279000001537,None,342.7998319000003,342.7998957,None,,,,,,,,,,,,,,,,,00030,001,2025-11-15_18h08.36.625,MST_task,2024.2.0,59.9294390784042,2025-11-15 18h08.41.571378 +0530,
,Objects\105a.jpg,30,0,31,,,,,,,j,2.767424900000151,None,None,,,,,,31,0,30,342.8154516000004,,,,,,,,,,,,,,,,,,,,,,,342.8001948000001,342.8154516000004,343.3001314000003,,,,,,,,,,,,,,343.31731200000013,,,,,,,,,,,,,343.3143785000002,343.31731200000013,343.31731200000013,343.31731200000013,346.3161164000003,indoor,j,2.767424900000151,None,346.31628660000024,346.3163502000002,None,,,,,,,,,,,,,,,,,00030,001,2025-11-15_18h08.36.625,MST_task,2024.2.0,59.9294390784042,2025-11-15 18h08.41.571378 +0530,
,Objects\348a.jpg,31,0,32,,,,,,,j,2.903887400000258,None,None,,,,,,32,0,31,346.33189200000015,,,,,,,,,,,,,,,,,,,,,,,346.3166451000002,346.33189200000015,346.8166331000002,,,,,,,,,,,,,,346.8372187,,,,,,,,,,,,,346.8342011,346.8372187,346.8372187,346.8372187,349.83263910000005,indoor,j,2.903887400000258,None,349.8328067000002,349.8328695,None,,,,,,,,,,,,,,,,,00030,001,2025-11-15_18h08.36.625,MST_task,2024.2.0,59.9294390784042,2025-11-15 18h08.41.571378 +0530,
,Objects\083a.jpg,32,0,33,,,,,,,f,2.8203387000003204,None,None,,,,,,33,0,32,349.84876729999996,,,,,,,,,,,,,,,,,,,,,,,349.83322750000025,349.84876729999996,350.3330880000003,,,,,,,,,,,,,,350.3531545000001,,,,,,,,,,,,,350.3502864000002,350.3531545000001,350.3531545000001,350.3531545000001,353.3493838000004,indoor,f,2.8203387000003204,None,353.34955130000026,353.3496140000002,None,,,,,,,,,,,,,,,,,00030,001,2025-11-15_18h08.36.625,MST_task,2024.2.0,59.9294390784042,2025-11-15 18h08.41.571378 +0530,
,Objects\281a.jpg,33,0,34,,,,,,,f,2.5066539999997985,0.19252030000006926,None,,,,,,34,0,33,353.365507,,,,,,,,,,,,,,,,,,,,,,,353.3499133,353.365507,353.84994300000017,,,,,,,,,,,,,,353.8741511000003,,,,,,,,,,,,,353.87111840000034,353.8741511000003,353.8741511000003,353.8741511000003,356.8659192,indoor,f,2.5066539999997985,0.19252030000006926,356.8661539,356.8662164000002,None,,,,,,,,,,,,,,,,,00030,001,2025-11-15_18h08.36.625,MST_task,2024.2.0,59.9294390784042,2025-11-15 18h08.41.571378 +0530,
,Objects\058a.jpg,34,0,35,,,,,,,f,2.6661902000000737,0.18380870000009963,None,,,,,,35,0,34,356.8819373000001,,,,,,,,,,,,,,,,,,,,,,,356.8665175000001,356.8819373000001,357.3665794000003,,,,,,,,,,,,,,357.3865162000002,,,,,,,,,,,,,357.3835054000001,357.3865162000002,357.3865162000002,357.3865162000002,360.3824609000003,indoor,f,2.6661902000000737,0.18380870000009963,360.3826436000004,360.3827471000004,None,,,,,,,,,,,,,,,,,00030,001,2025-11-15_18h08.36.625,MST_task,2024.2.0,59.9294390784042,2025-11-15 18h08.41.571378 +0530,
,Objects\251a.jpg,35,0,36,,,,,,,f,2.219963799999732,0.20818450000024313,None,,,,,,36,0,35,360.3987820000002,,,,,,,,,,,,,,,,,,,,,,,360.3830481,360.3987820000002,360.8830048,,,,,,,,,,,,,,360.9049774,,,,,,,,,,,,,360.90185640000027,360.9049774,360.9049774,360.9049774,363.8995395000002,shoe,f,2.219963799999732,0.20818450000024313,363.90675090000013,363.9067882000004,None,,,,,,,,,,,,,,,,,00030,001,2025-11-15_18h08.36.625,MST_task,2024.2.0,59.9294390784042,2025-11-15 18h08.41.571378 +0530,
,Objects\087a.jpg,36,0,37,,,,,,,j,2.137556399999994,0.2317864000001464,None,,,,,,37,0,36,363.9151499000004,,,,,,,,,,,,,,,,,,,,,,,363.90690010000026,363.9151499000004,364.3995590000004,,,,,,,,,,,,,,364.4193667000004,,,,,,,,,,,,,364.4165263,364.4193667000004,364.4193667000004,364.4193667000004,367.4162586000002,shoe,j,2.137556399999994,0.2317864000001464,367.4164459000003,367.4165089000003,None,,,,,,,,,,,,,,,,,00030,001,2025-11-15_18h08.36.625,MST_task,2024.2.0,59.9294390784042,2025-11-15 18h08.41.571378 +0530,
,Objects\113a.jpg,37,0,38,,,,,,,f,1.9332303999999567,0.16790450000007695,None,,,,,,38,0,37,367.43210369999997,,,,,,,,,,,,,,,,,,,,,,,367.41693680000026,367.43210369999997,367.9165631000001,,,,,,,,,,,,,,367.9358507000002,,,,,,,,,,,,,367.93317530000013,367.9358507000002,367.9358507000002,367.9358507000002,370.9325448000004,shoe,f,1.9332303999999567,0.16790450000007695,370.93271060000006,370.93281000000025,None,,,,,,,,,,,,,,,,,00030,001,2025-11-15_18h08.36.625,MST_task,2024.2.0,59.9294390784042,2025-11-15 18h08.41.571378 +0530,
,Objects\020a.jpg,38,0,39,,,,,,,f,1.7523640999997951,0.16001090000008844,None,,,,,,39,0,38,370.9489211,,,,,,,,,,,,,,,,,,,,,,,370.9331062000001,370.9489211,371.4327223,,,,,,,,,,,,,,371.4528723000003,,,,,,,,,,,,,371.4502838000003,371.4528723000003,371.4528723000003,371.4528723000003,374.4491716000002,shoe,f,1.7523640999997951,0.16001090000008844,374.44937930000015,374.44944280000027,None,,,,,,,,,,,,,,,,,00030,001,2025-11-15_18h08.36.625,MST_task,2024.2.0,59.9294390784042,2025-11-15 18h08.41.571378 +0530,
,Objects\372a.jpg,39,0,40,,,,,,,None,,,j,0.015253999999913503,None,,,,40,0,39,374.46543050000037,,,,,,,,,,,,,,,,,,,,,,,374.4498692000002,374.46543050000037,374.9496573000001,,,,,,,,,,,,,,374.9722092000002,,,,,,,,,,,,,374.9690649000004,374.9722092000002,374.9722092000002,374.9722092000002,377.9662601,shoe,None,,,377.96641910000017,378.00065740000036,j,377.9820073000001,377.9820073000001,0.015253999999913503,None,,,,,,,,,,,,,00030,001,2025-11-15_18h08.36.625,MST_task,2024.2.0,59.9294390784042,2025-11-15 18h08.41.571378 +0530,
,Objects\323a.jpg,40,0,41,,,,,,,f,2.165691600000173,0.19265589999986332,None,,,,,,41,0,40,378.01534330000004,,,,,,,,,,,,,,,,,,,,,,,378.00095740000006,378.01534330000004,378.49952810000013,,,,,,,,,,,,,,378.5189462000003,,,,,,,,,,,,,378.51586210000005,378.5189462000003,378.5189462000003,378.5189462000003,381.51606390000006,shoe,f,2.165691600000173,0.19265589999986332,381.5162352000002,381.51630160000013,None,,,,,,,,,,,,,,,,,00030,001,2025-11-15_18h08.36.625,MST_task,2024.2.0,59.9294390784042,2025-11-15 18h08.41.571378 +0530,
,Objects\123a.jpg,41,0,42,,,,,,,j,2.320729300000039,0.21554669999977705,None,,,,,,42,0,41,381.53206100000034,,,,,,,,,,,,,,,,,,,,,,,381.5166373000002,381.53206100000034,382.0166430000004,,,,,,,,,,,,,,382.0363185000001,,,,,,,,,,,,,382.03323610000007,382.0363185000001,382.0363185000001,382.0363185000001,385.03238820000024,shoe,j,2.320729300000039,0.21554669999977705,385.0326011000002,385.03266520000034,None,,,,,,,,,,,,,,,,,00030,001,2025-11-15_18h08.36.625,MST_task,2024.2.0,59.9294390784042,2025-11-15 18h08.41.571378 +0530,
,Objects\248a.jpg,42,0,43,,,,,,,f,2.23337040000024,0.19143139999960113,None,,,,,,43,0,42,385.0487210000001,,,,,,,,,,,,,,,,,,,,,,,385.0329574000002,385.0487210000001,385.5334267000003,,,,,,,,,,,,,,385.5560753,,,,,,,,,,,,,385.5530396000004,385.5560753,385.5560753,385.5560753,388.5495532,indoor,f,2.23337040000024,0.19143139999960113,388.5564895000002,388.5565058000002,None,,,,,,,,,,,,,,,,,00030,001,2025-11-15_18h08.36.625,MST_task,2024.2.0,59.9294390784042,2025-11-15 18h08.41.571378 +0530,
,Objects\353a.jpg,43,0,44,,,,,,,f,2.6392600000003767,0.20774839999967298,None,,,,,,44,0,43,388.56537400000025,,,,,,,,,,,,,,,,,,,,,,,388.5565738,388.56537400000025,389.0501658000003,,,,,,,,,,,,,,389.0696788,,,,,,,,,,,,,389.0667456000001,389.0696788,389.0696788,389.0696788,392.0664082000003,indoor,f,2.6392600000003767,0.20774839999967298,392.0666043000001,392.0666666000002,None,,,,,,,,,,,,,,,,,00030,001,2025-11-15_18h08.36.625,MST_task,2024.2.0,59.9294390784042,2025-11-15 18h08.41.571378 +0530,
,Objects\176a.jpg,44,0,45,,,,,,,j,1.730340900000101,0.24857579999979862,None,,,,,,45,0,44,392.08202040000015,,,,,,,,,,,,,,,,,,,,,,,392.0669716000002,392.08202040000015,392.56661540000005,,,,,,,,,,,,,,392.5866698,,,,,,,,,,,,,392.5837333000004,392.5866698,392.5866698,392.5866698,395.5827306000001,indoor,j,1.730340900000101,0.24857579999979862,395.5828969000004,395.58295940000016,None,,,,,,,,,,,,,,,,,00030,001,2025-11-15_18h08.36.625,MST_task,2024.2.0,59.9294390784042,2025-11-15 18h08.41.571378 +0530,
,Objects\195a.jpg,45,0,46,,,,,,,j,2.4408762999996725,0.24694170000020677,None,,,,,,46,0,45,395.5989436,,,,,,,,,,,,,,,,,,,,,,,395.58330620000015,395.5989436,396.08335420000003,,,,,,,,,,,,,,396.10064630000034,,,,,,,,,,,,,396.09760810000034,396.10064630000034,396.10064630000034,396.10064630000034,399.09966980000036,indoor,j,2.4408762999996725,0.24694170000020677,399.09984440000017,399.0999079000003,None,,,,,,,,,,,,,,,,,00030,001,2025-11-15_18h08.36.625,MST_task,2024.2.0,59.9294390784042,2025-11-15 18h08.41.571378 +0530,
,Objects\045a.jpg,46,0,47,,,,,,,j,1.9203274999999849,0.2316728000000694,None,,,,,,47,0,46,399.1155090000002,,,,,,,,,,,,,,,,,,,,,,,399.1002037000003,399.1155090000002,399.5996205000001,,,,,,,,,,,,,,399.6211251,,,,,,,,,,,,,399.61813070000017,399.6211251,399.6211251,399.6211251,402.6160754000002,indoor,j,1.9203274999999849,0.2316728000000694,402.6163889000004,402.6164668000001,None,,,,,,,,,,,,,,,,,00030,001,2025-11-15_18h08.36.625,MST_task,2024.2.0,59.9294390784042,2025-11-15 18h08.41.571378 +0530,
,Objects\308a.jpg,47,0,48,,,,,,,f,1.7420923999998195,0.19218790000013541,None,,,,,,48,0,47,402.63205080000034,,,,,,,,,,,,,,,,,,,,,,,402.6167644000002,402.63205080000034,403.1166558,,,,,,,,,,,,,,403.1346633000003,,,,,,,,,,,,,403.13209350000034,403.1346633000003,403.1346633000003,403.1346633000003,406.1325557,indoor,f,1.7420923999998195,0.19218790000013541,406.13272380000035,406.1327862000003,None,,,,,,,,,,,,,,,,,00030,001,2025-11-15_18h08.36.625,MST_task,2024.2.0,59.9294390784042,2025-11-15 18h08.41.571378 +0530,
,Objects\101a.jpg,48,0,49,,,,,,,j,2.7195418999999674,0.2317665999999008,None,,,,,,49,0,48,406.1487677,,,,,,,,,,,,,,,,,,,,,,,406.1331203,406.1487677,406.6331643000003,,,,,,,,,,,,,,406.65425200000027,,,,,,,,,,,,,406.6515161000002,406.65425200000027,406.65425200000027,406.65425200000027,409.6491272000003,indoor,j,2.7195418999999674,0.2317665999999008,409.6492508000001,409.64929580000035,None,,,,,,,,,,,,,,,,,00030,001,2025-11-15_18h08.36.625,MST_task,2024.2.0,59.9294390784042,2025-11-15 18h08.41.571378 +0530,
,Objects\270a.jpg,49,0,50,,,,,,,j,2.526066799999626,0.24032160000024305,None,,,,,,50,0,49,409.6655135000001,,,,,,,,,,,,,,,,,,,,,,,409.6494952000003,409.6655135000001,410.1497724000001,,,,,,,,,,,,,,410.1749285000001,,,,,,,,,,,,,410.1718484000003,410.1749285000001,410.1749285000001,410.1749285000001,413.1496000000002,shoe,j,2.526066799999626,0.24032160000024305,413.15605760000017,413.15607520000003,None,,,,,,,,,,,,,,,,,00030,001,2025-11-15_18h08.36.625,MST_task,2024.2.0,59.9294390784042,2025-11-15 18h08.41.571378 +0530,
,Objects\188a.jpg,50,0,51,,,,,,,f,2.3458851000000323,0.19963250000000698,None,,,,,,51,0,50,413.165524,,,,,,,,,,,,,,,,,,,,,,,413.1561449000001,413.165524,413.6493962000004,,,,,,,,,,,,,,413.667379,,,,,,,,,,,,,413.66438640000024,413.667379,413.667379,413.667379,416.6659950000003,shoe,f,2.3458851000000323,0.19963250000000698,416.6661809000002,416.66624130000037,None,,,,,,,,,,,,,,,,,00030,001,2025-11-15_18h08.36.625,MST_task,2024.2.0,59.9294390784042,2025-11-15 18h08.41.571378 +0530,
,Objects\060a.jpg,51,0,52,,,,,,,j,1.9998974999998609,0.2167371999998977,None,,,,,,52,0,51,416.68207980000034,,,,,,,,,,,,,,,,,,,,,,,416.6667212000002,416.68207980000034,417.1665476000003,,,,,,,,,,,,,,417.1886026000002,,,,,,,,,,,,,417.18607020000036,417.1886026000002,417.1886026000002,417.1886026000002,420.18259260000013,shoe,j,1.9998974999998609,0.2167371999998977,420.18275630000016,420.1828161000003,None,,,,,,,,,,,,,,,,,00030,001,2025-11-15_18h08.36.625,MST_task,2024.2.0,59.9294390784042,2025-11-15 18h08.41.571378 +0530,
,Objects\181a.jpg,52,0,53,,,,,,,j,1.7476087000000007,0.20717740000009144,None,,,,,,53,0,52,420.19884,,,,,,,,,,,,,,,,,,,,,,,420.18311170000015,420.19884,420.6832314000003,,,,,,,,,,,,,,420.72209900000007,,,,,,,,,,,,,420.71938930000033,420.72209900000007,420.72209900000007,420.72209900000007,423.6992677000003,shoe,j,1.7476087000000007,0.20717740000009144,423.6994356,423.6994982000001,None,,,,,,,,,,,,,,,,,00030,001,2025-11-15_18h08.36.625,MST_task,2024.2.0,59.9294390784042,2025-11-15 18h08.41.571378 +0530,
,Objects\232a.jpg,53,0,54,,,,,,,f,1.5828919999999016,0.18455230000017764,None,,,,,,54,0,53,423.7154475000002,,,,,,,,,,,,,,,,,,,,,,,423.69981020000023,423.7154475000002,424.1997212000001,,,,,,,,,,,,,,424.22168150000016,,,,,,,,,,,,,424.2184721000003,424.22168150000016,424.22168150000016,424.22168150000016,427.2160842000003,shoe,f,1.5828919999999016,0.18455230000017764,427.21622560000014,427.2162760000001,None,,,,,,,,,,,,,,,,,00030,001,2025-11-15_18h08.36.625,MST_task,2024.2.0,59.9294390784042,2025-11-15 18h08.41.571378 +0530,
,Objects\132a.jpg,54,0,55,,,,,,,f,1.4900484999998298,0.16841909999993732,None,,,,,,55,0,54,427.2318516,,,,,,,,,,,,,,,,,,,,,,,427.2165262000003,427.2318516,427.7164837,,,,,,,,,,,,,,427.7547724000001,,,,,,,,,,,,,427.75171500000033,427.7547724000001,427.7547724000001,427.7547724000001,430.7325842,shoe,f,1.4900484999998298,0.16841909999993732,430.73275409999997,430.7328152,None,,,,,,,,,,,,,,,,,00030,001,2025-11-15_18h08.36.625,MST_task,2024.2.0,59.9294390784042,2025-11-15 18h08.41.571378 +0530,
,Objects\265a.jpg,55,0,56,,,,,,,j,1.9752849000001333,0.2155366000001777,None,,,,,,56,0,55,430.74879280000005,,,,,,,,,,,,,,,,,,,,,,,430.73323070000015,430.74879280000005,431.23310330000004,,,,,,,,,,,,,,431.2538641000001,,,,,,,,,,,,,431.2507606000004,431.2538641000001,431.2538641000001,431.2538641000001,434.24948730000006,shoe,j,1.9752849000001333,0.2155366000001777,434.24969950000013,434.24976540000034,None,,,,,,,,,,,,,,,,,00030,001,2025-11-15_18h08.36.625,MST_task,2024.2.0,59.9294390784042,2025-11-15 18h08.41.571378 +0530,
,Objects\249a.jpg,56,0,57,,,,,,,f,2.3706631999998535,0.19256720000021232,None,,,,,,57,0,56,434.26535950000016,,,,,,,,,,,,,,,,,,,,,,,434.25006120000035,434.26535950000016,434.7498762,,,,,,,,,,,,,,434.7700299000003,,,,,,,,,,,,,434.7669774000001,434.7700299000003,434.7700299000003,434.7700299000003,437.76583260000007,indoor,f,2.3706631999998535,0.19256720000021232,437.7716663000001,437.7717053000001,None,,,,,,,,,,,,,,,,,00030,001,2025-11-15_18h08.36.625,MST_task,2024.2.0,59.9294390784042,2025-11-15 18h08.41.571378 +0530,
,Objects\326a.jpg,57,0,58,,,,,,,None,,,f,1.3143777000000227,None,,,,58,0,57,437.7818702000004,,,,,,,,,,,,,,,,,,,,,,,437.7718522,437.7818702000004,438.26623910000035,,,,,,,,,,,,,,438.2878178000001,,,,,,,,,,,,,438.28478110000015,438.2878178000001,438.2878178000001,438.2878178000001,441.28256390000024,indoor,None,,,441.2827135000002,442.616798,f,441.2988088000002,441.2988088000002,1.3143777000000227,None,,,,,,,,,,,,,00030,001,2025-11-15_18h08.36.625,MST_task,2024.2.0,59.9294390784042,2025-11-15 18h08.41.571378 +0530,
,Objects\310a.jpg,58,0,59,,,,,,,j,2.8347893999998632,None,None,,,,,,59,0,58,442.6317718,,,,,,,,,,,,,,,,,,,,,,,442.6170683,442.6317718,443.1166112000001,,,,,,,,,,,,,,443.13853270000027,,,,,,,,,,,,,443.1352700000002,443.13853270000027,443.13853270000027,443.13853270000027,446.13259340000013,indoor,j,2.8347893999998632,None,446.1327566,446.13281940000024,None,,,,,,,,,,,,,,,,,00030,001,2025-11-15_18h08.36.625,MST_task,2024.2.0,59.9294390784042,2025-11-15 18h08.41.571378 +0530,
,Objects\197a.jpg,59,0,60,,,,,,,j,2.6086331000001337,0.23110510000014983,None,,,,,,60,0,59,446.1487796000001,,,,,,,,,,,,,,,,,,,,,,,446.13310920000004,446.1487796000001,446.6332503000003,,,,,,,,,,,,,,446.65279580000015,,,,,,,,,,,,,446.6498308,446.65279580000015,446.65279580000015,446.65279580000015,449.64937750000036,indoor,j,2.6086331000001337,0.23110510000014983,449.6495417000001,449.64960280000014,None,,,,,,,,,,,,,,,,,00030,001,2025-11-15_18h08.36.625,MST_task,2024.2.0,59.9294390784042,2025-11-15 18h08.41.571378 +0530,
,Objects\221a.jpg,60,0,61,,,,,,,None,,,j,0.04686600000013641,None,,,,61,0,60,449.6654276000004,,,,,,,,,,,,,,,,,,,,,,,449.64989790000027,449.6654276000004,450.14979700000004,,,,,,,,,,,,,,450.1707643,,,,,,,,,,,,,450.16764200000034,450.1707643,450.1707643,450.1707643,453.16607820000036,indoor,None,,,453.16622810000035,453.2338785000002,j,453.18189710000024,453.18189710000024,0.04686600000013641,None,,,,,,,,,,,,,00030,001,2025-11-15_18h08.36.625,MST_task,2024.2.0,59.9294390784042,2025-11-15 18h08.41.571378 +0530,
,Objects\144a.jpg,61,0,62,,,,,,,f,2.2907154999998056,0.20784349999985352,None,,,,,,62,0,61,453.2486705000001,,,,,,,,,,,,,,,,,,,,,,,453.23419950000016,453.2486705000001,453.7328620000003,,,,,,,,,,,,,,453.75408160000006,,,,,,,,,,,,,453.75120600000037,453.75408160000006,453.75408160000006,453.75408160000006,456.74927860000025,indoor,f,2.2907154999998056,0.20784349999985352,456.7494463000003,456.7495117000003,None,,,,,,,,,,,,,,,,,00030,001,2025-11-15_18h08.36.625,MST_task,2024.2.0,59.9294390784042,2025-11-15 18h08.41.571378 +0530,
,Objects\179a.jpg,62,0,63,,,,,,,f,2.1683718999997836,0.2161455999998907,None,,,,,,63,0,62,456.76536350000015,,,,,,,,,,,,,,,,,,,,,,,456.7498092000001,456.76536350000015,457.25000120000004,,,,,,,,,,,,,,457.2680883000003,,,,,,,,,,,,,457.2654109,457.2680883000003,457.2680883000003,457.2680883000003,460.2661750000002,indoor,f,2.1683718999997836,0.2161455999998907,460.26636110000027,460.2664246000004,None,,,,,,,,,,,,,,,,,00030,001,2025-11-15_18h08.36.625,MST_task,2024.2.0,59.9294390784042,2025-11-15 18h08.41.571378 +0530,
,Objects\048a.jpg,63,0,64,,,,,,,j,1.753931300000204,0.24036429999978282,None,,,,,,64,0,63,460.2819851000004,,,,,,,,,,,,,,,,,,,,,,,460.26671940000006,460.2819851000004,460.76651310000034,,,,,,,,,,,,,,460.7868977000003,,,,,,,,,,,,,460.7842434000004,460.7868977000003,460.7868977000003,460.7868977000003,463.7823991,shoe,j,1.753931300000204,0.24036429999978282,463.7889689000003,463.78899950000005,None,,,,,,,,,,,,,,,,,00030,001,2025-11-15_18h08.36.625,MST_task,2024.2.0,59.9294390784042,2025-11-15 18h08.41.571378 +0530,
,Objects\095a.jpg,64,0,65,,,,,,,None,,,f,0.6897094000000834,None,,,,65,0,64,463.79840620000004,,,,,,,,,,,,,,,,,,,,,,,463.7891152000002,463.79840620000004,464.2831358000003,,,,,,,,,,,,,,464.30292310000004,,,,,,,,,,,,,464.30029860000013,464.30292310000004,464.30292310000004,464.30292310000004,467.29963350000025,shoe,None,,,467.2998099000001,468.0172727000004,f,467.3154466000001,467.3154466000001,0.6897094000000834,None,,,,,,,,,,,,,00030,001,2025-11-15_18h08.36.625,MST_task,2024.2.0,59.9294390784042,2025-11-15 18h08.41.571378 +0530,
,Objects\129a.jpg,65,0,66,,,,,,,f,2.2920036999998956,0.19985600000018167,None,,,,,,66,0,65,468.0319943000004,,,,,,,,,,,,,,,,,,,,,,,468.0178073000002,468.0319943000004,468.51673400000027,,,,,,,,,,,,,,468.5372647000004,,,,,,,,,,,,,468.5345620000003,468.5372647000004,468.5372647000004,468.5372647000004,471.5324936000002,shoe,f,2.2920036999998956,0.19985600000018167,471.5326825000002,471.5327492000001,None,,,,,,,,,,,,,,,,,00030,001,2025-11-15_18h08.36.625,MST_task,2024.2.0,59.9294390784042,2025-11-15 18h08.41.571378 +0530,
,Objects\210a.jpg,66,0,67,,,,,,,f,2.559158500000194,0.19254899999987174,None,,,,,,67,0,66,471.5487228000002,,,,,,,,,,,,,,,,,,,,,,,471.5331511000004,471.5487228000002,472.0329343000003,,,,,,,,,,,,,,472.05352900000025,,,,,,,,,,,,,472.05047630000035,472.05352900000025,472.05352900000025,472.05352900000025,475.04927050000015,shoe,f,2.559158500000194,0.19254899999987174,475.04950180000014,475.0495645000001,None,,,,,,,,,,,,,,,,,00030,001,2025-11-15_18h08.36.625,MST_task,2024.2.0,59.9294390784042,2025-11-15 18h08.41.571378 +0530,
,Objects\243a.jpg,67,0,68,,,,,,,f,1.556880799999817,0.20830770000020493,None,,,,,,68,0,67,475.06542850000005,,,,,,,,,,,,,,,,,,,,,,,475.0498650000004,475.06542850000005,475.54973040000004,,,,,,,,,,,,,,475.56770159999996,,,,,,,,,,,,,475.5650923000003,475.56770159999996,475.56770159999996,475.56770159999996,478.5661890000001,shoe,f,1.556880799999817,0.20830770000020493,478.5665261000004,478.5666342000004,None,,,,,,,,,,,,,,,,,00030,001,2025-11-15_18h08.36.625,MST_task,2024.2.0,59.9294390784042,2025-11-15 18h08.41.571378 +0530,
,Objects\306a.jpg,68,0,69,,,,,,,f,2.34584679999989,0.19987489999994068,None,,,,,,69,0,68,478.58269940000037,,,,,,,,,,,,,,,,,,,,,,,478.5669573,478.58269940000037,479.0667375000003,,,,,,,,,,,,,,479.10710240000026,,,,,,,,,,,,,479.1041021000001,479.10710240000026,479.10710240000026,479.10710240000026,482.0820735000002,shoe,f,2.34584679999989,0.19987489999994068,482.08213810000007,482.0821606000004,None,,,,,,,,,,,,,,,,,00030,001,2025-11-15_18h08.36.625,MST_task,2024.2.0,59.9294390784042,2025-11-15 18h08.41.571378 +0530,
,Objects\147a.jpg,69,0,70,,,,,,,j,2.7286235999999917,0.2233848000000762,None,,,,,,70,0,69,482.0985862000002,,,,,,,,,,,,,,,,,,,,,,,482.0823362000001,482.0985862000002,482.5830540000002,,,,,,,,,,,,,,482.6048407000003,,,,,,,,,,,,,482.6018267000004,482.6048407000003,482.6048407000003,482.6048407000003,485.5828765000001,shoe,j,2.7286235999999917,0.2233848000000762,485.5830496000003,485.58311460000004,None,,,,,,,,,,,,,,,,,00030,001,2025-11-15_18h08.36.625,MST_task,2024.2.0,59.9294390784042,2025-11-15 18h08.41.571378 +0530,
,Objects\246a.jpg,70,0,71,,,,,,,None,,,f,0.5215809000001173,None,,,,71,0,70,485.59868080000024,,,,,,,,,,,,,,,,,,,,,,,485.5834138,485.59868080000024,486.0831866000003,,,,,,,,,,,,,,486.1045875,,,,,,,,,,,,,486.1015636000002,486.1045875,486.1045875,486.1045875,489.09921940000004,indoor,None,,,489.1045107,489.65065000000004,f,489.1152321000004,489.1152321000004,0.5215809000001173,None,,,,,,,,,,,,,00030,001,2025-11-15_18h08.36.625,MST_task,2024.2.0,59.9294390784042,2025-11-15 18h08.41.571378 +0530,
,Objects\088a.jpg,71,0,72,,,,,,,None,,,f,0.04711139999972147,None,,,,72,0,71,489.66545320000023,,,,,,,,,,,,,,,,,,,,,,,489.65103050000016,489.66545320000023,490.15016220000007,,,,,,,,,,,,,,490.1709817000001,,,,,,,,,,,,,490.1682982000002,490.1709817000001,490.1709817000001,490.1709817000001,493.1658510000002,indoor,None,,,493.16599859999997,493.2337021000003,f,493.1817833,493.1817833,0.04711139999972147,None,,,,,,,,,,,,,00030,001,2025-11-15_18h08.36.625,MST_task,2024.2.0,59.9294390784042,2025-11-15 18h08.41.571378 +0530,
,Objects\137a.jpg,72,0,73,,,,,,,j,2.860986700000012,None,None,,,,,,73,0,72,493.2485348,,,,,,,,,,,,,,,,,,,,,,,493.234066,493.2485348,493.7325541,,,,,,,,,,,,,,493.7516581,,,,,,,,,,,,,493.7489894,493.7516581,493.7516581,493.7516581,496.74921630000017,indoor,j,2.860986700000012,None,496.7493314000003,496.74936960000014,None,,,,,,,,,,,,,,,,,00030,001,2025-11-15_18h08.36.625,MST_task,2024.2.0,59.9294390784042,2025-11-15 18h08.41.571378 +0530,
,Objects\313a.jpg,73,0,74,,,,,,,j,2.0324037000000317,0.1846362000001136,None,,,,,,74,0,73,496.7652398,,,,,,,,,,,,,,,,,,,,,,,496.74955260000024,496.7652398,497.2496216000004,,,,,,,,,,,,,,497.26848689999997,,,,,,,,,,,,,497.26590490000035,497.26848689999997,497.26848689999997,497.26848689999997,500.26603820000037,indoor,j,2.0324037000000317,0.1846362000001136,500.2662212,500.2662811,None,,,,,,,,,,,,,,,,,00030,001,2025-11-15_18h08.36.625,MST_task,2024.2.0,59.9294390784042,2025-11-15 18h08.41.571378 +0530,
,Objects\107a.jpg,74,0,75,,,,,,,j,2.060202300000128,0.22407169999996768,None,,,,,,75,0,74,500.2819569000003,,,,,,,,,,,,,,,,,,,,,,,500.2665857000002,500.2819569000003,500.7665748000004,,,,,,,,,,,,,,500.78427850000026,,,,,,,,,,,,,500.7815793,500.78427850000026,500.78427850000026,500.78427850000026,503.78256290000036,indoor,j,2.060202300000128,0.22407169999996768,503.782725,503.78278930000033,None,,,,,,,,,,,,,,,,,00030,001,2025-11-15_18h08.36.625,MST_task,2024.2.0,59.9294390784042,2025-11-15 18h08.41.571378 +0530,
,Objects\150a.jpg,75,0,76,,,,,,,f,2.748578600000201,None,None,,,,,,76,0,75,503.79854820000037,,,,,,,,,,,,,,,,,,,,,,,503.7830874000001,503.79854820000037,504.2828148000003,,,,,,,,,,,,,,504.32056720000037,,,,,,,,,,,,,504.3179123,504.32056720000037,504.32056720000037,504.32056720000037,507.29917620000015,indoor,f,2.748578600000201,None,507.2993338000001,507.29939520000016,None,,,,,,,,,,,,,,,,,00030,001,2025-11-15_18h08.36.625,MST_task,2024.2.0,59.9294390784042,2025-11-15 18h08.41.571378 +0530,
,Objects\082a.jpg,76,0,77,,,,,,,None,,,j,0.5815090000000964,None,,,,77,0,76,507.3152954000002,,,,,,,,,,,,,,,,,,,,,,,507.2997247000003,507.3152954000002,507.8001227,,,,,,,,,,,,,,507.8184653000003,,,,,,,,,,,,,507.8157690000003,507.8184653000003,507.8184653000003,507.8184653000003,510.81580950000034,indoor,None,,,510.8159505000003,511.4179358000001,j,510.8318455000003,510.8318455000003,0.5815090000000964,None,,,,,,,,,,,,,00030,001,2025-11-15_18h08.36.625,MST_task,2024.2.0,59.9294390784042,2025-11-15 18h08.41.571378 +0530,
,Objects\078a.jpg,77,0,78,,,,,,,j,2.686097599999812,0.216079499999978,None,,,,,,78,0,77,511.43178960000023,,,,,,,,,,,,,,,,,,,,,,,511.4182311000004,511.43178960000023,511.9164316000001,,,,,,,,,,,,,,511.94302970000035,,,,,,,,,,,,,511.94038990000035,511.94302970000035,511.94302970000035,511.94302970000035,514.9324484000003,shoe,j,2.686097599999812,0.216079499999978,514.9391799,514.9392085000004,None,,,,,,,,,,,,,,,,,00030,001,2025-11-15_18h08.36.625,MST_task,2024.2.0,59.9294390784042,2025-11-15 18h08.41.571378 +0530,
,Objects\162a.jpg,78,0,79,,,,,,,f,2.6554323000000295,0.19151170000031925,None,,,,,,79,0,78,514.9484855000001,,,,,,,,,,,,,,,,,,,,,,,514.9393401000002,514.9484855000001,515.4329421000002,,,,,,,,,,,,,,515.4538600000001,,,,,,,,,,,,,515.4510895000003,515.4538600000001,515.4538600000001,515.4538600000001,518.4492288000001,shoe,f,2.6554323000000295,0.19151170000031925,518.4494208000001,518.4494828000002,None,,,,,,,,,,,,,,,,,00030,001,2025-11-15_18h08.36.625,MST_task,2024.2.0,59.9294390784042,2025-11-15 18h08.41.571378 +0530,
,Objects\374a.jpg,79,0,80,,,,,,,f,1.644326699999965,0.1837547000000086,None,,,,,,80,0,79,518.4656896000001,,,,,,,,,,,,,,,,,,,,,,,518.4497845000001,518.4656896000001,518.9498997000001,,,,,,,,,,,,,,518.9688113000002,,,,,,,,,,,,,518.9656771,518.9688113000002,518.9688113000002,518.9688113000002,521.965901,shoe,f,1.644326699999965,0.1837547000000086,521.9662227000003,521.9663005000002,None,,,,,,,,,,,,,,,,,00030,001,2025-11-15_18h08.36.625,MST_task,2024.2.0,59.9294390784042,2025-11-15 18h08.41.571378 +0530,
,Objects\106a.jpg,80,0,81,,,,,,,f,2.258787299999767,0.21612520000007862,None,,,,,,81,0,80,521.9819456,,,,,,,,,,,,,,,,,,,,,,,521.9667301000004,521.9819456,522.4662630000003,,,,,,,,,,,,,,522.4897434000004,,,,,,,,,,,,,522.4866405000002,522.4897434000004,522.4897434000004,522.4897434000004,525.4824473000003,shoe,f,2.258787299999767,0.21612520000007862,525.4826406000002,525.4827048000002,None,,,,,,,,,,,,,,,,,00030,001,2025-11-15_18h08.36.625,MST_task,2024.2.0,59.9294390784042,2025-11-15 18h08.41.571378 +0530,
,Objects\117a.jpg,81,0,82,,,,,,,None,,,j,0.27768060000016703,None,,,,82,0,81,525.4986231000003,,,,,,,,,,,,,,,,,,,,,,,525.4831137000001,525.4986231000003,525.9831424000004,,,,,,,,,,,,,,526.0035334000004,,,,,,,,,,,,,526.0008871,526.0035334000004,526.0035334000004,526.0035334000004,528.9994923000004,shoe,None,,,528.9996372,529.3013702000003,j,529.0152671000001,529.0152671000001,0.27768060000016703,None,,,,,,,,,,,,,00030,001,2025-11-15_18h08.36.625,MST_task,2024.2.0,59.9294390784042,2025-11-15 18h08.41.571378 +0530,
,Objects\007a.jpg,82,0,83,,,,,,,None,,,f,2.221297499999764,None,,,,83,0,82,529.3152775000003,,,,,,,,,,,,,,,,,,,,,,,529.3017318000002,529.3152775000003,529.8000436000002,,,,,,,,,,,,,,529.8186055000001,,,,,,,,,,,,,529.8159674000003,529.8186055000001,529.8186055000001,529.8186055000001,532.8157841000002,shoe,None,,,532.8159255,535.066984,f,532.8318902000001,532.8318902000001,2.221297499999764,None,,,,,,,,,,,,,00030,001,2025-11-15_18h08.36.625,MST_task,2024.2.0,59.9294390784042,2025-11-15 18h08.41.571378 +0530,
,Objects\290a.jpg,83,0,84,,,,,,,j,2.0897054000001845,0.22412660000009055,None,,,,,,84,0,83,535.0818824000003,,,,,,,,,,,,,,,,,,,,,,,535.0674284000002,535.0818824000003,535.5662851000002,,,,,,,,,,,,,,535.5873046000002,,,,,,,,,,,,,535.5843547000004,535.5873046000002,535.5873046000002,535.5873046000002,538.5825208000001,shoe,j,2.0897054000001845,0.22412660000009055,538.5826860000002,538.5827498000003,None,,,,,,,,,,,,,,,,,00030,001,2025-11-15_18h08.36.625,MST_task,2024.2.0,59.9294390784042,2025-11-15 18h08.41.571378 +0530,
,Objects\102a.jpg,84,0,85,,,,,,,f,2.198366700000406,0.21588819999988118,None,,,,,,85,0,84,538.5985371000002,,,,,,,,,,,,,,,,,,,,,,,538.5830421000001,538.5985371000002,539.0834358000002,,,,,,,,,,,,,,539.1025147,,,,,,,,,,,,,539.0994316000001,539.1025147,539.1025147,539.1025147,542.0992210000004,indoor,f,2.198366700000406,0.21588819999988118,542.1050313000001,542.1050678000001,None,,,,,,,,,,,,,,,,,00030,001,2025-11-15_18h08.36.625,MST_task,2024.2.0,59.9294390784042,2025-11-15 18h08.41.571378 +0530,
,Objects\303a.jpg,85,0,86,,,,,,,j,2.4687377999998716,0.20078899999998612,None,,,,,,86,0,85,542.1150582,,,,,,,,,,,,,,,,,,,,,,,542.1052073000001,542.1150582,542.5996210000003,,,,,,,,,,,,,,542.6238092000003,,,,,,,,,,,,,542.6208112000004,542.6238092000003,542.6238092000003,542.6238092000003,545.6159946000002,indoor,j,2.4687377999998716,0.20078899999998612,545.6161586000003,545.6162199,None,,,,,,,,,,,,,,,,,00030,001,2025-11-15_18h08.36.625,MST_task,2024.2.0,59.9294390784042,2025-11-15 18h08.41.571378 +0530,
,Objects\098a.jpg,86,0,87,,,,,,,f,2.6209439999997812,0.20798640000020896,None,,,,,,87,0,86,545.6317641,,,,,,,,,,,,,,,,,,,,,,,545.6165131000002,545.6317641,546.1165972000003,,,,,,,,,,,,,,546.1361432000003,,,,,,,,,,,,,546.1331679,546.1361432000003,546.1361432000003,546.1361432000003,549.1323126000002,indoor,f,2.6209439999997812,0.20798640000020896,549.1325064000002,549.1325726,None,,,,,,,,,,,,,,,,,00030,001,2025-11-15_18h08.36.625,MST_task,2024.2.0,59.9294390784042,2025-11-15 18h08.41.571378 +0530,
,Objects\155a.jpg,87,0,88,,,,,,,None,,,j,0.1952793999998903,None,,,,88,0,87,549.1487110000003,,,,,,,,,,,,,,,,,,,,,,,549.1328701000002,549.1487110000003,549.6329312000003,,,,,,,,,,,,,,549.6518369,,,,,,,,,,,,,549.6491962,549.6518369,549.6518369,549.6518369,552.6489492000001,indoor,None,,,552.6491073000002,552.8670169000002,j,552.6651055000002,552.6651055000002,0.1952793999998903,None,,,,,,,,,,,,,00030,001,2025-11-15_18h08.36.625,MST_task,2024.2.0,59.9294390784042,2025-11-15 18h08.41.571378 +0530,
,Objects\339a.jpg,88,0,89,,,,,,,j,2.1562588000001597,0.19999259999985952,None,,,,,,89,0,88,552.8818563,,,,,,,,,,,,,,,,,,,,,,,552.8673261000004,552.8818563,553.3666445000003,,,,,,,,,,,,,,553.3850142000001,,,,,,,,,,,,,553.3820232000003,553.3850142000001,553.3850142000001,553.3850142000001,556.3823998000003,indoor,j,2.1562588000001597,0.19999259999985952,556.3825667000001,556.3826298000004,None,,,,,,,,,,,,,,,,,00030,001,2025-11-15_18h08.36.625,MST_task,2024.2.0,59.9294390784042,2025-11-15 18h08.41.571378 +0530,
,Objects\280a.jpg,89,0,90,,,,,,,f,1.1587922000003346,0.19163449999996374,None,,,,,,90,0,89,556.3985855000001,,,,,,,,,,,,,,,,,,,,,,,556.3829250000003,556.3985855000001,556.8827660000002,,,,,,,,,,,,,,556.9024293000002,,,,,,,,,,,,,556.8995448000001,556.9024293000002,556.9024293000002,556.9024293000002,559.8991722000001,indoor,f,1.1587922000003346,0.19163449999996374,559.8993125000002,559.8993639,None,,,,,,,,,,,,,,,,,00030,001,2025-11-15_18h08.36.625,MST_task,2024.2.0,59.9294390784042,2025-11-15 18h08.41.571378 +0530,
,Objects\118a.jpg,90,0,91,,,,,,,j,2.3614816999997856,0.23209480000014082,None,,,,,,91,0,90,559.9152056000003,,,,,,,,,,,,,,,,,,,,,,,559.8996148000001,559.9152056000003,560.3997368,,,,,,,,,,,,,,560.4191668000003,,,,,,,,,,,,,560.4165227000003,560.4191668000003,560.4191668000003,560.4191668000003,563.4158651000002,indoor,j,2.3614816999997856,0.23209480000014082,563.4160584000001,563.4161154000003,None,,,,,,,,,,,,,,,,,00030,001,2025-11-15_18h08.36.625,MST_task,2024.2.0,59.9294390784042,2025-11-15 18h08.41.571378 +0530,
,Objects\285a.jpg,91,0,92,,,,,,,f,2.719482599999992,0.18378960000018196,None,,,,,,92,0,91,563.4317417000002,,,,,,,,,,,,,,,,,,,,,,,563.4163863000003,563.4317417000002,563.9164171000002,,,,,,,,,,,,,,563.9417161000001,,,,,,,,,,,,,563.9389775,563.9417161000001,563.9417161000001,563.9417161000001,566.9324721000003,shoe,f,2.719482599999992,0.18378960000018196,566.9397836000003,566.9398157,None,,,,,,,,,,,,,,,,,00030,001,2025-11-15_18h08.36.625,MST_task,2024.2.0,59.9294390784042,2025-11-15 18h08.41.571378 +0530,
,Objects\180a.jpg,92,0,93,,,,,,,f,2.0484991999996964,0.20030190000034054,None,,,,,,93,0,92,566.9485170000003,,,,,,,,,,,,,,,,,,,,,,,566.9399408000004,566.9485170000003,567.4327307000003,,,,,,,,,,,,,,567.4520682000002,,,,,,,,,,,,,567.4496075000002,567.4520682000002,567.4520682000002,567.4520682000002,570.4492659000002,shoe,f,2.0484991999996964,0.20030190000034054,570.4494518000001,570.4495140000004,None,,,,,,,,,,,,,,,,,00030,001,2025-11-15_18h08.36.625,MST_task,2024.2.0,59.9294390784042,2025-11-15 18h08.41.571378 +0530,
,Objects\148a.jpg,93,0,94,,,,,,,None,,,f,0.8309254999999212,None,,,,94,0,93,570.4652346000003,,,,,,,,,,,,,,,,,,,,,,,570.4498103000001,570.4652346000003,570.9500279000004,,,,,,,,,,,,,,570.9695915000002,,,,,,,,,,,,,570.9670049000001,570.9695915000002,570.9695915000002,570.9695915000002,573.9659536000004,shoe,None,,,573.9661289000001,574.8174188000003,f,573.9818398000002,573.9818398000002,0.8309254999999212,None,,,,,,,,,,,,,00030,001,2025-11-15_18h08.36.625,MST_task,2024.2.0,59.9294390784042,2025-11-15 18h08.41.571378 +0530,
,Objects\217a.jpg,94,0,95,,,,,,,f,2.5885818000001564,0.19191630000022997,None,,,,,,95,0,94,574.8317292000002,,,,,,,,,,,,,,,,,,,,,,,574.8177371000002,574.8317292000002,575.3164353000002,,,,,,,,,,,,,,575.3363686000002,,,,,,,,,,,,,575.3332968,575.3363686000002,575.3363686000002,575.3363686000002,578.3323842,shoe,f,2.5885818000001564,0.19191630000022997,578.3325402,578.3325961,None,,,,,,,,,,,,,,,,,00030,001,2025-11-15_18h08.36.625,MST_task,2024.2.0,59.9294390784042,2025-11-15 18h08.41.571378 +0530,
,Objects\051a.jpg,95,0,96,,,,,,,f,2.2558423999998922,0.17604530000016894,None,,,,,,96,0,95,578.3486196000003,,,,,,,,,,,,,,,,,,,,,,,578.3329066000001,578.3486196000003,578.8328247000004,,,,,,,,,,,,,,578.8531191000002,,,,,,,,,,,,,578.8502212000003,578.8531191000002,578.8531191000002,578.8531191000002,581.8491988000001,shoe,f,2.2558423999998922,0.17604530000016894,581.8493645000003,581.8494294000002,None,,,,,,,,,,,,,,,,,00030,001,2025-11-15_18h08.36.625,MST_task,2024.2.0,59.9294390784042,2025-11-15 18h08.41.571378 +0530,
,Objects\161a.jpg,96,0,97,,,,,,,f,1.5392088000003241,0.1917169999996986,None,,,,,,97,0,96,581.8653510000004,,,,,,,,,,,,,,,,,,,,,,,581.8497240000002,581.8653510000004,582.3500054000001,,,,,,,,,,,,,,582.3698232000002,,,,,,,,,,,,,582.3672068000001,582.3698232000002,582.3698232000002,582.3698232000002,585.3658438000002,shoe,f,1.5392088000003241,0.1917169999996986,585.3660505000003,585.366098,None,,,,,,,,,,,,,,,,,00030,001,2025-11-15_18h08.36.625,MST_task,2024.2.0,59.9294390784042,2025-11-15 18h08.41.571378 +0530,
,Objects\072a.jpg,97,0,98,,,,,,,f,1.656275999999707,0.19181600000001708,None,,,,,,98,0,97,585.3816511,,,,,,,,,,,,,,,,,,,,,,,585.3662819000001,585.3816511,585.8662578000003,,,,,,,,,,,,,,585.8850048000004,,,,,,,,,,,,,585.8824474000003,585.8850048000004,585.8850048000004,585.8850048000004,588.8824329000004,shoe,f,1.656275999999707,0.19181600000001708,588.8826369000003,588.8827007,None,,,,,,,,,,,,,,,,,00030,001,2025-11-15_18h08.36.625,MST_task,2024.2.0,59.9294390784042,2025-11-15 18h08.41.571378 +0530,
,Objects\096a.jpg,98,0,99,,,,,,,None,,,j,1.381872100000237,None,,,,99,0,98,588.8985652000001,,,,,,,,,,,,,,,,,,,,,,,588.8829930000002,588.8985652000001,589.3830608000003,,,,,,,,,,,,,,589.4040652000003,,,,,,,,,,,,,589.4014241,589.4040652000003,589.4040652000003,589.4040652000003,592.3991325000002,indoor,None,,,592.4045725000001,593.8009683,j,592.4150212000004,592.4150212000004,1.381872100000237,None,,,,,,,,,,,,,00030,001,2025-11-15_18h08.36.625,MST_task,2024.2.0,59.9294390784042,2025-11-15 18h08.41.571378 +0530,
,Objects\284a.jpg,99,0,100,,,,,,,None,,,j,0.4647034999998141,None,,,,100,0,99,593.8153295000002,,,,,,,,,,,,,,,,,,,,,,,593.8013239000002,593.8153295000002,594.2996793000002,,,,,,,,,,,,,,594.3250198000001,,,,,,,,,,,,,594.3216336,594.3250198000001,594.3250198000001,594.3250198000001,597.3158546,indoor,None,,,597.3159963000003,597.8009411000003,j,597.3327156,597.3327156,0.4647034999998141,None,,,,,,,,,,,,,00030,001,2025-11-15_18h08.36.625,MST_task,2024.2.0,59.9294390784042,2025-11-15 18h08.41.571378 +0530,
,Objects\203a.jpg,100,0,101,,,,,,,None,,,f,0.06455729999970572,None,,,,101,0,100,597.8154806000002,,,,,,,,,,,,,,,,,,,,,,,597.8013483,597.8154806000002,598.2998144000003,,,,,,,,,,,,,,598.3181928000004,,,,,,,,,,,,,598.3152597000003,598.3181928000004,598.3181928000004,598.3181928000004,601.3157602000001,indoor,None,,,601.3159032000003,601.4009909000001,f,601.3319048000003,601.3319048000003,0.06455729999970572,None,,,,,,,,,,,,,00030,001,2025-11-15_18h08.36.625,MST_task,2024.2.0,59.9294390784042,2025-11-15 18h08.41.571378 +0530,
,Objects\218a.jpg,101,0,102,,,,,,,j,1.2841715999998087,0.19179110000004584,None,,,,,,102,0,101,601.4151541000001,,,,,,,,,,,,,,,,,,,,,,,601.4013303000002,601.4151541000001,601.8999132000004,,,,,,,,,,,,,,601.9203789000003,,,,,,,,,,,,,601.9174428000001,601.9203789000003,601.9203789000003,601.9203789000003,604.915841,indoor,j,1.2841715999998087,0.19179110000004584,604.9160199000003,604.9160821,None,,,,,,,,,,,,,,,,,00030,001,2025-11-15_18h08.36.625,MST_task,2024.2.0,59.9294390784042,2025-11-15 18h08.41.571378 +0530,
,Objects\370a.jpg,102,0,103,,,,,,,j,1.7195568000001913,0.21611440000015136,None,,,,,,103,0,102,604.9317712000002,,,,,,,,,,,,,,,,,,,,,,,604.9163763000001,604.9317712000002,605.4164108,,,,,,,,,,,,,,605.4374206000002,,,,,,,,,,,,,605.4343953000002,605.4374206000002,605.4374206000002,605.4374206000002,608.4324437,indoor,j,1.7195568000001913,0.21611440000015136,608.4326068,608.4326696000003,None,,,,,,,,,,,,,,,,,00030,001,2025-11-15_18h08.36.625,MST_task,2024.2.0,59.9294390784042,2025-11-15 18h08.41.571378 +0530,
,Objects\259a.jpg,103,0,104,,,,,,,None,,,j,0.1514316000002509,None,,,,104,0,103,608.4485101,,,,,,,,,,,,,,,,,,,,,,,608.4329602000003,608.4485101,608.9328662000003,,,,,,,,,,,,,,608.9518842000002,,,,,,,,,,,,,608.9488788000003,608.9518842000002,608.9518842000002,608.9518842000002,611.9492021000001,indoor,None,,,611.9493443000001,612.1338362000001,j,611.9653150000004,611.9653150000004,0.1514316000002509,None,,,,,,,,,,,,,00030,001,2025-11-15_18h08.36.625,MST_task,2024.2.0,59.9294390784042,2025-11-15 18h08.41.571378 +0530,
,Objects\335a.jpg,104,0,105,,,,,,,j,2.919437800000196,None,None,,,,,,105,0,104,612.1485161,,,,,,,,,,,,,,,,,,,,,,,612.1342081000003,612.1485161,612.6330869000003,,,,,,,,,,,,,,612.6535114000003,,,,,,,,,,,,,612.6505973000003,612.6535114000003,612.6535114000003,612.6535114000003,615.6492428000001,indoor,j,2.919437800000196,None,615.6494063,615.6494674,None,,,,,,,,,,,,,,,,,00030,001,2025-11-15_18h08.36.625,MST_task,2024.2.0,59.9294390784042,2025-11-15 18h08.41.571378 +0530,
,Objects\193a.jpg,105,0,106,,,,,,,None,,,f,0.48737400000027264,None,,,,106,0,105,615.6653255000001,,,,,,,,,,,,,,,,,,,,,,,615.6497629,615.6653255000001,616.1497615000003,,,,,,,,,,,,,,616.1704607000001,,,,,,,,,,,,,616.1674815000001,616.1704607000001,616.1704607000001,616.1704607000001,619.1659453000002,shoe,None,,,619.1723898,619.6839616000002,f,619.1816654000004,619.1816654000004,0.48737400000027264,None,,,,,,,,,,,,,00030,001,2025-11-15_18h08.36.625,MST_task,2024.2.0,59.9294390784042,2025-11-15 18h08.41.571378 +0530,
,Objects\066a.jpg,106,0,107,,,,,,,f,2.1711887000001298,0.18430160000025353,None,,,,,,107,0,106,619.6985091000001,,,,,,,,,,,,,,,,,,,,,,,619.6843003000004,619.6985091000001,620.1829844000004,,,,,,,,,,,,,,620.2020510000002,,,,,,,,,,,,,620.1994594000003,620.2020510000002,620.2020510000002,620.2020510000002,623.1991466000004,shoe,f,2.1711887000001298,0.18430160000025353,623.1993112,623.1993715000003,None,,,,,,,,,,,,,,,,,00030,001,2025-11-15_18h08.36.625,MST_task,2024.2.0,59.9294390784042,2025-11-15 18h08.41.571378 +0530,
,Objects\233a.jpg,107,0,108,,,,,,,f,2.2287560999998277,0.15995950000024095,None,,,,,,108,0,107,623.2153790000002,,,,,,,,,,,,,,,,,,,,,,,623.1996655000003,623.2153790000002,623.6996341000004,,,,,,,,,,,,,,623.7204811000001,,,,,,,,,,,,,623.7175966,623.7204811000001,623.7204811000001,623.7204811000001,626.7158022000003,shoe,f,2.2287560999998277,0.15995950000024095,626.7159703000002,626.7160309000001,None,,,,,,,,,,,,,,,,,00030,001,2025-11-15_18h08.36.625,MST_task,2024.2.0,59.9294390784042,2025-11-15 18h08.41.571378 +0530,
,Objects\230a.jpg,108,0,109,,,,,,,j,1.7062596000000667,0.16828519999990021,None,,,,,,109,0,108,626.7317013000002,,,,,,,,,,,,,,,,,,,,,,,626.7163416000003,626.7317013000002,627.2164653,,,,,,,,,,,,,,627.2346181000003,,,,,,,,,,,,,627.2317121000001,627.2346181000003,627.2346181000003,627.2346181000003,630.2324464000003,shoe,j,1.7062596000000667,0.16828519999990021,630.2326151000002,630.2326792000003,None,,,,,,,,,,,,,,,,,00030,001,2025-11-15_18h08.36.625,MST_task,2024.2.0,59.9294390784042,2025-11-15 18h08.41.571378 +0530,
,Objects\273a.jpg,109,0,110,,,,,,,None,,,j,0.9352002000000539,None,,,,110,0,109,630.2485496000004,,,,,,,,,,,,,,,,,,,,,,,630.2331350000004,630.2485496000004,630.7329259000003,,,,,,,,,,,,,,630.7702819000001,,,,,,,,,,,,,630.7672992000003,630.7702819000001,630.7702819000001,630.7702819000001,633.7492631,shoe,None,,,633.7494020000004,634.7174759000004,j,633.7651919,633.7651919,0.9352002000000539,None,,,,,,,,,,,,,00030,001,2025-11-15_18h08.36.625,MST_task,2024.2.0,59.9294390784042,2025-11-15 18h08.41.571378 +0530,
,Objects\381a.jpg,110,0,111,,,,,,,j,1.624044799999865,0.20006610000018554,None,,,,,,111,0,110,634.7317910000002,,,,,,,,,,,,,,,,,,,,,,,634.7178506,634.7317910000002,635.2165513,,,,,,,,,,,,,,635.2370298000001,,,,,,,,,,,,,635.2339825000004,635.2370298000001,635.2370298000001,635.2370298000001,638.2325397000004,shoe,j,1.624044799999865,0.20006610000018554,638.2327260000002,638.2327912000001,None,,,,,,,,,,,,,,,,,00030,001,2025-11-15_18h08.36.625,MST_task,2024.2.0,59.9294390784042,2025-11-15 18h08.41.571378 +0530,
,Objects\175a.jpg,111,0,112,,,,,,,None,,,j,0.15955480000002353,None,,,,112,0,111,638.2486397000002,,,,,,,,,,,,,,,,,,,,,,,638.2332146000003,638.2486397000002,638.7330936000003,,,,,,,,,,,,,,638.7568290000004,,,,,,,,,,,,,638.7538284000002,638.7568290000004,638.7568290000004,638.7568290000004,641.7491831000002,shoe,None,,,641.7493251000001,641.9341596000004,j,641.7653209,641.7653209,0.15955480000002353,None,,,,,,,,,,,,,00030,001,2025-11-15_18h08.36.625,MST_task,2024.2.0,59.9294390784042,2025-11-15 18h08.41.571378 +0530,
,Objects\352a.jpg,112,0,113,,,,,,,None,,,f,2.044161400000121,None,,,,113,0,112,641.9486460000003,,,,,,,,,,,,,,,,,,,,,,,641.9345328000004,641.9486460000003,642.4330703,,,,,,,,,,,,,,642.4545991,,,,,,,,,,,,,642.4513146000004,642.4545991,642.4545991,642.4545991,645.4493226000004,indoor,None,,,645.4560623000002,647.5175201000002,f,645.4651177000001,645.4651177000001,2.044161400000121,None,,,,,,,,,,,,,00030,001,2025-11-15_18h08.36.625,MST_task,2024.2.0,59.9294390784042,2025-11-15 18h08.41.571378 +0530,
,Objects\100a.jpg,113,0,114,,,,,,,None,,,j,0.5084376999998312,None,,,,114,0,113,647.5318929,,,,,,,,,,,,,,,,,,,,,,,647.5178932000003,647.5318929,648.0165662000004,,,,,,,,,,,,,,648.0350031000003,,,,,,,,,,,,,648.0319724000001,648.0350031000003,648.0350031000003,648.0350031000003,651.0325726000001,indoor,None,,,651.0327171000004,651.5676927000004,j,651.0486778000004,651.0486778000004,0.5084376999998312,None,,,,,,,,,,,,,00030,001,2025-11-15_18h08.36.625,MST_task,2024.2.0,59.9294390784042,2025-11-15 18h08.41.571378 +0530,
,Objects\208a.jpg,114,0,115,,,,,,,None,,,f,0.6900633000000198,None,,,,115,0,114,651.5819356000002,,,,,,,,,,,,,,,,,,,,,,,651.5680505,651.5819356000002,652.0665878,,,,,,,,,,,,,,652.0858376000001,,,,,,,,,,,,,652.0827349000001,652.0858376000001,652.0858376000001,652.0858376000001,655.0824547000002,indoor,None,,,655.0825580000001,655.8008591000003,f,655.0986757000001,655.0986757000001,0.6900633000000198,None,,,,,,,,,,,,,00030,001,2025-11-15_18h08.36.625,MST_task,2024.2.0,59.9294390784042,2025-11-15 18h08.41.571378 +0530,
,Objects\254a.jpg,115,0,116,,,,,,,j,1.4030643000000964,0.19205439999996088,None,,,,,,116,0,115,655.8153231000001,,,,,,,,,,,,,,,,,,,,,,,655.8012212000003,655.8153231000001,656.2998545,,,,,,,,,,,,,,656.3216497000003,,,,,,,,,,,,,656.3187693,656.3216497000003,656.3216497000003,656.3216497000003,659.3161047000003,indoor,j,1.4030643000000964,0.19205439999996088,659.3162883,659.3163548000002,None,,,,,,,,,,,,,,,,,00030,001,2025-11-15_18h08.36.625,MST_task,2024.2.0,59.9294390784042,2025-11-15 18h08.41.571378 +0530,
,Objects\258a.jpg,116,0,117,,,,,,,j,1.2595550000000912,0.1841617000000042,None,,,,,,117,0,116,659.3318186000001,,,,,,,,,,,,,,,,,,,,,,,659.3166559000001,659.3318186000001,659.8165699000001,,,,,,,,,,,,,,659.8331961000004,,,,,,,,,,,,,659.8302045,659.8331961000004,659.8331961000004,659.8331961000004,662.8172308000003,indoor,j,1.2595550000000912,0.1841617000000042,662.8173996,662.8174597000002,None,,,,,662.8319252000001,662.8319252000001,662.8319252000001,,,,,,,,,,00030,001,2025-11-15_18h08.36.625,MST_task,2024.2.0,59.9294390784042,2025-11-15 18h08.41.571378 +0530,
,Objects\167a.jpg,117,0,118,,,,,,,f,1.8034924999997202,0.16853549999996176,None,,,,,,118,0,117,662.8319252000001,,,,,,,,,,,,,,,,,,,,,,,662.8177475000002,662.8319252000001,663.3165262000002,,,,,,,,,,,,,,663.3371020000004,,,,,,,,,,,,,663.3339916,663.3371020000004,663.3371020000004,663.3371020000004,666.3321851000001,indoor,f,1.8034924999997202,0.16853549999996176,666.3323474000003,666.3324090000001,None,,,,,,,,,,,,,,,,,00030,001,2025-11-15_18h08.36.625,MST_task,2024.2.0,59.9294390784042,2025-11-15 18h08.41.571378 +0530,
,Objects\201a.jpg,118,0,119,,,,,,,f,1.6865938000000824,0.21564789999956702,None,,,,,,119,0,118,666.3484724,,,,,,,,,,,,,,,,,,,,,,,666.3327443000003,666.3484724,666.8330784,,,,,,,,,,,,,,666.8544139,,,,,,,,,,,,,666.8513957,666.8544139,666.8544139,666.8544139,669.8490163000001,indoor,f,1.6865938000000824,0.21564789999956702,669.8492371000002,669.8492997000003,None,,,,,,,,,,,,,,,,,00030,001,2025-11-15_18h08.36.625,MST_task,2024.2.0,59.9294390784042,2025-11-15 18h08.41.571378 +0530,
,Objects\111a.jpg,119,0,120,,,,,,,None,,,j,1.0627443999997013,None,,,,120,0,119,669.8651340000001,,,,,,,,,,,,,,,,,,,,,,,669.8496003,669.8651340000001,670.3494351000004,,,,,,,,,,,,,,670.3719397,,,,,,,,,,,,,670.3689304000004,670.3719397,670.3719397,670.3719397,673.3658303000002,shoe,None,,,673.3727632,674.4508378,j,673.3818230000002,673.3818230000002,1.0627443999997013,None,,,,,,,,,,,,,00030,001,2025-11-15_18h08.36.625,MST_task,2024.2.0,59.9294390784042,2025-11-15 18h08.41.571378 +0530,
,Objects\333a.jpg,120,0,121,,,,,,,f,1.440915799999857,0.184267600000112,None,,,,,,121,0,120,674.4654245000002,,,,,,,,,,,,,,,,,,,,,,,674.4513436000002,674.4654245000002,674.9497998000002,,,,,,,,,,,,,,674.9722427000002,,,,,,,,,,,,,674.9695489000001,674.9722427000002,674.9722427000002,674.9722427000002,677.9659687000003,shoe,f,1.440915799999857,0.184267600000112,677.9661276000002,677.9661915000001,None,,,,,,,,,,,,,,,,,00030,001,2025-11-15_18h08.36.625,MST_task,2024.2.0,59.9294390784042,2025-11-15 18h08.41.571378 +0530,
,Objects\041a.jpg,121,0,122,,,,,,,None,,,j,2.675007199999982,None,,,,122,0,121,677.9818181,,,,,,,,,,,,,,,,,,,,,,,677.9664897000002,677.9818181,678.4659993,,,,,,,,,,,,,,678.4820240000004,,,,,,,,,,,,,678.4791722,678.4820240000004,678.4820240000004,678.4820240000004,681.4670258000001,shoe,None,,,681.4671777000003,684.1674588000001,j,681.481702,681.481702,2.675007199999982,None,681.481702,681.481702,681.481702,,,,,,,,,,00030,001,2025-11-15_18h08.36.625,MST_task,2024.2.0,59.9294390784042,2025-11-15 18h08.41.571378 +0530,
,Objects\338a.jpg,122,0,123,,,,,,,f,1.7424814999999398,0.2000275000000329,None,,,,,,123,0,122,684.1818110000004,,,,,,,,,,,,,,,,,,,,,,,684.1680186000003,684.1818110000004,684.6665509000004,,,,,,,,,,,,,,684.6862921000002,,,,,,,,,,,,,684.6831875000003,684.6862921000002,684.6862921000002,684.6862921000002,687.6823158000002,shoe,f,1.7424814999999398,0.2000275000000329,687.6824436000002,687.6824908000003,None,,,,,,,,,,,,,,,,,00030,001,2025-11-15_18h08.36.625,MST_task,2024.2.0,59.9294390784042,2025-11-15 18h08.41.571378 +0530,
,Objects\196a.jpg,123,0,124,,,,,,,f,2.632075900000018,0.175491399999828,None,,,,,,124,0,123,687.6987754000002,,,,,,,,,,,,,,,,,,,,,,,687.6827159000004,687.6987754000002,688.1830375000004,,,,,,,,,,,,,,688.2048504000004,,,,,,,,,,,,,688.2016921000004,688.2048504000004,688.2048504000004,688.2048504000004,691.1991895000001,shoe,f,2.632075900000018,0.175491399999828,691.1993526000001,691.1994157000004,None,,,,,,,,,,,,,,,,,00030,001,2025-11-15_18h08.36.625,MST_task,2024.2.0,59.9294390784042,2025-11-15 18h08.41.571378 +0530,
,Objects\011a.jpg,124,0,125,,,,,,,f,1.6220984999999928,0.1767123999998148,None,,,,,,125,0,124,691.2152470000001,,,,,,,,,,,,,,,,,,,,,,,691.1997155000004,691.2152470000001,691.6996999000003,,,,,,,,,,,,,,691.718953,,,,,,,,,,,,,691.7163121000003,691.718953,691.718953,691.718953,694.7159764000003,shoe,f,1.6220984999999928,0.1767123999998148,694.7161452,694.7162061000004,None,,,,,,,,,,,,,,,,,00030,001,2025-11-15_18h08.36.625,MST_task,2024.2.0,59.9294390784042,2025-11-15 18h08.41.571378 +0530,
,Objects\103a.jpg,125,0,126,,,,,,,j,1.1922938000002432,0.1832868999999846,None,,,,,,126,0,125,694.7317169000003,,,,,,,,,,,,,,,,,,,,,,,694.716508,694.7317169000003,695.2164938000001,,,,,,,,,,,,,,695.2368433000001,,,,,,,,,,,,,695.2343035000004,695.2368433000001,695.2368433000001,695.2368433000001,698.2321904,shoe,j,1.1922938000002432,0.1832868999999846,698.2323507000001,698.2324117000003,None,,,,,,,,,,,,,,,,,00030,001,2025-11-15_18h08.36.625,MST_task,2024.2.0,59.9294390784042,2025-11-15 18h08.41.571378 +0530,
,Objects\331a.jpg,126,0,127,,,,,,,j,2.555109099999754,0.2157784000000902,None,,,,,,127,0,126,698.2485656000003,,,,,,,,,,,,,,,,,,,,,,,698.2328356000003,698.2485656000003,698.7326312,,,,,,,,,,,,,,698.7540590000003,,,,,,,,,,,,,698.7509787000004,698.7540590000003,698.7540590000003,698.7540590000003,701.7489415,indoor,j,2.555109099999754,0.2157784000000902,701.7533065000002,701.7533357000002,None,,,,,,,,,,,,,,,,,00030,001,2025-11-15_18h08.36.625,MST_task,2024.2.0,59.9294390784042,2025-11-15 18h08.41.571378 +0530,
,Objects\199a.jpg,127,0,128,,,,,,,None,,,j,0.8586657000000741,None,,,,128,0,127,701.7649295000001,,,,,,,,,,,,,,,,,,,,,,,701.7534509000002,701.7649295000001,702.2496175000001,,,,,,,,,,,,,,702.2702830000003,,,,,,,,,,,,,702.2673499000002,702.2702830000003,702.2702830000003,702.2702830000003,705.2659155000001,indoor,None,,,705.2660713,706.1507404000004,j,705.2818305000001,705.2818305000001,0.8586657000000741,None,,,,,,,,,,,,,00030,001,2025-11-15_18h08.36.625,MST_task,2024.2.0,59.9294390784042,2025-11-15 18h08.41.571378 +0530,
,Objects\337a.jpg,128,0,129,,,,,,,None,,,f,0.21890959999973347,None,,,,129,0,128,706.1652883000002,,,,,,,,,,,,,,,,,,,,,,,706.1511019000004,706.1652883000002,706.6495842000004,,,,,,,,,,,,,,706.6684340000002,,,,,,,,,,,,,706.6656192,706.6684340000002,706.6684340000002,706.6684340000002,709.6656638000004,indoor,None,,,709.6658083000002,709.9171794000004,f,709.6817985000002,709.6817985000002,0.21890959999973347,None,,,,,,,,,,,,,00030,001,2025-11-15_18h08.36.625,MST_task,2024.2.0,59.9294390784042,2025-11-15 18h08.41.571378 +0530,
,Objects\315a.jpg,129,0,130,,,,,,,None,,,f,1.4842275999999401,None,,,,130,0,129,709.9316219000002,,,,,,,,,,,,,,,,,,,,,,,709.9174659,709.9316219000002,710.4160667000001,,,,,,,,,,,,,,710.4342074000001,,,,,,,,,,,,,710.4314982000001,710.4342074000001,710.4342074000001,710.4342074000001,713.4321433,indoor,None,,,713.4322851000002,714.9505445,f,713.4484205000003,713.4484205000003,1.4842275999999401,None,,,,,,,,,,,,,00030,001,2025-11-15_18h08.36.625,MST_task,2024.2.0,59.9294390784042,2025-11-15 18h08.41.571378 +0530,
,Objects\256a.jpg,130,0,131,,,,,,,j,2.6951481999999487,0.2325551999997515,None,,,,,,131,0,130,714.9651102000003,,,,,,,,,,,,,,,,,,,,,,,714.9508821000004,714.9651102000003,715.4496057000001,,,,,,,,,,,,,,715.4694798,,,,,,,,,,,,,715.4665317000004,715.4694798,715.4694798,715.4694798,718.4658903000004,indoor,j,2.6951481999999487,0.2325551999997515,718.4660876000003,718.4661547000001,None,,,,,,,,,,,,,,,,,00030,001,2025-11-15_18h08.36.625,MST_task,2024.2.0,59.9294390784042,2025-11-15 18h08.41.571378 +0530,
,Objects\239a.jpg,131,0,132,,,,,,,j,2.395128200000272,0.22407290000001012,None,,,,,,132,0,131,718.4816562000001,,,,,,,,,,,,,,,,,,,,,,,718.4664501000002,718.4816562000001,718.9659790000001,,,,,,,,,,,,,,718.9856321000002,,,,,,,,,,,,,718.9826817000003,718.9856321000002,718.9856321000002,718.9856321000002,721.9823462000004,indoor,j,2.395128200000272,0.22407290000001012,721.9825105,721.9825714000003,None,,,,,,,,,,,,,,,,,00030,001,2025-11-15_18h08.36.625,MST_task,2024.2.0,59.9294390784042,2025-11-15 18h08.41.571378 +0530,
,Objects\187a.jpg,132,0,133,,,,,,,None,,,j,1.025466999999935,None,,,,133,0,132,721.9984672,,,,,,,,,,,,,,,,,,,,,,,721.9829083000004,721.9984672,722.4829298,,,,,,,,,,,,,,722.5013934000003,,,,,,,,,,,,,722.4984222000003,722.5013934000003,722.5013934000003,722.5013934000003,725.4990860000003,indoor,None,,,725.4992371000003,726.5505391000002,j,725.5151049000001,725.5151049000001,1.025466999999935,None,,,,,,,,,,,,,00030,001,2025-11-15_18h08.36.625,MST_task,2024.2.0,59.9294390784042,2025-11-15 18h08.41.571378 +0530,
,Objects\224a.jpg,133,0,134,,,,,,,j,2.2947680000002038,0.17634159999988697,None,,,,,,134,0,133,726.5651363000002,,,,,,,,,,,,,,,,,,,,,,,726.5508845000004,726.5651363000002,727.0497609000004,,,,,,,,,,,,,,727.0941985000004,,,,,,,,,,,,,727.0906803000003,727.0941985000004,727.0941985000004,727.0941985000004,730.0658531000004,shoe,j,2.2947680000002038,0.17634159999988697,730.0728403000003,730.0728727000001,None,,,,,,,,,,,,,,,,,00030,001,2025-11-15_18h08.36.625,MST_task,2024.2.0,59.9294390784042,2025-11-15 18h08.41.571378 +0530,
,Objects\301a.jpg,134,0,135,,,,,,,None,,,f,0.23072480000018913,None,,,,135,0,134,730.0815803,,,,,,,,,,,,,,,,,,,,,,,730.0729955000002,730.0815803,730.5669151000002,,,,,,,,,,,,,,730.5908213000002,,,,,,,,,,,,,730.5878263000004,730.5908213000002,730.5908213000002,730.5908213000002,733.5823449000004,shoe,None,,,733.5824932,733.8340633000003,f,733.5984588000001,733.5984588000001,0.23072480000018913,None,,,,,,,,,,,,,00030,001,2025-11-15_18h08.36.625,MST_task,2024.2.0,59.9294390784042,2025-11-15 18h08.41.571378 +0530,
,Objects\047a.jpg,135,0,136,,,,,,,f,1.461044000000129,0.18432910000001357,None,,,,,,136,0,135,733.8484765000003,,,,,,,,,,,,,,,,,,,,,,,733.8344347000002,733.8484765000003,734.3328884000002,,,,,,,,,,,,,,734.3521104000001,,,,,,,,,,,,,734.3494423000002,734.3521104000001,734.3521104000001,734.3521104000001,737.3489749,shoe,f,1.461044000000129,0.18432910000001357,737.3491389000001,737.3492049000001,None,,,,,,,,,,,,,,,,,00030,001,2025-11-15_18h08.36.625,MST_task,2024.2.0,59.9294390784042,2025-11-15 18h08.41.571378 +0530,
,Objects\268a.jpg,136,0,137,,,,,,,f,1.4858496999995623,0.1840063000004193,None,,,,,,137,0,136,737.3650739,,,,,,,,,,,,,,,,,,,,,,,737.3496500000001,737.3650739,737.8496513,,,,,,,,,,,,,,737.8870380000003,,,,,,,,,,,,,737.8839803000001,737.8870380000003,737.8870380000003,737.8870380000003,740.8656929000003,shoe,f,1.4858496999995623,0.1840063000004193,740.8658559,740.8659192,None,,,,,,,,,,,,,,,,,00030,001,2025-11-15_18h08.36.625,MST_task,2024.2.0,59.9294390784042,2025-11-15 18h08.41.571378 +0530,
,Objects\220a.jpg,137,0,138,,,,,,,f,2.5052042000002075,0.2081978999999592,None,,,,,,138,0,137,740.8817061,,,,,,,,,,,,,,,,,,,,,,,740.8662175000004,740.8817061,741.3666278000001,,,,,,,,,,,,,,741.3875047000001,,,,,,,,,,,,,741.3845715000002,741.3875047000001,741.3875047000001,741.3875047000001,744.3661502,shoe,f,2.5052042000002075,0.2081978999999592,744.3663095000002,744.3663709000002,None,,,,,,,,,,,,,,,,,00030,001,2025-11-15_18h08.36.625,MST_task,2024.2.0,59.9294390784042,2025-11-15 18h08.41.571378 +0530,
,Objects\169a.jpg,138,0,139,,,,,,,None,,,j,None,None,,,,139,0,138,744.3817927,,,,,,,,,,,,,,,,,,,,,,,744.3666632000004,744.3817927,744.8665161000004,,,,,,,,,,,,,,744.8889461000003,,,,,,,,,,,,,744.8857426000004,744.8889461000003,744.8889461000003,744.8889461000003,747.88256,shoe,None,,,747.8827084000004,748.1173828000001,j,747.8985853000004,747.8985853000004,None,None,,,,,,,,,,,,,00030,001,2025-11-15_18h08.36.625,MST_task,2024.2.0,59.9294390784042,2025-11-15 18h08.41.571378 +0530,
,Objects\053a.jpg,139,0,140,,,,,,,f,2.591932799999995,0.21582340000031763,None,,,,,,140,0,139,748.1317795,,,,,,,,,,,,,,,,,,,,,,,748.1177039000004,748.1317795,748.6165000000001,,,,,,,,,,,,,,748.6370755000003,,,,,,,,,,,,,748.6344229000001,748.6370755000003,748.6370755000003,748.6370755000003,751.6322947000003,shoe,f,2.591932799999995,0.21582340000031763,751.6324893000001,751.6325537000002,None,,,,,,,,,,,,,,,,,00030,001,2025-11-15_18h08.36.625,MST_task,2024.2.0,59.9294390784042,2025-11-15 18h08.41.571378 +0530,
,Objects\067a.jpg,140,0,141,,,,,,,j,2.6672035000001415,0.17557369999985895,None,,,,,,141,0,140,751.6484038000003,,,,,,,,,,,,,,,,,,,,,,,751.632959,751.6484038000003,752.1328366000002,,,,,,,,,,,,,,752.1538053000004,,,,,,,,,,,,,752.1510831,752.1538053000004,752.1538053000004,752.1538053000004,755.1491340000002,indoor,j,2.6672035000001415,0.17557369999985895,755.1553121000002,755.1553527000001,None,,,,,,,,,,,,,,,,,00030,001,2025-11-15_18h08.36.625,MST_task,2024.2.0,59.9294390784042,2025-11-15 18h08.41.571378 +0530,
,Objects\227a.jpg,141,0,142,,,,,,,j,1.9968380999998772,0.20821280000018305,None,,,,,,142,0,141,755.1650152000002,,,,,,,,,,,,,,,,,,,,,,,755.1555122,755.1650152000002,755.6494628,,,,,,,,,,,,,,755.6717641,,,,,,,,,,,,,755.6690928000003,755.6717641,755.6717641,755.6717641,758.6657249,indoor,j,1.9968380999998772,0.20821280000018305,758.6658867000001,758.6659504000004,None,,,,,,,,,,,,,,,,,00030,001,2025-11-15_18h08.36.625,MST_task,2024.2.0,59.9294390784042,2025-11-15 18h08.41.571378 +0530,
,Objects\043a.jpg,142,0,143,,,,,,,None,,,f,0.6623408000000381,None,,,,143,0,142,758.6818520000002,,,,,,,,,,,,,,,,,,,,,,,758.6662443,758.6818520000002,759.1663655000002,,,,,,,,,,,,,,759.1860370000004,,,,,,,,,,,,,759.1832302000003,759.1860370000004,759.1860370000004,759.1860370000004,762.1823293000002,indoor,None,,,762.1824682000001,762.8672117000001,f,762.1985959000003,762.1985959000003,0.6623408000000381,None,,,,,,,,,,,,,00030,001,2025-11-15_18h08.36.625,MST_task,2024.2.0,59.9294390784042,2025-11-15 18h08.41.571378 +0530,
,Objects\104a.jpg,143,0,144,,,,,,,None,,,j,1.9018754000003355,None,,,,144,0,143,762.8818001,,,,,,,,,,,,,,,,,,,,,,,762.8675791000001,762.8818001,763.3664279000004,,,,,,,,,,,,,,763.3855651000003,,,,,,,,,,,,,763.3828995000003,763.3855651000003,763.3855651000003,763.3855651000003,766.3823037000002,indoor,None,,,766.3824459000002,768.3172156,j,766.3985982000004,766.3985982000004,1.9018754000003355,None,,,,,,,,,,,,,00030,001,2025-11-15_18h08.36.625,MST_task,2024.2.0,59.9294390784042,2025-11-15 18h08.41.571378 +0530,
,Objects\236a.jpg,144,0,145,,,,,,,None,,,j,0.7635739000002104,None,,,,145,0,144,768.3319169000001,,,,,,,,,,,,,,,,,,,,,,,768.3175868000003,768.3319169000001,768.8165045000001,,,,,,,,,,,,,,768.8358512,,,,,,,,,,,,,768.8327726000002,768.8358512,768.8358512,768.8358512,771.8323894,indoor,None,,,771.8325354000003,772.6173543,j,771.8486338000002,771.8486338000002,0.7635739000002104,None,,,,,,,,,,,,,00030,001,2025-11-15_18h08.36.625,MST_task,2024.2.0,59.9294390784042,2025-11-15 18h08.41.571378 +0530,
,Objects\070a.jpg,145,0,146,,,,,,,f,1.5101268999997046,0.17623570000023392,None,,,,,,146,0,145,772.6317986000004,,,,,,,,,,,,,,,,,,,,,,,772.6176378,772.6317986000004,773.1166326000002,,,,,,,,,,,,,,773.1349930000001,,,,,,,,,,,,,773.1318383000003,773.1349930000001,773.1349930000001,773.1349930000001,776.1324152000002,indoor,f,1.5101268999997046,0.17623570000023392,776.1325795000002,776.1326438000001,None,,,,,,,,,,,,,,,,,00030,001,2025-11-15_18h08.36.625,MST_task,2024.2.0,59.9294390784042,2025-11-15 18h08.41.571378 +0530,
,Objects\166a.jpg,146,0,147,,,,,,,None,,,j,2.3632595999997648,None,,,,147,0,146,776.1487144000002,,,,,,,,,,,,,,,,,,,,,,,776.1329392000002,776.1487144000002,776.6329303000002,,,,,,,,,,,,,,776.6522672000001,,,,,,,,,,,,,776.6494888000002,776.6522672000001,776.6522672000001,776.6522672000001,779.6491570000003,indoor,None,,,779.6493018000001,782.0341978000001,j,779.6652204000002,779.6652204000002,2.3632595999997648,None,,,,,,,,,,,,,00030,001,2025-11-15_18h08.36.625,MST_task,2024.2.0,59.9294390784042,2025-11-15 18h08.41.571378 +0530,
,Objects\380a.jpg,147,0,148,,,,,,,j,2.6526967999998305,0.23998299999993833,None,,,,,,148,0,147,782.0486110000002,,,,,,,,,,,,,,,,,,,,,,,782.0345835000003,782.0486110000002,782.5332156000004,,,,,,,,,,,,,,782.5525067000003,,,,,,,,,,,,,782.5497495000004,782.5525067000003,782.5525067000003,782.5525067000003,785.5491049000002,shoe,j,2.6526967999998305,0.23998299999993833,785.5558232000003,785.5558525000001,None,,,,,,,,,,,,,,,,,00030,001,2025-11-15_18h08.36.625,MST_task,2024.2.0,59.9294390784042,2025-11-15 18h08.41.571378 +0530,
,Objects\005a.jpg,148,0,149,,,,,,,None,,,f,1.0831616000000395,None,,,,149,0,148,785.5649450000001,,,,,,,,,,,,,,,,,,,,,,,785.5559665000001,785.5649450000001,786.0496742,,,,,,,,,,,,,,786.0699448,,,,,,,,,,,,,786.0672523000003,786.0699448,786.0699448,786.0699448,789.0658905,shoe,None,,,789.0660338000002,790.1672717000001,f,789.0816713000004,789.0816713000004,1.0831616000000395,None,,,,,,,,,,,,,00030,001,2025-11-15_18h08.36.625,MST_task,2024.2.0,59.9294390784042,2025-11-15 18h08.41.571378 +0530,
,Objects\039a.jpg,149,0,150,,,,,,,None,,,j,1.1707233000001906,None,,,,150,0,149,790.1815385,,,,,,,,,,,,,,,,,,,,,,,790.1677627000004,790.1815385,790.6671644000003,,,,,,,,,,,,,,790.6822554,,,,,,,,,,,,,790.6796420000001,790.6822554,790.6822554,790.6822554,793.6671820000001,shoe,None,,,793.6673374000002,794.8673965000003,j,793.6816568000004,793.6816568000004,1.1707233000001906,None,793.6816568000004,793.6816568000004,793.6816568000004,,,,,,,,,,00030,001,2025-11-15_18h08.36.625,MST_task,2024.2.0,59.9294390784042,2025-11-15 18h08.41.571378 +0530,
,Objects\172a.jpg,150,0,151,,,,,,,j,2.3591215000001284,0.1998716999996759,None,,,,,,151,0,150,794.8816471,,,,,,,,,,,,,,,,,,,,,,,794.8678839000004,794.8816471,795.3662656000001,,,,,,,,,,,,,,795.3894432000002,,,,,,,,,,,,,795.3866662,795.3894432000002,795.3894432000002,795.3894432000002,798.3821875000003,shoe,j,2.3591215000001284,0.1998716999996759,798.3823505,798.3824168000001,None,,,,,,,,,,,,,,,,,00030,001,2025-11-15_18h08.36.625,MST_task,2024.2.0,59.9294390784042,2025-11-15 18h08.41.571378 +0530,
,Objects\278a.jpg,151,0,152,,,,,,,None,,,j,0.8893797000000632,None,,,,152,0,151,798.3983449000002,,,,,,,,,,,,,,,,,,,,,,,798.3828438,798.3983449000002,798.8824678000001,,,,,,,,,,,,,,798.9021088000004,,,,,,,,,,,,,798.8991444000003,798.9021088000004,798.9021088000004,798.9021088000004,801.8988934000004,shoe,None,,,801.8990962000003,802.8160697000003,j,801.9150492000003,801.9150492000003,0.8893797000000632,None,,,,,,,,,,,,,00030,001,2025-11-15_18h08.36.625,MST_task,2024.2.0,59.9294390784042,2025-11-15 18h08.41.571378 +0530,
,Objects\369a.jpg,152,0,153,,,,,,,f,1.7796594999999797,0.20843779999995604,None,,,,,,153,0,152,802.8315389000004,,,,,,,,,,,,,,,,,,,,,,,802.8162796000001,802.8315389000004,803.3161107000001,,,,,,,,,,,,,,803.3367598,,,,,,,,,,,,,803.3336896000001,803.3367598,803.3367598,803.3367598,806.3322331000004,shoe,f,1.7796594999999797,0.20843779999995604,806.3323956000004,806.3324601000004,None,,,,,,,,,,,,,,,,,00030,001,2025-11-15_18h08.36.625,MST_task,2024.2.0,59.9294390784042,2025-11-15 18h08.41.571378 +0530,
,Objects\317a.jpg,153,0,154,,,,,,,j,1.126220000000103,0.199925599999915,None,,,,,,154,0,153,806.3483331000002,,,,,,,,,,,,,,,,,,,,,,,806.3329012000004,806.3483331000002,806.8324222000001,,,,,,,,,,,,,,806.8703701000004,,,,,,,,,,,,,806.8677034000002,806.8703701000004,806.8703701000004,806.8703701000004,809.8488949000002,shoe,j,1.126220000000103,0.199925599999915,809.8490574000002,809.8491227000004,None,,,,,,,,,,,,,,,,,00030,001,2025-11-15_18h08.36.625,MST_task,2024.2.0,59.9294390784042,2025-11-15 18h08.41.571378 +0530,
,Objects\255a.jpg,154,0,155,,,,,,,f,2.3049058000001423,0.1832958999998482,None,,,,,,155,0,154,809.8650498000002,,,,,,,,,,,,,,,,,,,,,,,809.8495495000002,809.8650498000002,810.3493249000003,,,,,,,,,,,,,,810.3722412000002,,,,,,,,,,,,,810.3691611000004,810.3722412000002,810.3722412000002,810.3722412000002,813.3658230000001,indoor,f,2.3049058000001423,0.1832958999998482,813.3700723000002,813.3701040000001,None,,,,,,,,,,,,,,,,,00030,001,2025-11-15_18h08.36.625,MST_task,2024.2.0,59.9294390784042,2025-11-15 18h08.41.571378 +0530,
,Objects\002a.jpg,155,0,156,,,,,,,f,2.4836568999999145,0.20016460000033476,None,,,,,,156,0,155,813.3813963000002,,,,,,,,,,,,,,,,,,,,,,,813.3702188000002,813.3813963000002,813.8659961000003,,,,,,,,,,,,,,813.9050234000001,,,,,,,,,,,,,813.9020035000003,813.9050234000001,813.9050234000001,813.9050234000001,816.8822393,indoor,f,2.4836568999999145,0.20016460000033476,816.8823985000004,816.8824640000003,None,,,,,,,,,,,,,,,,,00030,001,2025-11-15_18h08.36.625,MST_task,2024.2.0,59.9294390784042,2025-11-15 18h08.41.571378 +0530,
,Objects\257a.jpg,156,0,157,,,,,,,f,2.8152008000001842,None,None,,,,,,157,0,156,816.8983805000003,,,,,,,,,,,,,,,,,,,,,,,816.8827580000002,816.8983805000003,817.3827746000002,,,,,,,,,,,,,,817.4054605000001,,,,,,,,,,,,,817.4022964000001,817.4054605000001,817.4054605000001,817.4054605000001,820.3990629,indoor,f,2.8152008000001842,None,820.3992219000002,820.3992818000002,None,,,,,,,,,,,,,,,,,00030,001,2025-11-15_18h08.36.625,MST_task,2024.2.0,59.9294390784042,2025-11-15 18h08.41.571378 +0530,
,Objects\168a.jpg,157,0,158,,,,,,,j,2.0523653999998714,0.20003390000010768,None,,,,,,158,0,157,820.414988,,,,,,,,,,,,,,,,,,,,,,,820.3995784000003,820.414988,820.8995607000002,,,,,,,,,,,,,,820.9201276000003,,,,,,,,,,,,,820.9171332000001,820.9201276000003,820.9201276000003,820.9201276000003,823.9157237000004,indoor,j,2.0523653999998714,0.20003390000010768,823.9158837,823.9159465000002,None,,,,,,,,,,,,,,,,,00030,001,2025-11-15_18h08.36.625,MST_task,2024.2.0,59.9294390784042,2025-11-15 18h08.41.571378 +0530,
,Objects\309a.jpg,158,0,159,,,,,,,None,,,j,0.5964987999996083,None,,,,159,0,158,823.9316299000002,,,,,,,,,,,,,,,,,,,,,,,823.9162419000004,823.9316299000002,824.4164620000001,,,,,,,,,,,,,,824.4344431000004,,,,,,,,,,,,,824.4313855,824.4344431000004,824.4344431000004,824.4344431000004,827.4321837000002,indoor,None,,,827.4323290000002,828.0505557000001,j,827.4484361,827.4484361,0.5964987999996083,None,,,,,,,,,,,,,00030,001,2025-11-15_18h08.36.625,MST_task,2024.2.0,59.9294390784042,2025-11-15 18h08.41.571378 +0530,
,Objects\173a.jpg,159,0,160,,,,,,,None,,,f,0.1987358999999742,None,,,,160,0,159,828.0650283,,,,,,,,,,,,,,,,,,,,,,,828.0508739000002,828.0650283,828.5489123000002,,,,,,,,,,,,,,828.5677640000004,,,,,,,,,,,,,828.5646470000002,828.5677640000004,828.5677640000004,828.5677640000004,831.5658761,indoor,None,,,831.5660291000004,831.7838997000003,f,831.5815590000002,831.5815590000002,0.1987358999999742,None,,,,,,,,,,,,,00030,001,2025-11-15_18h08.36.625,MST_task,2024.2.0,59.9294390784042,2025-11-15 18h08.41.571378 +0530,
,Objects\099a.jpg,160,0,161,,,,,,,None,,,f,0.7690741999999773,None,,,,161,0,160,831.7983577,,,,,,,,,,,,,,,,,,,,,,,831.7842104000001,831.7983577,832.2827394000001,,,,,,,,,,,,,,832.3024041000003,,,,,,,,,,,,,832.2997641000002,832.3024041000003,832.3024041000003,832.3024041000003,835.2990977000004,indoor,None,,,835.2992481000001,836.0998804000001,f,835.3152148000004,835.3152148000004,0.7690741999999773,None,,,,,,,,,,,,,00030,001,2025-11-15_18h08.36.625,MST_task,2024.2.0,59.9294390784042,2025-11-15 18h08.41.571378 +0530,
,Objects\094a.jpg,161,0,162,,,,,,,f,2.614722399999664,0.18409420000034515,None,,,,,,162,0,161,836.1150394000001,,,,,,,,,,,,,,,,,,,,,,,836.1001336000004,836.1150394000001,836.5998354000003,,,,,,,,,,,,,,836.6216207000002,,,,,,,,,,,,,836.6187770000001,836.6216207000002,836.6216207000002,836.6216207000002,839.6156963000003,shoe,f,2.614722399999664,0.18409420000034515,839.6227698000002,839.6227870000002,None,,,,,,,,,,,,,,,,,00030,001,2025-11-15_18h08.36.625,MST_task,2024.2.0,59.9294390784042,2025-11-15 18h08.41.571378 +0530,
,Objects\272a.jpg,162,0,163,,,,,,,f,2.5734253000000535,0.15907199999992372,None,,,,,,163,0,162,839.6314748,,,,,,,,,,,,,,,,,,,,,,,839.6229067000004,839.6314748,840.1161489000001,,,,,,,,,,,,,,840.1363225,,,,,,,,,,,,,840.1333594000002,840.1363225,840.1363225,840.1363225,843.1322691,shoe,f,2.5734253000000535,0.15907199999992372,843.1324304,843.1324923000002,None,,,,,,,,,,,,,,,,,00030,001,2025-11-15_18h08.36.625,MST_task,2024.2.0,59.9294390784042,2025-11-15 18h08.41.571378 +0530,
,Objects\264a.jpg,163,0,164,,,,,,,None,,,j,2.0923414999997476,None,,,,164,0,163,843.1483061000004,,,,,,,,,,,,,,,,,,,,,,,843.13292,843.1483061000004,843.6326434000002,,,,,,,,,,,,,,843.650599,,,,,,,,,,,,,843.6477568,843.650599,843.650599,843.650599,846.6490261000004,shoe,None,,,846.6492278000001,848.7670437000002,j,846.6650212000004,846.6650212000004,2.0923414999997476,None,,,,,,,,,,,,,00030,001,2025-11-15_18h08.36.625,MST_task,2024.2.0,59.9294390784042,2025-11-15 18h08.41.571378 +0530,
,Objects\231a.jpg,164,0,165,,,,,,,j,2.209321600000294,0.16749419999996462,None,,,,,,165,0,164,848.7815489000004,,,,,,,,,,,,,,,,,,,,,,,848.7674062000001,848.7815489000004,849.2665495000001,,,,,,,,,,,,,,849.2837369000003,,,,,,,,,,,,,849.2808698000003,849.2837369000003,849.2837369000003,849.2837369000003,852.2822627,shoe,j,2.209321600000294,0.16749419999996462,852.2824293000003,852.2824953000004,None,,,,,,,,,,,,,,,,,00030,001,2025-11-15_18h08.36.625,MST_task,2024.2.0,59.9294390784042,2025-11-15 18h08.41.571378 +0530,
,Objects\344a.jpg,165,0,166,,,,,,,j,1.4303446000003532,0.21549950000007811,None,,,,,,166,0,165,852.2983219000002,,,,,,,,,,,,,,,,,,,,,,,852.2827884000003,852.2983219000002,852.7824941000003,,,,,,,,,,,,,,852.8064034000004,,,,,,,,,,,,,852.8035832,852.8064034000004,852.8064034000004,852.8064034000004,855.7988176000003,shoe,j,1.4303446000003532,0.21549950000007811,855.7989798000003,855.7990359,None,,,,,,,,,,,,,,,,,00030,001,2025-11-15_18h08.36.625,MST_task,2024.2.0,59.9294390784042,2025-11-15 18h08.41.571378 +0530,
,Objects\141a.jpg,166,0,167,,,,,,,j,1.8352555999999822,0.21641829999998663,None,,,,,,167,0,166,855.8150331000002,,,,,,,,,,,,,,,,,,,,,,,855.7993414000002,855.8150331000002,856.2995028,,,,,,,,,,,,,,856.3211813000003,,,,,,,,,,,,,856.3181646000003,856.3211813000003,856.3211813000003,856.3211813000003,859.2993104000002,shoe,j,1.8352555999999822,0.21641829999998663,859.2994863000004,859.2995514000004,None,,,,,,,,,,,,,,,,,00030,001,2025-11-15_18h08.36.625,MST_task,2024.2.0,59.9294390784042,2025-11-15 18h08.41.571378 +0530,
,Objects\212a.jpg,167,0,168,,,,,,,j,1.9344828999996935,0.21623510000017632,None,,,,,,168,0,167,859.3151048,,,,,,,,,,,,,,,,,,,,,,,859.2998543000003,859.3151048,859.7996496000001,,,,,,,,,,,,,,859.8216552000004,,,,,,,,,,,,,859.8186593,859.8216552000004,859.8216552000004,859.8216552000004,862.8156702000001,shoe,j,1.9344828999996935,0.21623510000017632,862.8158337,862.8158986000003,None,,,,,,,,,,,,,,,,,00030,001,2025-11-15_18h08.36.625,MST_task,2024.2.0,59.9294390784042,2025-11-15 18h08.41.571378 +0530,
,Objects\371a.jpg,168,0,169,,,,,,,j,2.366955599999983,0.2159707000000708,None,,,,,,169,0,168,862.8315593000002,,,,,,,,,,,,,,,,,,,,,,,862.8161955,862.8315593000002,863.3152984000003,,,,,,,,,,,,,,863.3337104000002,,,,,,,,,,,,,863.3306755000003,863.3337104000002,863.3337104000002,863.3337104000002,866.3322978000001,indoor,j,2.366955599999983,0.2159707000000708,866.3375640000004,866.3376022000002,None,,,,,,,,,,,,,,,,,00030,001,2025-11-15_18h08.36.625,MST_task,2024.2.0,59.9294390784042,2025-11-15 18h08.41.571378 +0530,
,Objects\110a.jpg,169,0,170,,,,,,,f,2.137372900000173,0.1995915999996214,None,,,,,,170,0,169,866.3481315000004,,,,,,,,,,,,,,,,,,,,,,,866.3377222000004,866.3481315000004,866.8326150000003,,,,,,,,,,,,,,866.8514789000001,,,,,,,,,,,,,866.8485591000003,866.8514789000001,866.8514789000001,866.8514789000001,869.8490317000001,indoor,f,2.137372900000173,0.1995915999996214,869.8491919000003,869.8492548000004,None,,,,,,,,,,,,,,,,,00030,001,2025-11-15_18h08.36.625,MST_task,2024.2.0,59.9294390784042,2025-11-15 18h08.41.571378 +0530,
,Objects\274a.jpg,170,0,171,,,,,,,j,2.0903682000002846,0.1923744999999144,None,,,,,,171,0,170,869.8651285000001,,,,,,,,,,,,,,,,,,,,,,,869.8495522000003,869.8651285000001,870.3495307000003,,,,,,,,,,,,,,870.3699645000002,,,,,,,,,,,,,870.3673365,870.3699645000002,870.3699645000002,870.3699645000002,873.3657701000002,indoor,j,2.0903682000002846,0.1923744999999144,873.3659311000001,873.3659924000003,None,,,,,,,,,,,,,,,,,00030,001,2025-11-15_18h08.36.625,MST_task,2024.2.0,59.9294390784042,2025-11-15 18h08.41.571378 +0530,
,Objects\211a.jpg,171,0,172,,,,,,,None,,,f,0.15435969999998633,None,,,,172,0,171,873.3817038000002,,,,,,,,,,,,,,,,,,,,,,,873.3662882000003,873.3817038000002,873.8663144000002,,,,,,,,,,,,,,873.8882482000004,,,,,,,,,,,,,873.8850260000004,873.8882482000004,873.8882482000004,873.8882482000004,876.8823848000002,indoor,None,,,876.8825310000002,877.0671098000003,f,876.8984028,876.8984028,0.15435969999998633,None,,,,,,,,,,,,,00030,001,2025-11-15_18h08.36.625,MST_task,2024.2.0,59.9294390784042,2025-11-15 18h08.41.571378 +0530,
,Objects\302a.jpg,172,0,173,,,,,,,f,1.3398477999999159,0.19925780000039595,None,,,,,,173,0,172,877.0816480000003,,,,,,,,,,,,,,,,,,,,,,,877.0674458000003,877.0816480000003,877.5665171,,,,,,,,,,,,,,877.5858449000002,,,,,,,,,,,,,877.5828528000002,877.5858449000002,877.5858449000002,877.5858449000002,880.5823864000004,indoor,f,1.3398477999999159,0.19925780000039595,880.5825897,880.5826564000004,None,,,,,,,,,,,,,,,,,00030,001,2025-11-15_18h08.36.625,MST_task,2024.2.0,59.9294390784042,2025-11-15 18h08.41.571378 +0530,
,Objects\206a.jpg,173,0,174,,,,,,,j,1.4319660999999542,0.21644449999985227,None,,,,,,174,0,173,880.5984084000002,,,,,,,,,,,,,,,,,,,,,,,880.5829700000004,880.5984084000002,881.0825576000002,,,,,,,,,,,,,,881.1004929000001,,,,,,,,,,,,,881.0977292000002,881.1004929000001,881.1004929000001,881.1004929000001,884.0989849000002,indoor,j,1.4319660999999542,0.21644449999985227,884.0991494,884.0992134000003,None,,,,,,,,,,,,,,,,,00030,001,2025-11-15_18h08.36.625,MST_task,2024.2.0,59.9294390784042,2025-11-15 18h08.41.571378 +0530,
,Objects\242a.jpg,174,0,175,,,,,,,j,2.076675400000113,0.19963389999975334,None,,,,,,175,0,174,884.1150709000003,,,,,,,,,,,,,,,,,,,,,,,884.0995141000003,884.1150709000003,884.5995655000002,,,,,,,,,,,,,,884.6240202000004,,,,,,,,,,,,,884.6210229000003,884.6240202000004,884.6240202000004,884.6240202000004,887.6160857,indoor,j,2.076675400000113,0.19963389999975334,887.6162566000003,887.6163230000002,None,,,,,,,,,,,,,,,,,00030,001,2025-11-15_18h08.36.625,MST_task,2024.2.0,59.9294390784042,2025-11-15 18h08.41.571378 +0530,
,Objects\229a.jpg,175,0,176,,,,,,,f,2.1788805999999568,0.1916271999998571,None,,,,,,176,0,175,887.6315387,,,,,,,,,,,,,,,,,,,,,,,887.6166237000002,887.6315387,888.1167684000002,,,,,,,,,,,,,,888.1376457000001,,,,,,,,,,,,,888.1345666000002,888.1376457000001,888.1376457000001,888.1376457000001,891.1320452,shoe,f,2.1788805999999568,0.1916271999998571,891.1384263,891.1384606000001,None,,,,,,,,,,,,,,,,,00030,001,2025-11-15_18h08.36.625,MST_task,2024.2.0,59.9294390784042,2025-11-15 18h08.41.571378 +0530,
,Objects\152a.jpg,176,0,177,,,,,,,None,,,f,1.3639554000001226,None,,,,177,0,176,891.1481835000004,,,,,,,,,,,,,,,,,,,,,,,891.1385708000003,891.1481835000004,891.6326329000003,,,,,,,,,,,,,,891.6540767000001,,,,,,,,,,,,,891.6511787000004,891.6540767000001,891.6540767000001,891.6540767000001,894.6483733,shoe,None,,,894.6484104000001,896.0331055000001,f,894.664694,894.664694,1.3639554000001226,None,,,,,,,,,,,,,00030,001,2025-11-15_18h08.36.625,MST_task,2024.2.0,59.9294390784042,2025-11-15 18h08.41.571378 +0530,
,Objects\327a.jpg,177,0,178,,,,,,,j,2.705684999999903,0.1840167999998812,None,,,,,,178,0,177,896.0482167,,,,,,,,,,,,,,,,,,,,,,,896.0335029000003,896.0482167,896.5327121,,,,,,,,,,,,,,896.5550346,,,,,,,,,,,,,896.5518775,896.5550346,896.5550346,896.5550346,899.5489468000001,shoe,j,2.705684999999903,0.1840167999998812,899.5491053000001,899.5491698000001,None,,,,,,,,,,,,,,,,,00030,001,2025-11-15_18h08.36.625,MST_task,2024.2.0,59.9294390784042,2025-11-15 18h08.41.571378 +0530,
