Sl_no,image_path,thisN,thisTrialN,thisRepN,key_resp_5.keys,key_resp_7.keys,key_resp_7.rt,key_resp_7.duration,key_resp_5.rt,key_resp_5.duration,key_resp_9.keys,key_resp_9.rt,key_resp_9.duration,key_resp_8.keys,key_resp_8.rt,key_resp_8.duration,practice.thisRepN,practice.thisTrialN,practice.thisN,trials.thisRepN,trials.thisTrialN,trials.thisN,thisRow.t,notes,welcome_page.started,text.started,key_resp.started,welcome_page.stopped,key_resp.keys,key_resp.rt,key_resp.duration,instructions.started,ins.started,key_resp_2.started,instructions.stopped,key_resp_2.keys,key_resp_2.rt,key_resp_2.duration,objects_only_instruction.started,text_3.started,key_resp_3.started,objects_only_instruction.stopped,key_resp_3.keys,key_resp_3.rt,key_resp_3.duration,ISI.started,text_4.started,ISI.stopped,practice_block.started,image.started,key_resp_5.started,text_5.started,practice_block.stopped,practice.key_resp_5.keys,indoor_outdoor.started,text_7.started,key_resp_7.started,indoor_outdoor.stopped,practice.key_resp_7.keys,practice.key_resp_7.rt,practice.key_resp_7.duration,practice.key_resp_5.rt,practice.key_resp_5.duration,text_4.stopped,practice_to_main.started,text_2.started,key_resp_4.started,practice_to_main.stopped,key_resp_4.keys,key_resp_4.rt,key_resp_4.duration,objects.started,image_2.started,text_9.started,key_resp_9.started,objects.stopped,category,trials.key_resp_9.keys,trials.key_resp_9.rt,trials.key_resp_9.duration,encoding_task.started,encoding_task.stopped,trials.key_resp_8.keys,text_8.started,key_resp_8.started,trials.key_resp_8.rt,trials.key_resp_8.duration,end_experiment.started,text_6.started,key_resp_6.started,end_experiment.stopped,key_resp_6.keys,key_resp_6.rt,key_resp_6.duration,list_of_stimuli,encoding_task_accuracy,participant,session,date,expName,psychopyVersion,frameRate,expStart,
,,,,,,,,,,,,,,,,,,,,,,,,,0.0037514999858103693,0.02037769998423755,0.02037769998423755,36.26595060000545,space,36.18298529999447,None,,,,,,,,,,,,,,,,,,,,,,,,,,,,,,,,,,,,,,,,,,,,,,,,,,,,,,,,,,,,,,,,,,00036,001,2026-01-16_22h07.58.999,MST_task,2024.2.0,59.77272020724095,2026-01-16 22h08.17.849575 +0530,
,,,,,,,,,,,,,,,,,,,,,,,,,,,,,,,,36.2659941999882,36.28178799999296,36.28178799999296,58.74522710000747,space,22.4492084000085,None,,,,,,,,,,,,,,,,,,,,,,,,,,,,,,,,,,,,,,,,,,,,,,,,,,,,,,,,,,,00036,001,2026-01-16_22h07.58.999,MST_task,2024.2.0,59.77272020724095,2026-01-16 22h08.17.849575 +0530,
,,,,,,,,,,,,,,,,,,,,,,,,,,,,,,,,,,,,,,,58.74526379999588,58.760710200003814,58.760710200003814,71.33936740001081,space,12.562955100002,None,,,,,,,,,,,,,,,,,,,,,,,,,,,,,,,,,,,,,,,,,,,,,,,,,,,,00036,001,2026-01-16_22h07.58.999,MST_task,2024.2.0,59.77272020724095,2026-01-16 22h08.17.849575 +0530,
3,practice_images/037a.jpg,0,0,1,None,f,0.9350441999849863,None,,,,,,,,,1,0,0,,,,71.372122700006,,,,,,,,,,,,,,,,,,,,,,,71.35808519998682,71.372122700006,71.8407537000021,71.85778479999863,71.87384700000985,71.87384700000985,71.87384700000985,74.85054370001308,None,74.85186809999868,74.86737049999647,74.86737049999647,75.80444310000166,f,0.9350441999849863,None,,,,,,,,,,,,,,,,,,,,,,,,,,,,,,,,,,,,00036,001,2026-01-16_22h07.58.999,MST_task,2024.2.0,59.77272020724095,2026-01-16 22h08.17.849575 +0530,
10,practice_images/182a.jpg,1,1,1,f,None,,,1.8395758000260685,0.09650889999466017,,,,,,,1,1,1,,,,75.82061970001087,,,,,,,,,,,,,,,,,,,,,,,75.80453049999778,75.82061970001087,76.3058108999976,76.31540349998977,76.33904520000215,76.33904520000215,76.33904520000215,79.31636299999082,f,79.31641180001316,,,79.3164254000003,None,,,1.8395758000260685,0.09650889999466017,,,,,,,,,,,,,,,,,,,,,,,,,,,,,,,,,,00036,001,2026-01-16_22h07.58.999,MST_task,2024.2.0,59.77272020724095,2026-01-16 22h08.17.849575 +0530,
1,practice_images/013a.jpg,2,2,1,j,None,,,1.456304999999702,0.10403730001416989,,,,,,,1,2,2,,,,79.33302530000219,,,,,,,,,,,,,,,,,,,,,,,79.31649649998872,79.33302530000219,79.81810100001167,79.8269464999903,79.83432029999676,79.83432029999676,79.83432029999676,82.82850159998634,j,82.82853930001147,,,82.82855199999176,None,,,1.456304999999702,0.10403730001416989,,,,,,,,,,,,,,,,,,,,,,,,,,,,,,,,,,00036,001,2026-01-16_22h07.58.999,MST_task,2024.2.0,59.77272020724095,2026-01-16 22h08.17.849575 +0530,
5,practice_images/139a.jpg,3,3,1,j,None,,,1.4165275000268593,0.08829609997337684,,,,,,,1,3,3,,,,82.84541720000561,,,,,,,,,,,,,,,,,,,,,,,82.82861870000488,82.84541720000561,83.3303714999929,83.33882470001117,83.3470265000069,83.3470265000069,83.3470265000069,86.34090819998528,j,86.34094610001193,,,86.34095789998537,None,,,1.4165275000268593,0.08829609997337684,,,,,,,,,,,,,,,,,,,,,,,,,,,,,,,,,,00036,001,2026-01-16_22h07.58.999,MST_task,2024.2.0,59.77272020724095,2026-01-16 22h08.17.849575 +0530,
8,practice_images/178a.jpg,4,4,1,j,None,,,1.7361438999942038,0.10331390000646934,,,,,,,1,4,4,,,,86.35750049998751,,,,,,,,,,,,,,,,,,,,,,,86.3410237999924,86.35750049998751,86.8427512999915,86.85106350001297,86.85900029999902,86.85900029999902,86.85900029999902,89.85320270000375,j,89.85324649998802,,,89.85325829999056,None,,,1.7361438999942038,0.10331390000646934,,,,,,,,,,,,,,,,,,,,,,,,,,,,,,,,,,00036,001,2026-01-16_22h07.58.999,MST_task,2024.2.0,59.77272020724095,2026-01-16 22h08.17.849575 +0530,
7,practice_images/166a.jpg,5,5,1,f,None,,,2.5825932000007015,0.09600300001329742,,,,,,,1,5,5,,,,89.86981050000759,,,,,,,,,,,,,,,,,,,,,,,89.85332560000825,89.86981050000759,90.35506490000989,90.36551490001148,90.37175689998548,90.37175689998548,90.37175689998548,93.36538269999437,f,93.3675615999964,,,93.36758210000698,None,,,2.5825932000007015,0.09600300001329742,,,,,,,,,,,,,,,,,,,,,,,,,,,,,,,,,,00036,001,2026-01-16_22h07.58.999,MST_task,2024.2.0,59.77272020724095,2026-01-16 22h08.17.849575 +0530,
4,practice_images/002b.jpg,6,6,1,j,None,,,1.9285469999886118,0.11114240001188591,,,,,,,1,6,6,,,,93.3822155999951,,,,,,,,,,,,,,,,,,,,,,,93.36765249999007,93.3822155999951,93.86780760000693,93.87646259999019,93.88367099998868,93.88367099998868,93.88367099998868,96.87767799998983,j,96.8777293000021,,,96.87774269998772,None,,,1.9285469999886118,0.11114240001188591,93.88367099998868,,,,,,,,,,,,,,,,,,,,,,,,,,,,,,,,,00036,001,2026-01-16_22h07.58.999,MST_task,2024.2.0,59.77272020724095,2026-01-16 22h08.17.849575 +0530,
2,practice_images/031a.jpg,7,7,1,j,None,,,1.8068421999923885,0.11949000001186505,,,,,,,1,7,7,,,,96.8945221999893,,,,,,,,,,,,,,,,,,,,,,,96.87780980000389,96.8945221999893,97.37948979999055,97.38771239999915,97.39632920001168,97.39632920001168,97.39632920001168,100.38999110000441,j,100.39006879998487,,,100.39009480000823,None,,,1.8068421999923885,0.11949000001186505,,,,,,,,,,,,,,,,,,,,,,,,,,,,,,,,,,00036,001,2026-01-16_22h07.58.999,MST_task,2024.2.0,59.77272020724095,2026-01-16 22h08.17.849575 +0530,
9,practice_images/180a.jpg,8,8,1,j,None,,,1.0144626999972388,0.12001549999695271,,,,,,,1,8,8,,,,100.40682189998915,,,,,,,,,,,,,,,,,,,,,,,100.39016700000502,100.40682189998915,100.89178299999912,100.9001419999986,100.90847500000382,100.90847500000382,100.90847500000382,103.90257989999373,j,103.90262400000938,,,103.9026368999912,None,,,1.0144626999972388,0.12001549999695271,,,,,,,,,,,,,,,,,,,,,,,,,,,,,,,,,,00036,001,2026-01-16_22h07.58.999,MST_task,2024.2.0,59.77272020724095,2026-01-16 22h08.17.849575 +0530,
6,practice_images/158a.jpg,9,9,1,j,None,,,0.9827378999907523,0.11897000001044944,,,,,,,1,9,9,,,,103.91900190000888,,,,,,,,,,,,,,,,,,,,,,,103.9027051999874,103.91900190000888,104.40422940001008,104.41228799999226,104.42076440001256,104.42076440001256,104.42076440001256,107.4146943000087,j,107.41474040001049,,,107.41475220001303,None,,,0.9827378999907523,0.11897000001044944,,,,,,,,,,,,,,,,,,,,,,,,,,,,,,,,,,00036,001,2026-01-16_22h07.58.999,MST_task,2024.2.0,59.77272020724095,2026-01-16 22h08.17.849575 +0530,
,,,,,,,,,,,,,,,,,,,,,,,,,,,,,,,,,,,,,,,,,,,,,,,,,,,,,,,,,,,,,,,,,107.41479810001329,107.43149270000868,107.43149270000868,119.82574520001072,space,12.37902110000141,None,,,,,,,,,,,,,,,,,,,,,,,,,,00036,001,2026-01-16_22h07.58.999,MST_task,2024.2.0,59.77272020724095,2026-01-16 22h08.17.849575 +0530,
,Objects\159a.jpg,0,0,1,,,,,,,f,2.0654800000193063,0.09732999998959713,None,,,,,,1,0,0,119.84195050000562,,,,,,,,,,,,,,,,,,,,,,,119.8263803999871,119.84195050000562,120.3268104000017,,,,,,,,,,,,,,,,,,,,,,,,120.34435460000532,120.36131310000201,120.36131310000201,120.36131310000201,123.33767780000926,indoor,f,2.0654800000193063,0.09732999998959713,123.3393081999966,123.33932780000032,None,,,,,,,,,,,,,,00036,001,2026-01-16_22h07.58.999,MST_task,2024.2.0,59.77272020724095,2026-01-16 22h08.17.849575 +0530,
,Objects\375a.jpg,1,0,2,,,,,,,j,1.6017553999845404,0.11185839999234304,None,,,,,,2,0,1,123.3540309999953,,,,,,,,,,,,,,,,,,,,,,,123.33939939999254,123.3540309999953,123.83953880000627,,,,,,,,,,,,,,,,123.87306779998471,,,,,,,,123.85483239998575,123.87306779998471,123.87306779998471,123.87306779998471,126.8497922999959,indoor,j,1.6017553999845404,0.11185839999234304,126.8498385999992,126.8498522999871,None,,,,,,,,,,,,,,00036,001,2026-01-16_22h07.58.999,MST_task,2024.2.0,59.77272020724095,2026-01-16 22h08.17.849575 +0530,
,Objects\115a.jpg,2,0,3,,,,,,,f,2.5694638999993913,0.12123000001884066,None,,,,,,3,0,2,126.8664570999972,,,,,,,,,,,,,,,,,,,,,,,126.84992519998923,126.8664570999972,127.35142009999254,,,,,,,,,,,,,,,,,,,,,,,,127.36756650000461,127.38492509999196,127.38492509999196,127.38492509999196,130.36218249998637,indoor,f,2.5694638999993913,0.12123000001884066,130.36236840000493,130.36238169998978,None,,,,,,,,,,,,,,00036,001,2026-01-16_22h07.58.999,MST_task,2024.2.0,59.77272020724095,2026-01-16 22h08.17.849575 +0530,
,Objects\265a.jpg,3,0,4,,,,,,,j,1.6497250999964308,0.10398840002017096,None,,,,,,4,0,3,130.378618799994,,,,,,,,,,,,,,,,,,,,,,,130.36245469999267,130.378618799994,130.86399589999928,,,,,,,,,,,,,,,,,,,,,,,,130.87940090001212,130.8971051000117,130.8971051000117,130.8971051000117,133.87428220000584,indoor,j,1.6497250999964308,0.10398840002017096,133.87433930000407,133.8743514000089,None,,,,,,,,,,,,,,00036,001,2026-01-16_22h07.58.999,MST_task,2024.2.0,59.77272020724095,2026-01-16 22h08.17.849575 +0530,
,Objects\315a.jpg,4,0,5,,,,,,,f,1.7447201999893878,0.11209810001309961,None,,,,,,5,0,4,133.89103530001012,,,,,,,,,,,,,,,,,,,,,,,133.8747713000048,133.89103530001012,134.37662210001145,,,,,,,,,,,,,,,,,,,,,,,,134.39446509999107,134.40967560000718,134.40967560000718,134.40967560000718,137.38704150001286,indoor,f,1.7447201999893878,0.11209810001309961,137.38709549998748,137.3871080999961,None,,,,,,,,,,,,,,00036,001,2026-01-16_22h07.58.999,MST_task,2024.2.0,59.77272020724095,2026-01-16 22h08.17.849575 +0530,
,Objects\277a.jpg,5,0,6,,,,,,,f,1.79303119998076,0.10566180001478642,None,,,,,,6,0,5,137.40328790000058,,,,,,,,,,,,,,,,,,,,,,,137.38718670001253,137.40328790000058,137.88838459999533,,,,,,,,,,,,,,,,,,,,,,,,137.90324169999803,137.92138119999436,137.92138119999436,137.92138119999436,140.89863089998835,indoor,f,1.79303119998076,0.10566180001478642,140.89868710000883,140.89869919998455,None,,,,,,,,,,,,,,00036,001,2026-01-16_22h07.58.999,MST_task,2024.2.0,59.77272020724095,2026-01-16 22h08.17.849575 +0530,
,Objects\008a.jpg,6,0,7,,,,,,,f,1.5371265999856405,0.11937709999619983,None,,,,,,7,0,6,140.91535220001242,,,,,,,,,,,,,,,,,,,,,,,140.89876939999522,140.91535220001242,141.40041719999863,,,,,,,,,,,,,,,,,,,,,,,,141.4154045000032,141.43378510000184,141.43378510000184,141.43378510000184,144.4109233999916,indoor,f,1.5371265999856405,0.11937709999619983,144.41096559999278,144.41097729999456,None,,,,,,,,,,,,,,00036,001,2026-01-16_22h07.58.999,MST_task,2024.2.0,59.77272020724095,2026-01-16 22h08.17.849575 +0530,
,Objects\041a.jpg,7,0,8,,,,,,,j,1.1287964999792166,0.1359991000208538,None,,,,,,8,0,7,144.42777430001297,,,,,,,,,,,,,,,,,,,,,,,144.4110467999999,144.42777430001297,144.91277580001042,,,,,,,,,,,,,,,,,,,,,,,,144.9328162999882,144.94614749998436,144.94614749998436,144.94614749998436,147.9231160999916,shoe,j,1.1287964999792166,0.1359991000208538,147.92541729999357,147.92543719999958,None,,,,,,,,,,,,,,00036,001,2026-01-16_22h07.58.999,MST_task,2024.2.0,59.77272020724095,2026-01-16 22h08.17.849575 +0530,
,Objects\288a.jpg,8,0,9,,,,,,,f,0.9280836000107229,0.11998799999128096,None,,,,,,9,0,8,147.93995359999826,,,,,,,,,,,,,,,,,,,,,,,147.92555250000441,147.93995359999826,148.42536200000905,,,,,,,,,,,,,,,,148.45837899998878,,,,,,,,148.44023199999356,148.45837899998878,148.45837899998878,148.45837899998878,151.43554899998708,shoe,f,0.9280836000107229,0.11998799999128096,151.4356092000089,151.43562209999072,None,,,,,,,,,,,,,,00036,001,2026-01-16_22h07.58.999,MST_task,2024.2.0,59.77272020724095,2026-01-16 22h08.17.849575 +0530,
,Objects\099a.jpg,9,0,10,,,,,,,j,2.695964799990179,0.10427979999803938,None,,,,,,10,0,9,151.45223669998813,,,,,,,,,,,,,,,,,,,,,,,151.4356914999953,151.45223669998813,151.93744859998696,,,,,,,,,,,,,,,,,,,,,,,,151.95371830000659,151.97056660000817,151.97056660000817,151.97056660000817,154.94786310000927,shoe,j,2.695964799990179,0.10427979999803938,154.94790689999354,154.94791960000293,None,,,,,,,,,,,,,,00036,001,2026-01-16_22h07.58.999,MST_task,2024.2.0,59.77272020724095,2026-01-16 22h08.17.849575 +0530,
,Objects\368a.jpg,10,0,11,,,,,,,f,1.6561750000109896,0.11990920000243932,None,,,,,,11,0,10,154.96455659999629,,,,,,,,,,,,,,,,,,,,,,,154.94801459999871,154.96455659999629,155.4495053999999,,,,,,,,,,,,,,,,,,,,,,,,155.4633332999947,155.48310290000518,155.48310290000518,155.48310290000518,158.46000829999684,shoe,f,1.6561750000109896,0.11990920000243932,158.46005379999406,158.46007249999093,None,,,,,,,,,,,,,,00036,001,2026-01-16_22h07.58.999,MST_task,2024.2.0,59.77272020724095,2026-01-16 22h08.17.849575 +0530,
,Objects\092a.jpg,11,0,12,,,,,,,f,1.0638969000137877,0.11966139997821301,None,,,,,,12,0,11,158.47685830001137,,,,,,,,,,,,,,,,,,,,,,,158.46029389998876,158.47685830001137,158.962328900001,,,,,,,,,,,,,,,,,,,,,,,,158.9774097999907,158.99529059999622,158.99529059999622,158.99529059999622,161.97273380000843,shoe,f,1.0638969000137877,0.11966139997821301,161.97277659998508,161.9727886999899,None,,,,,,,,,,,,,,00036,001,2026-01-16_22h07.58.999,MST_task,2024.2.0,59.77272020724095,2026-01-16 22h08.17.849575 +0530,
,Objects\052a.jpg,12,0,13,,,,,,,f,1.2949116999807302,0.12798550000297837,None,,,,,,13,0,12,161.9890163000091,,,,,,,,,,,,,,,,,,,,,,,161.97290870000143,161.9890163000091,162.47422149998602,,,,,,,,,,,,,,,,,,,,,,,,162.48415800000657,162.5074575000035,162.5074575000035,162.5074575000035,165.4846094000095,shoe,f,1.2949116999807302,0.12798550000297837,165.4846533999953,165.48466560000088,None,,,,,,,,,,,,,,00036,001,2026-01-16_22h07.58.999,MST_task,2024.2.0,59.77272020724095,2026-01-16 22h08.17.849575 +0530,
,Objects\069a.jpg,13,0,14,,,,,,,j,1.6309672000061255,0.11951739998767152,None,,,,,,14,0,13,165.5014419000072,,,,,,,,,,,,,,,,,,,,,,,165.48473520000698,165.5014419000072,165.986473500001,,,,,,,,,,,,,,,,,,,,,,,,165.9965452000033,166.01987399999052,166.01987399999052,166.01987399999052,168.99717769998824,shoe,j,1.6309672000061255,0.11951739998767152,168.99722940000356,168.99724289998994,None,,,,,,,,,,,,,,00036,001,2026-01-16_22h07.58.999,MST_task,2024.2.0,59.77272020724095,2026-01-16 22h08.17.849575 +0530,
,Objects\141a.jpg,14,0,15,,,,,,,j,0.951059000013629,0.11251439998159185,None,,,,,,15,0,14,169.01363579998724,,,,,,,,,,,,,,,,,,,,,,,168.99736129998928,169.01363579998724,169.49886610000976,,,,,,,,,,,,,,,,,,,,,,,,169.50947449999512,169.53205609999713,169.53205609999713,169.53205609999713,172.50974380000844,indoor,j,0.951059000013629,0.11251439998159185,172.51094209999428,172.51096179999877,None,,,,,,,,,,,,,,00036,001,2026-01-16_22h07.58.999,MST_task,2024.2.0,59.77272020724095,2026-01-16 22h08.17.849575 +0530,
,Objects\082a.jpg,15,0,16,,,,,,,j,1.2617663000128232,0.12781899998662993,None,,,,,,16,0,15,172.52620480000041,,,,,,,,,,,,,,,,,,,,,,,172.51103359999252,172.52620480000041,173.0111309000058,,,,,,,,,,,,,,,,,,,,,,,,173.02053059998434,173.0449888999865,173.0449888999865,173.0449888999865,176.02253909999854,indoor,j,1.2617663000128232,0.12781899998662993,176.02258359998814,176.0225955999922,None,,,,,,,,,,,,,,00036,001,2026-01-16_22h07.58.999,MST_task,2024.2.0,59.77272020724095,2026-01-16 22h08.17.849575 +0530,
,Objects\144a.jpg,16,0,17,,,,,,,j,1.2700284000020474,0.23096389998681843,None,,,,,,17,0,16,176.0388682000048,,,,,,,,,,,,,,,,,,,,,,,176.02267410000786,176.0388682000048,176.52348919998622,,,,,,,,,,,,,,,,,,,,,,,,176.53386980001233,176.55746039998485,176.55746039998485,176.55746039998485,179.534104499995,indoor,j,1.2700284000020474,0.23096389998681843,179.53414959998918,179.53416159999324,None,,,,,,,,,,,,,,00036,001,2026-01-16_22h07.58.999,MST_task,2024.2.0,59.77272020724095,2026-01-16 22h08.17.849575 +0530,
,Objects\035a.jpg,17,0,18,,,,,,,f,1.9422237000253517,0.10323829998378642,None,,,,,,18,0,17,179.55104650001158,,,,,,,,,,,,,,,,,,,,,,,179.53423109999858,179.55104650001158,180.0362618000072,,,,,,,,,,,,,,,,,,,,,,,,180.04567620001035,180.06916700000875,180.06916700000875,180.06916700000875,183.04623989999527,indoor,f,1.9422237000253517,0.10323829998378642,183.04628449998563,183.04629790000035,None,,,,,,,,,,,,,,00036,001,2026-01-16_22h07.58.999,MST_task,2024.2.0,59.77272020724095,2026-01-16 22h08.17.849575 +0530,
,Objects\151a.jpg,18,0,19,,,,,,,f,0.9258790999883786,0.11916880001081154,None,,,,,,19,0,18,183.06281840000884,,,,,,,,,,,,,,,,,,,,,,,183.04636899998877,183.06281840000884,183.5480045999866,,,,,,,,,,,,,,,,,,,,,,,,183.55883709999034,183.58127960001002,183.58127960001002,183.58127960001002,186.55839640001068,indoor,f,0.9258790999883786,0.11916880001081154,186.55844120000256,186.5584535000089,None,,,,,,,,,,,,,,00036,001,2026-01-16_22h07.58.999,MST_task,2024.2.0,59.77272020724095,2026-01-16 22h08.17.849575 +0530,
,Objects\183a.jpg,19,0,20,,,,,,,f,1.1407911000133026,0.12849289999576285,None,,,,,,20,0,19,186.5752014000027,,,,,,,,,,,,,,,,,,,,,,,186.55852099999902,186.5752014000027,187.0601994000026,,,,,,,,,,,,,,,,,,,,,,,,187.0696489000111,187.09366879999288,187.09366879999288,187.09366879999288,190.0709463999956,indoor,f,1.1407911000133026,0.12849289999576285,190.0709910999867,190.07100289998925,None,,,,,,,,,,,,,,00036,001,2026-01-16_22h07.58.999,MST_task,2024.2.0,59.77272020724095,2026-01-16 22h08.17.849575 +0530,
,Objects\282a.jpg,20,0,21,,,,,,,j,2.1811149999848567,0.13576020000618882,None,,,,,,21,0,20,190.08741909998935,,,,,,,,,,,,,,,,,,,,,,,190.0710728999984,190.08741909998935,190.57264170001145,,,,,,,,,,,,,,,,,,,,,,,,190.5826046000002,190.6058328000072,190.6058328000072,190.6058328000072,193.58314669999527,indoor,j,2.1811149999848567,0.13576020000618882,193.5831940000062,193.5832064000133,None,,,,,,,,,,,,,,00036,001,2026-01-16_22h07.58.999,MST_task,2024.2.0,59.77272020724095,2026-01-16 22h08.17.849575 +0530,
,Objects\046a.jpg,21,0,22,,,,,,,f,2.3406568999926094,0.11990849999710917,None,,,,,,22,0,21,193.59973009998794,,,,,,,,,,,,,,,,,,,,,,,193.58327890001237,193.59973009998794,194.08495369998855,,,,,,,,,,,,,,,,,,,,,,,,194.09644399999524,194.11816610000096,194.11816610000096,194.11816610000096,197.0954286000051,shoe,f,2.3406568999926094,0.11990849999710917,197.09686099999817,197.0968797999958,None,,,,,,,,,,,,,,00036,001,2026-01-16_22h07.58.999,MST_task,2024.2.0,59.77272020724095,2026-01-16 22h08.17.849575 +0530,
,Objects\042a.jpg,22,0,23,,,,,,,j,1.5894142000179272,0.12014990000170656,None,,,,,,23,0,22,197.11213490000227,,,,,,,,,,,,,,,,,,,,,,,197.09695269999793,197.11213490000227,197.59713410001132,,,,,,,,,,,,,,,,,,,,,,,,197.60831869998947,197.6305749999883,197.6305749999883,197.6305749999883,200.6077408999845,shoe,j,1.5894142000179272,0.12014990000170656,200.60778530000243,200.6077978000103,None,,,,,,,,,,,,,,00036,001,2026-01-16_22h07.58.999,MST_task,2024.2.0,59.77272020724095,2026-01-16 22h08.17.849575 +0530,
,Objects\191a.jpg,23,0,24,,,,,,,None,,,j,1.5937961000017822,None,,,,24,0,23,200.62430510000559,,,,,,,,,,,,,,,,,,,,,,,200.60787159999018,200.62430510000559,201.1095079999941,,,,,,,,,,,,,,,,,,,,,,,,201.1191145000048,201.14274790001218,201.14274790001218,201.14274790001218,204.1199559000088,shoe,None,,,204.11999969999306,205.74303260000306,j,204.13684900000226,204.13684900000226,1.5937961000017822,None,,,,,,,,,,00036,001,2026-01-16_22h07.58.999,MST_task,2024.2.0,59.77272020724095,2026-01-16 22h08.17.849575 +0530,
,Objects\221a.jpg,24,0,25,,,,,,,j,2.7495585000142455,0.11145179998129606,None,,,,,,25,0,24,205.7589755000081,,,,,,,,,,,,,,,,,,,,,,,205.74316459998954,205.7589755000081,206.2444797999924,,,,,,,,,,,,,,,,,,,,,,,,206.26083859999198,206.27766469999915,206.27766469999915,206.27766469999915,209.25494469999103,shoe,j,2.7495585000142455,0.11145179998129606,209.25500010000542,209.25501349999104,None,,,,,,,,,,,,,,00036,001,2026-01-16_22h07.58.999,MST_task,2024.2.0,59.77272020724095,2026-01-16 22h08.17.849575 +0530,
,Objects\116a.jpg,25,0,26,,,,,,,f,1.7885112000221852,0.11252009999589063,None,,,,,,26,0,25,209.27168159998837,,,,,,,,,,,,,,,,,,,,,,,209.25508149998495,209.27168159998837,209.75669259999995,,,,,,,,,,,,,,,,,,,,,,,,209.7730925999931,209.79025560000446,209.79025560000446,209.79025560000446,212.76719929999672,shoe,f,1.7885112000221852,0.11252009999589063,212.7672428000078,212.7672551999858,None,,,,,,,,,,,,,,00036,001,2026-01-16_22h07.58.999,MST_task,2024.2.0,59.77272020724095,2026-01-16 22h08.17.849575 +0530,
,Objects\011a.jpg,26,0,27,,,,,,,f,1.3959655000071507,0.1123121999844443,None,,,,,,27,0,26,212.78397280001082,,,,,,,,,,,,,,,,,,,,,,,212.76736789999995,212.78397280001082,213.26911769999424,,,,,,,,,,,,,,,,,,,,,,,,213.2778765000112,213.30245250000735,213.30245250000735,213.30245250000735,216.2798083999951,shoe,f,1.3959655000071507,0.1123121999844443,216.2798507999978,216.27986260000034,None,,,,,,,,,,,,,,00036,001,2026-01-16_22h07.58.999,MST_task,2024.2.0,59.77272020724095,2026-01-16 22h08.17.849575 +0530,
,Objects\326a.jpg,27,0,28,,,,,,,f,1.4605521999765188,0.10328030001255684,None,,,,,,28,0,27,216.2962186000077,,,,,,,,,,,,,,,,,,,,,,,216.27993140000035,216.2962186000077,216.7815108000068,,,,,,,,,,,,,,,,,,,,,,,,216.79411710001295,216.81480610001017,216.81480610001017,216.81480610001017,219.7918028999993,shoe,f,1.4605521999765188,0.10328030001255684,219.7918500000087,219.7918623999867,None,,,,,,,,,,,,,,00036,001,2026-01-16_22h07.58.999,MST_task,2024.2.0,59.77272020724095,2026-01-16 22h08.17.849575 +0530,
,Objects\380a.jpg,28,0,29,,,,,,,j,1.3558027999824844,0.1201205000106711,None,,,,,,29,0,28,219.80858169999556,,,,,,,,,,,,,,,,,,,,,,,219.79193499998655,219.80858169999556,220.29355510001187,,,,,,,,,,,,,,,,,,,,,,,,220.30429279999225,220.32711690000724,220.32711690000724,220.32711690000724,223.30482449999545,indoor,j,1.3558027999824844,0.1201205000106711,223.30620349998935,223.30622669999138,None,,,,,,,,,,,,,,00036,001,2026-01-16_22h07.58.999,MST_task,2024.2.0,59.77272020724095,2026-01-16 22h08.17.849575 +0530,
,Objects\043a.jpg,29,0,30,,,,,,,j,2.883944100001827,None,None,,,,,,30,0,29,223.3207764000108,,,,,,,,,,,,,,,,,,,,,,,223.30630200001178,223.3207764000108,223.8064965000085,,,,,,,,,,,,,,,,,,,,,,,,223.8159888999944,223.83925630000886,223.83925630000886,223.83925630000886,226.81640889999107,indoor,j,2.883944100001827,None,226.81645220000064,226.81646490001003,None,,,,,,,,,,,,,,00036,001,2026-01-16_22h07.58.999,MST_task,2024.2.0,59.77272020724095,2026-01-16 22h08.17.849575 +0530,
,Objects\358a.jpg,30,0,31,,,,,,,f,2.323418000014499,0.1115466000046581,None,,,,,,31,0,30,226.83318149999832,,,,,,,,,,,,,,,,,,,,,,,226.81657150000683,226.83318149999832,227.31894970001304,,,,,,,,,,,,,,,,,,,,,,,,227.334110900003,227.35167989999172,227.35167989999172,227.35167989999172,230.32897810000577,indoor,f,2.323418000014499,0.1115466000046581,230.3290377999947,230.32905090000713,None,,,,,,,,,,,,,,00036,001,2026-01-16_22h07.58.999,MST_task,2024.2.0,59.77272020724095,2026-01-16 22h08.17.849575 +0530,
,Objects\060a.jpg,31,0,32,,,,,,,j,1.8922223999979906,0.13438570001744665,None,,,,,,32,0,31,230.34534989998792,,,,,,,,,,,,,,,,,,,,,,,230.32912330000545,230.34534989998792,230.83119279998937,,,,,,,,,,,,,,,,,,,,,,,,230.84646979998797,230.86384509998607,230.86384509998607,230.86384509998607,233.84105879999697,indoor,j,1.8922223999979906,0.13438570001744665,233.84110210000654,233.84111390000908,None,,,,,,,,,,,,,,00036,001,2026-01-16_22h07.58.999,MST_task,2024.2.0,59.77272020724095,2026-01-16 22h08.17.849575 +0530,
,Objects\165a.jpg,32,0,33,,,,,,,f,1.4596798999991734,0.1267113999929279,None,,,,,,33,0,32,233.857785900007,,,,,,,,,,,,,,,,,,,,,,,233.84132969999337,233.857785900007,234.3427401999943,,,,,,,,,,,,,,,,,,,,,,,,234.3521044999943,234.37630020000506,234.37630020000506,234.37630020000506,237.35355999998865,indoor,f,1.4596798999991734,0.1267113999929279,237.35361590000684,237.3536310000054,None,,,,,,,,,,,,,,00036,001,2026-01-16_22h07.58.999,MST_task,2024.2.0,59.77272020724095,2026-01-16 22h08.17.849575 +0530,
,Objects\029a.jpg,33,0,34,,,,,,,f,1.6106572999851778,0.11126649999641813,None,,,,,,34,0,33,237.36995620001107,,,,,,,,,,,,,,,,,,,,,,,237.35371809999924,237.36995620001107,237.85517480000271,,,,,,,,,,,,,,,,,,,,,,,,237.86466500000097,237.8884967000049,237.8884967000049,237.8884967000049,240.8656229999906,indoor,f,1.6106572999851778,0.11126649999641813,240.86567020000075,240.86568290001014,None,,,,,,,,,,,,,,00036,001,2026-01-16_22h07.58.999,MST_task,2024.2.0,59.77272020724095,2026-01-16 22h08.17.849575 +0530,
,Objects\272a.jpg,34,0,35,,,,,,,j,2.274948799982667,0.127395500021521,None,,,,,,35,0,34,240.88237840001239,,,,,,,,,,,,,,,,,,,,,,,240.86575599998469,240.88237840001239,241.36747349999496,,,,,,,,,,,,,,,,,,,,,,,,241.383190499997,241.4008504000085,241.4008504000085,241.4008504000085,244.3779993999924,indoor,j,2.274948799982667,0.127395500021521,244.3780412999913,244.37805379999918,None,,,,,,,,,,,,,,00036,001,2026-01-16_22h07.58.999,MST_task,2024.2.0,59.77272020724095,2026-01-16 22h08.17.849575 +0530,
,Objects\323a.jpg,35,0,36,,,,,,,f,2.2586157999758143,0.12750960001721978,None,,,,,,36,0,35,244.39454690000275,,,,,,,,,,,,,,,,,,,,,,,244.3781228000007,244.39454690000275,244.87990150001133,,,,,,,,,,,,,,,,,,,,,,,,244.8974445000058,244.9130465000053,244.9130465000053,244.9130465000053,247.89027629999327,shoe,f,2.2586157999758143,0.12750960001721978,247.89182150000124,247.89184029999888,None,,,,,,,,,,,,,,00036,001,2026-01-16_22h07.58.999,MST_task,2024.2.0,59.77272020724095,2026-01-16 22h08.17.849575 +0530,
,Objects\028a.jpg,36,0,37,,,,,,,j,0.9774877000018023,0.14368950002244674,None,,,,,,37,0,36,247.906979899999,,,,,,,,,,,,,,,,,,,,,,,247.8919101000065,247.906979899999,248.3926070999878,,,,,,,,,,,,,,,,,,,,,,,,248.40747149998788,248.42551510001067,248.42551510001067,248.42551510001067,251.402485300001,shoe,j,0.9774877000018023,0.14368950002244674,251.40254179999465,251.402554100001,None,,,,,,,,,,,,,,00036,001,2026-01-16_22h07.58.999,MST_task,2024.2.0,59.77272020724095,2026-01-16 22h08.17.849575 +0530,
,Objects\106a.jpg,37,0,38,,,,,,,j,2.336903599993093,0.1360417999967467,None,,,,,,38,0,37,251.41964899998857,,,,,,,,,,,,,,,,,,,,,,,251.40265639999416,251.41964899998857,251.90423829999054,,,,,,,,,,,,,,,,,,,,,,,,251.91413069999544,251.9378771999909,251.9378771999909,251.9378771999909,254.91498080000747,shoe,j,2.336903599993093,0.1360417999967467,254.91502379998565,254.91503539998666,None,,,,,,,,,,,,,,00036,001,2026-01-16_22h07.58.999,MST_task,2024.2.0,59.77272020724095,2026-01-16 22h08.17.849575 +0530,
,Objects\379a.jpg,38,0,39,,,,,,,j,1.104837499995483,0.1354845000023488,None,,,,,,39,0,38,254.93144069999107,,,,,,,,,,,,,,,,,,,,,,,254.91515549999895,254.93144069999107,255.4166797999933,,,,,,,,,,,,,,,,,,,,,,,,255.4271116000018,255.45006289999583,255.45006289999583,255.45006289999583,258.4271010000084,shoe,j,1.104837499995483,0.1354845000023488,258.42714929999784,258.4271618000057,None,,,,,,,,,,,,,,00036,001,2026-01-16_22h07.58.999,MST_task,2024.2.0,59.77272020724095,2026-01-16 22h08.17.849575 +0530,
,Objects\335a.jpg,39,0,40,,,,,,,j,0.6323574999987613,0.19154279999202117,None,,,,,,40,0,39,258.4440270999912,,,,,,,,,,,,,,,,,,,,,,,258.4272689000063,258.4440270999912,258.9289739000087,,,,,,,,,,,,,,,,,,,,,,,,258.94535480000195,258.9623501999886,258.9623501999886,258.9623501999886,261.93974659999367,shoe,j,0.6323574999987613,0.19154279999202117,261.93987470000866,261.9399184999929,None,,,,,,,,,,,,,,00036,001,2026-01-16_22h07.58.999,MST_task,2024.2.0,59.77272020724095,2026-01-16 22h08.17.849575 +0530,
,Objects\258a.jpg,40,0,41,,,,,,,j,0.8006104000087362,0.1591193999920506,None,,,,,,41,0,40,261.9560545000131,,,,,,,,,,,,,,,,,,,,,,,261.9402293000021,261.9560545000131,262.4414756000042,,,,,,,,,,,,,,,,,,,,,,,,262.4552776000055,262.4746036999859,262.4746036999859,262.4746036999859,265.4517123000114,shoe,j,0.8006104000087362,0.1591193999920506,265.4517700999859,265.451782499993,None,,,,,,,,,,,,,,00036,001,2026-01-16_22h07.58.999,MST_task,2024.2.0,59.77272020724095,2026-01-16 22h08.17.849575 +0530,
,Objects\342a.jpg,41,0,42,,,,,,,None,,,j,1.182061400002567,None,,,,42,0,41,265.46867999999085,,,,,,,,,,,,,,,,,,,,,,,265.45201469998574,265.46867999999085,265.9534630999842,,,,,,,,,,,,,,,,,,,,,,,,265.97014759999,265.9869606999855,265.9869606999855,265.9869606999855,268.96419289999176,shoe,None,,,268.9643936000066,270.16881589998957,j,268.9806466999871,268.9806466999871,1.182061400002567,None,,,,,,,,,,00036,001,2026-01-16_22h07.58.999,MST_task,2024.2.0,59.77272020724095,2026-01-16 22h08.17.849575 +0530,
,Objects\093a.jpg,42,0,43,,,,,,,j,2.5949230999976862,0.11256529999081977,None,,,,,,43,0,42,270.1848684999859,,,,,,,,,,,,,,,,,,,,,,,270.16890749998856,270.1848684999859,270.67018539999845,,,,,,,,,,,,,,,,,,,,,,,,270.6811056000006,270.7033565999882,270.7033565999882,270.7033565999882,273.68051060001017,indoor,j,2.5949230999976862,0.11256529999081977,273.68178949999856,273.6818091000023,None,,,,,,,,,,,,,,00036,001,2026-01-16_22h07.58.999,MST_task,2024.2.0,59.77272020724095,2026-01-16 22h08.17.849575 +0530,
,Objects\359a.jpg,43,0,44,,,,,,,f,1.5235689000110142,0.13602619999437593,None,,,,,,44,0,43,273.69729529999313,,,,,,,,,,,,,,,,,,,,,,,273.68188089999603,273.69729529999313,274.18225939999684,,,,,,,,,,,,,,,,,,,,,,,,274.1986966000113,274.21576180000557,274.21576180000557,274.21576180000557,277.1929125000024,indoor,f,1.5235689000110142,0.13602619999437593,277.19296990000294,277.1929921999981,None,,,,,,,,,,,,,,00036,001,2026-01-16_22h07.58.999,MST_task,2024.2.0,59.77272020724095,2026-01-16 22h08.17.849575 +0530,
,Objects\252a.jpg,44,0,45,,,,,,,f,2.122606699995231,0.09646280002198182,None,,,,,,45,0,44,277.20946779998485,,,,,,,,,,,,,,,,,,,,,,,277.19319290001295,277.20946779998485,277.6946581999946,,,,,,,,,,,,,,,,,,,,,,,,277.71058859999175,277.7279411999916,277.7279411999916,277.7279411999916,280.7051034999895,indoor,f,2.122606699995231,0.09646280002198182,280.7051586000016,280.705182900012,None,,,,,,,,,,,,,,00036,001,2026-01-16_22h07.58.999,MST_task,2024.2.0,59.77272020724095,2026-01-16 22h08.17.849575 +0530,
,Objects\298a.jpg,45,0,46,,,,,,,j,1.762249299994437,0.11215130001073703,None,,,,,,46,0,45,280.7218816000095,,,,,,,,,,,,,,,,,,,,,,,280.7054056999914,280.7218816000095,281.2068638000055,,,,,,,,,,,,,,,,,,,,,,,,281.2179810999951,281.24037240000325,281.24037240000325,281.24037240000325,284.2176941999933,indoor,j,1.762249299994437,0.11215130001073703,284.2177376000036,284.2177495000069,None,,,,,,,,,,,,,,00036,001,2026-01-16_22h07.58.999,MST_task,2024.2.0,59.77272020724095,2026-01-16 22h08.17.849575 +0530,
,Objects\360a.jpg,46,0,47,,,,,,,f,1.546879200002877,0.08711169997695833,None,,,,,,47,0,46,284.2340622000047,,,,,,,,,,,,,,,,,,,,,,,284.2178189000115,284.2340622000047,284.71925570000894,,,,,,,,,,,,,,,,,,,,,,,,284.7350981000054,284.7525461000041,284.7525461000041,284.7525461000041,287.7294206999941,indoor,f,1.546879200002877,0.08711169997695833,287.7294765000115,287.72948909999104,None,,,,,,,,,,,,,,00036,001,2026-01-16_22h07.58.999,MST_task,2024.2.0,59.77272020724095,2026-01-16 22h08.17.849575 +0530,
,Objects\018a.jpg,47,0,48,,,,,,,f,2.3228880999959074,0.09575130001758225,None,,,,,,48,0,47,287.74632750000455,,,,,,,,,,,,,,,,,,,,,,,287.72970510000596,287.74632750000455,288.2311957000056,,,,,,,,,,,,,,,,,,,,,,,,288.2473871000111,288.26462719999836,288.26462719999836,288.26462719999836,291.2417615999875,indoor,f,2.3228880999959074,0.09575130001758225,291.24180469999555,291.24181659999886,None,,,,,,,,,,,,,,00036,001,2026-01-16_22h07.58.999,MST_task,2024.2.0,59.77272020724095,2026-01-16 22h08.17.849575 +0530,
,Objects\169a.jpg,48,0,49,,,,,,,j,1.5452171999786515,0.12042530000326224,None,,,,,,49,0,48,291.258511299995,,,,,,,,,,,,,,,,,,,,,,,291.24188519999734,291.258511299995,291.743782000005,,,,,,,,,,,,,,,,,,,,,,,,291.7533803000115,291.7769757999922,291.7769757999922,291.7769757999922,294.75471829998423,indoor,j,1.5452171999786515,0.12042530000326224,294.75476089998847,294.75477289999253,None,,,,,,,,,,,,,,00036,001,2026-01-16_22h07.58.999,MST_task,2024.2.0,59.77272020724095,2026-01-16 22h08.17.849575 +0530,
,Objects\337a.jpg,49,0,50,,,,,,,None,,,f,1.6155174000014085,None,,,,50,0,49,294.77101470000343,,,,,,,,,,,,,,,,,,,,,,,294.75484189999406,294.77101470000343,295.25603439999395,,,,,,,,,,,,,,,,,,,,,,,,295.2723691999854,295.28976459999103,295.28976459999103,295.28976459999103,298.2664375999884,shoe,None,,,298.2679724000045,299.905863699998,f,298.2832468000124,298.2832468000124,1.6155174000014085,None,,,,,,,,,,00036,001,2026-01-16_22h07.58.999,MST_task,2024.2.0,59.77272020724095,2026-01-16 22h08.17.849575 +0530,
,Objects\111a.jpg,50,0,51,,,,,,,j,1.275487599981716,0.14197100000455976,None,,,,,,51,0,50,299.92232529999455,,,,,,,,,,,,,,,,,,,,,,,299.90595700000995,299.92232529999455,300.40712310001254,,,,,,,,,,,,,,,,,,,,,,,,300.42175270000007,300.4407663999882,300.4407663999882,300.4407663999882,303.4178440000105,shoe,j,1.275487599981716,0.14197100000455976,303.4178971000074,303.41791009998997,None,,,,,,,,,,,,,,00036,001,2026-01-16_22h07.58.999,MST_task,2024.2.0,59.77272020724095,2026-01-16 22h08.17.849575 +0530,
,Objects\381a.jpg,51,0,52,,,,,,,j,1.1624935000145342,0.15162960000452586,None,,,,,,52,0,51,303.43434320000233,,,,,,,,,,,,,,,,,,,,,,,303.41805119998753,303.43434320000233,303.9196319000039,,,,,,,,,,,,,,,,,,,,,,,,303.93431000001146,303.95293390000006,303.95293390000006,303.95293390000006,306.9299323000014,shoe,j,1.1624935000145342,0.15162960000452586,306.9299974000023,306.93001370001,None,,,,,,,,,,,,,,00036,001,2026-01-16_22h07.58.999,MST_task,2024.2.0,59.77272020724095,2026-01-16 22h08.17.849575 +0530,
,Objects\331a.jpg,52,0,53,,,,,,,j,1.5458914999908302,0.14384160001645796,None,,,,,,53,0,52,306.9467528999958,,,,,,,,,,,,,,,,,,,,,,,306.93012259999523,306.9467528999958,307.43174810000346,,,,,,,,,,,,,,,,,,,,,,,,307.4481124999875,307.4652006000106,307.4652006000106,307.4652006000106,310.44231499999296,shoe,j,1.5458914999908302,0.14384160001645796,310.44250539998757,310.4425326999917,None,,,,,,,,,,,,,,00036,001,2026-01-16_22h07.58.999,MST_task,2024.2.0,59.77272020724095,2026-01-16 22h08.17.849575 +0530,
,Objects\121a.jpg,53,0,54,,,,,,,f,1.6335822999826632,0.1038892000215128,None,,,,,,54,0,53,310.4589410999906,,,,,,,,,,,,,,,,,,,,,,,310.44260320000467,310.4589410999906,310.94414909998886,,,,,,,,,,,,,,,,,,,,,,,,310.9591376000026,310.9773656000034,310.9773656000034,310.9773656000034,313.9546662000066,shoe,f,1.6335822999826632,0.1038892000215128,313.9547104999947,313.9547231000033,None,,,,,,,,,,,,,,00036,001,2026-01-16_22h07.58.999,MST_task,2024.2.0,59.77272020724095,2026-01-16 22h08.17.849575 +0530,
,Objects\361a.jpg,54,0,55,,,,,,,j,0.9045408999954816,0.19984220000333153,None,,,,,,55,0,54,313.97123049999936,,,,,,,,,,,,,,,,,,,,,,,313.95479240000714,313.97123049999936,314.4564212000114,,,,,,,,,,,,,,,,,,,,,,,,314.46636849999777,314.48979230000987,314.48979230000987,314.48979230000987,317.4674876999925,shoe,j,0.9045408999954816,0.19984220000333153,317.46754829998827,317.4675606999954,None,,,,,,,,,,,,,,00036,001,2026-01-16_22h07.58.999,MST_task,2024.2.0,59.77272020724095,2026-01-16 22h08.17.849575 +0530,
,Objects\336a.jpg,55,0,56,,,,,,,f,1.6086508000153117,0.10394780000206083,None,,,,,,56,0,55,317.483539000008,,,,,,,,,,,,,,,,,,,,,,,317.4676818999869,317.483539000008,317.9689065999992,,,,,,,,,,,,,,,,,,,,,,,,317.9858096000098,318.0022125999967,318.0022125999967,318.0022125999967,320.9792377999984,shoe,f,1.6086508000153117,0.10394780000206083,320.97929499999736,320.9793079000083,None,,,,,,,,,,,,,,00036,001,2026-01-16_22h07.58.999,MST_task,2024.2.0,59.77272020724095,2026-01-16 22h08.17.849575 +0530,
,Objects\100a.jpg,56,0,57,,,,,,,j,2.3317856999929063,0.11221290001412854,None,,,,,,57,0,56,320.99594980000984,,,,,,,,,,,,,,,,,,,,,,,320.9795266999863,320.99594980000984,321.4811903999944,,,,,,,,,,,,,,,,,,,,,,,,321.4967833000119,321.51849539999967,321.51849539999967,321.51849539999967,324.49152529999265,indoor,j,2.3317856999929063,0.11221290001412854,324.4927445999929,324.4927633999905,None,,,,,,,,,,,,,,00036,001,2026-01-16_22h07.58.999,MST_task,2024.2.0,59.77272020724095,2026-01-16 22h08.17.849575 +0530,
,Objects\204a.jpg,57,0,58,,,,,,,j,2.681149699987145,0.11916390000260435,None,,,,,,58,0,57,324.50824520000606,,,,,,,,,,,,,,,,,,,,,,,324.49283339999965,324.50824520000606,324.9933328999905,,,,,,,,,,,,,,,,,,,,,,,,325.00296230000095,325.0266888999904,325.0266888999904,325.0266888999904,328.00385670000105,indoor,j,2.681149699987145,0.11916390000260435,328.0039044999867,328.00391699999454,None,,,,,,,,,,,,,,00036,001,2026-01-16_22h07.58.999,MST_task,2024.2.0,59.77272020724095,2026-01-16 22h08.17.849575 +0530,
,Objects\224a.jpg,58,0,59,,,,,,,j,1.4233932000061031,0.1531785000115633,None,,,,,,59,0,58,328.0206903000071,,,,,,,,,,,,,,,,,,,,,,,328.0039875000075,328.0206903000071,328.505522499996,,,,,,,,,,,,,,,,,,,,,,,,328.5188737999997,328.5389889999933,328.5389889999933,328.5389889999933,331.5161969999899,indoor,j,1.4233932000061031,0.1531785000115633,331.5162786000001,331.516309300001,None,,,,,,,,,,,,,,00036,001,2026-01-16_22h07.58.999,MST_task,2024.2.0,59.77272020724095,2026-01-16 22h08.17.849575 +0530,
,Objects\317a.jpg,59,0,60,,,,,,,f,1.4475749999983236,0.14297280000755563,None,,,,,,60,0,59,331.53276159998495,,,,,,,,,,,,,,,,,,,,,,,331.516438199993,331.53276159998495,332.01791409999714,,,,,,,,,,,,,,,,,,,,,,,,332.0328668000002,332.05174749999424,332.05174749999424,332.05174749999424,335.0283114000049,indoor,f,1.4475749999983236,0.14297280000755563,335.02837670000736,335.0283931999875,None,,,,,,,,,,,,,,00036,001,2026-01-16_22h07.58.999,MST_task,2024.2.0,59.77272020724095,2026-01-16 22h08.17.849575 +0530,
,Objects\110a.jpg,60,0,61,,,,,,,j,1.6555169000057504,0.14389500001561828,None,,,,,,61,0,60,335.0451449000102,,,,,,,,,,,,,,,,,,,,,,,335.0284713000001,335.0451449000102,335.53012030001264,,,,,,,,,,,,,,,,,,,,,,,,335.5396538999921,335.5635900000052,335.5635900000052,335.5635900000052,338.5410247000109,indoor,j,1.6555169000057504,0.14389500001561828,338.5410839999968,338.54109720001,None,,,,,,,,,,,,,,00036,001,2026-01-16_22h07.58.999,MST_task,2024.2.0,59.77272020724095,2026-01-16 22h08.17.849575 +0530,
,Objects\284a.jpg,61,0,62,,,,,,,j,1.3508707000000868,0.14444299999740906,None,,,,,,62,0,61,338.55733390001114,,,,,,,,,,,,,,,,,,,,,,,338.54116970000905,338.55733390001114,339.0425281999924,,,,,,,,,,,,,,,,,,,,,,,,339.05653520001215,339.0757566000102,339.0757566000102,339.0757566000102,342.0529949000047,indoor,j,1.3508707000000868,0.14444299999740906,342.0533374999941,342.05335030000424,None,,,,,,,,,,,,,,00036,001,2026-01-16_22h07.58.999,MST_task,2024.2.0,59.77272020724095,2026-01-16 22h08.17.849575 +0530,
,Objects\266a.jpg,62,0,63,,,,,,,f,1.0384971000021324,0.16043969997554086,None,,,,,,63,0,62,342.0697361000057,,,,,,,,,,,,,,,,,,,,,,,342.0534241000132,342.0697361000057,342.55483040001127,,,,,,,,,,,,,,,,,,,,,,,,342.56925160001265,342.5881686999928,342.5881686999928,342.5881686999928,345.56539169998723,indoor,f,1.0384971000021324,0.16043969997554086,345.5654361000052,345.56544830001076,None,,,,,,,,,,,,,,00036,001,2026-01-16_22h07.58.999,MST_task,2024.2.0,59.77272020724095,2026-01-16 22h08.17.849575 +0530,
,Objects\080a.jpg,63,0,64,,,,,,,f,2.2791024000034668,0.12711239999043755,None,,,,,,64,0,63,345.58191909999005,,,,,,,,,,,,,,,,,,,,,,,345.56551869999385,345.58191909999005,346.0671688999864,,,,,,,,,,,,,,,,,,,,,,,,346.08445819999906,346.1005547000095,346.1005547000095,346.1005547000095,349.077904100006,shoe,f,2.2791024000034668,0.12711239999043755,349.07938640000066,349.0794057000021,None,,,,,,,,,,,,,,00036,001,2026-01-16_22h07.58.999,MST_task,2024.2.0,59.77272020724095,2026-01-16 22h08.17.849575 +0530,
,Objects\262a.jpg,64,0,65,,,,,,,f,2.42214999999851,0.10436940001090989,None,,,,,,65,0,64,349.09434750000946,,,,,,,,,,,,,,,,,,,,,,,349.07947979998426,349.09434750000946,349.5800711000047,,,,,,,,,,,,,,,,,,,,,,,,349.59603230000357,349.6127935000113,349.6127935000113,349.6127935000113,352.58979580001323,shoe,f,2.42214999999851,0.10436940001090989,352.58983720000833,352.58984880000935,None,,,,,,,,,,,,,,00036,001,2026-01-16_22h07.58.999,MST_task,2024.2.0,59.77272020724095,2026-01-16 22h08.17.849575 +0530,
,Objects\285a.jpg,65,0,66,,,,,,,f,0.877176399983,0.1847317999927327,None,,,,,,66,0,65,352.60675219999393,,,,,,,,,,,,,,,,,,,,,,,352.5899184999871,352.60675219999393,353.0917604000133,,,,,,,,,,,,,,,,,,,,,,,,353.10648769998807,353.1250732000044,353.1250732000044,353.1250732000044,356.1022416999913,shoe,f,0.877176399983,0.1847317999927327,356.1022879999946,356.10230150001007,None,,,,,,,,,,,,,,00036,001,2026-01-16_22h07.58.999,MST_task,2024.2.0,59.77272020724095,2026-01-16 22h08.17.849575 +0530,
,Objects\066a.jpg,66,0,67,,,,,,,None,,,f,1.0434609999938402,None,,,,67,0,66,356.1189600999933,,,,,,,,,,,,,,,,,,,,,,,356.10237839998445,356.1189600999933,356.6040051000018,,,,,,,,,,,,,,,,,,,,,,,,356.61425859999144,356.63726089999545,356.63726089999545,356.63726089999545,359.614436200005,shoe,None,,,359.6144837999891,360.6854914999858,f,359.63153839998995,359.63153839998995,1.0434609999938402,None,,,,,,,,,,00036,001,2026-01-16_22h07.58.999,MST_task,2024.2.0,59.77272020724095,2026-01-16 22h08.17.849575 +0530,
,Objects\085a.jpg,67,0,68,,,,,,,j,1.0713700999913272,0.16665130000910722,None,,,,,,68,0,67,360.7016642999952,,,,,,,,,,,,,,,,,,,,,,,360.68558449999546,360.7016642999952,361.1868443999847,,,,,,,,,,,,,,,,,,,,,,,,361.1967333999928,361.2200901999895,361.2200901999895,361.2200901999895,364.19802949999576,shoe,j,1.0713700999913272,0.16665130000910722,364.19810270000016,364.1981160999858,None,,,,,,,,,,,,,,00036,001,2026-01-16_22h07.58.999,MST_task,2024.2.0,59.77272020724095,2026-01-16 22h08.17.849575 +0530,
,Objects\095a.jpg,68,0,69,,,,,,,f,1.149891299981391,0.12926770001649857,None,,,,,,69,0,68,364.21443170000566,,,,,,,,,,,,,,,,,,,,,,,364.1982444000023,364.21443170000566,364.699034499994,,,,,,,,,,,,,,,,,,,,,,,,364.7088558000105,364.73226729998714,364.73226729998714,364.73226729998714,367.7096225999994,shoe,f,1.149891299981391,0.12926770001649857,367.70982980000554,367.7098745999974,None,,,,,,,,,,,,,,00036,001,2026-01-16_22h07.58.999,MST_task,2024.2.0,59.77272020724095,2026-01-16 22h08.17.849575 +0530,
,Objects\208a.jpg,69,0,70,,,,,,,f,1.8295327000087127,0.12034619998303242,None,,,,,,70,0,69,367.7262441999919,,,,,,,,,,,,,,,,,,,,,,,367.71008930000244,367.7262441999919,368.21152260000235,,,,,,,,,,,,,,,,,,,,,,,,368.2249609999999,368.244690099993,368.244690099993,368.244690099993,371.221744999988,shoe,f,1.8295327000087127,0.12034619998303242,371.2218012000085,371.2218134999857,None,,,,,,,,,,,,,,00036,001,2026-01-16_22h07.58.999,MST_task,2024.2.0,59.77272020724095,2026-01-16 22h08.17.849575 +0530,
,Objects\350a.jpg,70,0,71,,,,,,,None,,,f,0.2281479999946896,None,,,,71,0,70,371.2385503000114,,,,,,,,,,,,,,,,,,,,,,,371.2220319999906,371.2385503000114,371.7236241000064,,,,,,,,,,,,,,,,,,,,,,,,371.7412849999964,371.75699009999516,371.75699009999516,371.75699009999516,374.7344263000123,indoor,None,,,374.73658719999366,374.9855644000054,f,374.7507224000001,374.7507224000001,0.2281479999946896,None,,,,,,,,,,00036,001,2026-01-16_22h07.58.999,MST_task,2024.2.0,59.77272020724095,2026-01-16 22h08.17.849575 +0530,
,Objects\236a.jpg,71,0,72,,,,,,,f,2.0662919000023976,0.12810480000916868,None,,,,,,72,0,71,375.00172999998904,,,,,,,,,,,,,,,,,,,,,,,374.98565640000743,375.00172999998904,375.486708899989,,,,,,,,,,,,,,,,,,,,,,,,375.50561839999864,375.52028580001206,375.52028580001206,375.52028580001206,378.49751089999336,indoor,f,2.0662919000023976,0.12810480000916868,378.49755520001054,378.4975676999893,None,,,,,,,,,,,,,,00036,001,2026-01-16_22h07.58.999,MST_task,2024.2.0,59.77272020724095,2026-01-16 22h08.17.849575 +0530,
,Objects\109a.jpg,72,0,73,,,,,,,j,1.5302838000061456,0.16838379998807795,None,,,,,,73,0,72,378.5139034999884,,,,,,,,,,,,,,,,,,,,,,,378.49763719999464,378.5139034999884,378.9991244999983,,,,,,,,,,,,,,,,,,,,,,,,379.01558790000854,379.032349599991,379.032349599991,379.032349599991,382.0095004999894,indoor,j,1.5302838000061456,0.16838379998807795,382.0095444000035,382.00955640000757,None,,,,,,,,,,,,,,00036,001,2026-01-16_22h07.58.999,MST_task,2024.2.0,59.77272020724095,2026-01-16 22h08.17.849575 +0530,
,Objects\216a.jpg,73,0,74,,,,,,,f,1.426421299984213,0.13556779999635182,None,,,,,,74,0,73,382.0264402999892,,,,,,,,,,,,,,,,,,,,,,,382.0096257000114,382.0264402999892,382.511419699993,,,,,,,,,,,,,,,,,,,,,,,,382.5218188999861,382.5447592000128,382.5447592000128,382.5447592000128,385.5219309999957,indoor,f,1.426421299984213,0.13556779999635182,385.5219807999965,385.5219924999983,None,,,,,,,,,,,,,,00036,001,2026-01-16_22h07.58.999,MST_task,2024.2.0,59.77272020724095,2026-01-16 22h08.17.849575 +0530,
,Objects\062a.jpg,74,0,75,,,,,,,j,2.0977524000045378,0.1285290999803692,None,,,,,,75,0,74,385.53873920001206,,,,,,,,,,,,,,,,,,,,,,,385.52207549999,385.53873920001206,386.0236076999863,,,,,,,,,,,,,,,,,,,,,,,,386.0332714999968,386.0570699000091,386.0570699000091,386.0570699000091,389.0343173999863,indoor,j,2.0977524000045378,0.1285290999803692,389.0346239999926,389.0346370000043,None,,,,,,,,,,,,,,00036,001,2026-01-16_22h07.58.999,MST_task,2024.2.0,59.77272020724095,2026-01-16 22h08.17.849575 +0530,
,Objects\021a.jpg,75,0,76,,,,,,,f,1.0489188999927137,0.1448243999911938,None,,,,,,76,0,75,389.0509444999916,,,,,,,,,,,,,,,,,,,,,,,389.0347058000043,389.0509444999916,389.5360051000025,,,,,,,,,,,,,,,,,,,,,,,,389.5455052999896,389.5692434000084,389.5692434000084,389.5692434000084,392.5463965999952,indoor,f,1.0489188999927137,0.1448243999911938,392.54644119998557,392.54645389999496,None,,,,,,,,,,,,,,00036,001,2026-01-16_22h07.58.999,MST_task,2024.2.0,59.77272020724095,2026-01-16 22h08.17.849575 +0530,
,Objects\289a.jpg,76,0,77,,,,,,,j,1.913513100007549,0.1110218999965582,None,,,,,,77,0,76,392.56323130000965,,,,,,,,,,,,,,,,,,,,,,,392.54652480001096,392.56323130000965,393.048251900007,,,,,,,,,,,,,,,,,,,,,,,,393.0652784999984,393.08165959999315,393.08165959999315,393.08165959999315,396.05880369999795,indoor,j,1.913513100007549,0.1110218999965582,396.05884509999305,396.0588567999948,None,,,,,,,,,,,,,,00036,001,2026-01-16_22h07.58.999,MST_task,2024.2.0,59.77272020724095,2026-01-16 22h08.17.849575 +0530,
,Objects\250a.jpg,77,0,78,,,,,,,f,2.5767061000224203,0.1196318999864161,None,,,,,,78,0,77,396.07540490000974,,,,,,,,,,,,,,,,,,,,,,,396.0589264000009,396.07540490000974,396.56077989999903,,,,,,,,,,,,,,,,,,,,,,,,396.57566490001045,396.5938368999923,396.5938368999923,396.5938368999923,399.57124220000696,shoe,f,2.5767061000224203,0.1196318999864161,399.5732934999978,399.57331179999164,None,,,,,,,,,,,,,,00036,001,2026-01-16_22h07.58.999,MST_task,2024.2.0,59.77272020724095,2026-01-16 22h08.17.849575 +0530,
,Objects\061a.jpg,78,0,79,,,,,,,j,1.3046745999890845,0.167388400004711,None,,,,,,79,0,78,399.5878171999939,,,,,,,,,,,,,,,,,,,,,,,399.573381299997,399.5878171999939,400.07320670000627,,,,,,,,,,,,,,,,400.1062466999865,,,,,,,,400.0879978000012,400.1062466999865,400.1062466999865,400.1062466999865,403.0832836999907,shoe,j,1.3046745999890845,0.167388400004711,403.08332659999724,403.0833399000112,None,,,,,,,,,,,,,,00036,001,2026-01-16_22h07.58.999,MST_task,2024.2.0,59.77272020724095,2026-01-16 22h08.17.849575 +0530,
,Objects\030a.jpg,79,0,80,,,,,,,f,1.8088286999845877,0.13500440001371317,None,,,,,,80,0,79,403.10012310001184,,,,,,,,,,,,,,,,,,,,,,,403.08344610000495,403.10012310001184,403.58506599999964,,,,,,,,,,,,,,,,,,,,,,,,403.59518010000465,403.61854570001015,403.61854570001015,403.61854570001015,406.5957119000086,shoe,f,1.8088286999845877,0.13500440001371317,406.5957752999966,406.5957919000066,None,,,,,,,,,,,,,,00036,001,2026-01-16_22h07.58.999,MST_task,2024.2.0,59.77272020724095,2026-01-16 22h08.17.849575 +0530,
,Objects\010a.jpg,80,0,81,,,,,,,f,1.2252648000139743,0.13435399997979403,None,,,,,,81,0,80,406.61247359999106,,,,,,,,,,,,,,,,,,,,,,,406.5959457999852,406.61247359999106,407.0975351000088,,,,,,,,,,,,,,,,,,,,,,,,407.10787579999305,407.1307444999984,407.1307444999984,407.1307444999984,410.1086621999857,shoe,f,1.2252648000139743,0.13435399997979403,410.10870400001295,410.1087159999879,None,,,,,,,,,,,,,,00036,001,2026-01-16_22h07.58.999,MST_task,2024.2.0,59.77272020724095,2026-01-16 22h08.17.849575 +0530,
,Objects\033a.jpg,81,0,82,,,,,,,f,1.1673349000047892,0.12813130000722595,None,,,,,,82,0,81,410.1250299999956,,,,,,,,,,,,,,,,,,,,,,,410.1087879000115,410.1250299999956,410.609869500011,,,,,,,,,,,,,,,,,,,,,,,,410.61921840001014,410.6433231999981,410.6433231999981,410.6433231999981,413.620488399989,shoe,f,1.1673349000047892,0.12813130000722595,413.6205323000031,413.6205445000087,None,,,,,,,,,,,,,,00036,001,2026-01-16_22h07.58.999,MST_task,2024.2.0,59.77272020724095,2026-01-16 22h08.17.849575 +0530,
,Objects\179a.jpg,82,0,83,,,,,,,f,1.3107298999966588,0.12867310000001453,None,,,,,,83,0,82,413.63706169999205,,,,,,,,,,,,,,,,,,,,,,,413.62061240000185,413.63706169999205,414.12229309999384,,,,,,,,,,,,,,,,,,,,,,,,414.1315853999986,414.1555029999872,414.1555029999872,414.1555029999872,417.1326454000082,shoe,f,1.3107298999966588,0.12867310000001453,417.1326873000071,417.13269850000506,None,,,,,,,,,,,,,,00036,001,2026-01-16_22h07.58.999,MST_task,2024.2.0,59.77272020724095,2026-01-16 22h08.17.849575 +0530,
,Objects\102a.jpg,83,0,84,,,,,,,f,1.3672584999876563,0.11299820002750494,None,,,,,,84,0,83,417.149476599996,,,,,,,,,,,,,,,,,,,,,,,417.1328027000127,417.149476599996,417.6344603000034,,,,,,,,,,,,,,,,,,,,,,,,417.64426639999147,417.66791839999496,417.66791839999496,417.66791839999496,420.64479399999254,shoe,f,1.3672584999876563,0.11299820002750494,420.64484110000194,420.64488320000237,None,,,,,,,,,,,,,,00036,001,2026-01-16_22h07.58.999,MST_task,2024.2.0,59.77272020724095,2026-01-16 22h08.17.849575 +0530,
,Objects\376a.jpg,84,0,85,,,,,,,j,2.447146899998188,0.11122570000588894,None,,,,,,85,0,84,420.66166109999176,,,,,,,,,,,,,,,,,,,,,,,420.6449627999973,420.66166109999176,421.1467249999987,,,,,,,,,,,,,,,,,,,,,,,,421.15753759999643,421.1800579999981,421.1800579999981,421.1800579999981,424.15739710000344,indoor,j,2.447146899998188,0.11122570000588894,424.1586716999882,424.1586915999942,None,,,,,,,,,,,,,,00036,001,2026-01-16_22h07.58.999,MST_task,2024.2.0,59.77272020724095,2026-01-16 22h08.17.849575 +0530,
,Objects\153a.jpg,85,0,86,,,,,,,f,1.3426591999887023,0.09596460001193918,None,,,,,,86,0,85,424.1739600999863,,,,,,,,,,,,,,,,,,,,,,,424.1587601999927,424.1739600999863,424.6592543000006,,,,,,,,,,,,,,,,,,,,,,,,424.66912410000805,424.69240759999957,424.69240759999957,424.69240759999957,427.6696367000113,indoor,f,1.3426591999887023,0.09596460001193918,427.66967909998493,427.6696913999913,None,,,,,,,,,,,,,,00036,001,2026-01-16_22h07.58.999,MST_task,2024.2.0,59.77272020724095,2026-01-16 22h08.17.849575 +0530,
,Objects\104a.jpg,86,0,87,,,,,,,f,1.4145653000159655,0.12792549998266622,None,,,,,,87,0,86,427.6865118999849,,,,,,,,,,,,,,,,,,,,,,,427.67006380000385,427.6865118999849,428.17119079999975,,,,,,,,,,,,,,,,,,,,,,,,428.18065610001213,428.20465890000924,428.20465890000924,428.20465890000924,431.1818413999863,indoor,f,1.4145653000159655,0.12792549998266622,431.18188519999967,431.1818966999999,None,,,,,,,,,,,,,,00036,001,2026-01-16_22h07.58.999,MST_task,2024.2.0,59.77272020724095,2026-01-16 22h08.17.849575 +0530,
,Objects\107a.jpg,87,0,88,,,,,,,None,,,j,0.38874620001297444,None,,,,88,0,87,431.1986537000048,,,,,,,,,,,,,,,,,,,,,,,431.18196539999917,431.1986537000048,431.68373699998483,,,,,,,,,,,,,,,,,,,,,,,,431.6937392000109,431.7168265999935,431.7168265999935,431.7168265999935,434.6939769999881,indoor,None,,,434.6940500999917,435.11281049999525,j,434.7108014000114,434.7108014000114,0.38874620001297444,None,,,,,,,,,,00036,001,2026-01-16_22h07.58.999,MST_task,2024.2.0,59.77272020724095,2026-01-16 22h08.17.849575 +0530,
,Objects\299a.jpg,88,0,89,,,,,,,j,2.1878400000277907,0.09560689999489114,None,,,,,,89,0,88,435.12894620001316,,,,,,,,,,,,,,,,,,,,,,,435.1129041000095,435.12894620001316,435.6140197000059,,,,,,,,,,,,,,,,,,,,,,,,435.62902069999836,435.6472514999914,435.6472514999914,435.6472514999914,438.62515330000315,indoor,j,2.1878400000277907,0.09560689999489114,438.6251954000036,438.6252075000084,None,,,,,,,,,,,,,,00036,001,2026-01-16_22h07.58.999,MST_task,2024.2.0,59.77272020724095,2026-01-16 22h08.17.849575 +0530,
,Objects\127a.jpg,89,0,90,,,,,,,j,2.2426467000041157,0.07998359997873195,None,,,,,,90,0,89,438.6416142999951,,,,,,,,,,,,,,,,,,,,,,,438.6252763000084,438.6416142999951,439.1263434999855,,,,,,,,,,,,,,,,,,,,,,,,439.14301010000054,439.15969609998865,439.15969609998865,439.15969609998865,442.1367081000062,indoor,j,2.2426467000041157,0.07998359997873195,442.136750900012,442.13676240001223,None,,,,,,,,,,,,,,00036,001,2026-01-16_22h07.58.999,MST_task,2024.2.0,59.77272020724095,2026-01-16 22h08.17.849575 +0530,
,Objects\370a.jpg,90,0,91,,,,,,,f,1.0748929000110365,0.11205939998035319,None,,,,,,91,0,90,442.1535384999879,,,,,,,,,,,,,,,,,,,,,,,442.1368557999958,442.1535384999879,442.63851829999476,,,,,,,,,,,,,,,,,,,,,,,,442.6497259000025,442.6719829000067,442.6719829000067,442.6719829000067,445.6490438999899,indoor,f,1.0748929000110365,0.11205939998035319,445.64909319998696,445.64910589999636,None,,,,,,,,,,,,,,00036,001,2026-01-16_22h07.58.999,MST_task,2024.2.0,59.77272020724095,2026-01-16 22h08.17.849575 +0530,
,Objects\270a.jpg,91,0,92,,,,,,,j,2.043562100006966,0.08794050000142306,None,,,,,,92,0,91,445.66597589998855,,,,,,,,,,,,,,,,,,,,,,,445.64946399998735,445.66597589998855,446.1508185999992,,,,,,,,,,,,,,,,,,,,,,,,446.1672699000046,446.18427609998616,446.18427609998616,446.18427609998616,449.1614387999871,shoe,j,2.043562100006966,0.08794050000142306,449.1629561999871,449.16297470001155,None,,,,,,,,,,,,,,00036,001,2026-01-16_22h07.58.999,MST_task,2024.2.0,59.77272020724095,2026-01-16 22h08.17.849575 +0530,
,Objects\205a.jpg,92,0,93,,,,,,,j,1.6344981000002008,0.0963249999913387,None,,,,,,93,0,92,449.1780126999947,,,,,,,,,,,,,,,,,,,,,,,449.163046200003,449.1780126999947,449.66322280000895,,,,,,,,,,,,,,,,,,,,,,,,449.6780083999911,449.69646649999777,449.69646649999777,449.69646649999777,452.67425489999005,shoe,j,1.6344981000002008,0.0963249999913387,452.6742963999859,452.67430819998845,None,,,,,,,,,,,,,,00036,001,2026-01-16_22h07.58.999,MST_task,2024.2.0,59.77272020724095,2026-01-16 22h08.17.849575 +0530,
,Objects\235a.jpg,93,0,94,,,,,,,f,1.3380498999904376,0.12017290000221692,None,,,,,,94,0,93,452.6904394000012,,,,,,,,,,,,,,,,,,,,,,,452.6746484999894,452.6904394000012,453.17542230000254,,,,,,,,,,,,,,,,,,,,,,,,453.19017610000446,453.20888260001084,453.20888260001084,453.20888260001084,456.1863186999981,shoe,f,1.3380498999904376,0.12017290000221692,456.18636329998844,456.1863757999963,None,,,,,,,,,,,,,,00036,001,2026-01-16_22h07.58.999,MST_task,2024.2.0,59.77272020724095,2026-01-16 22h08.17.849575 +0530,
,Objects\310a.jpg,94,0,95,,,,,,,f,1.6097090000112075,0.11264619999565184,None,,,,,,95,0,94,456.2026186999865,,,,,,,,,,,,,,,,,,,,,,,456.1864455000032,456.2026186999865,456.6878539999889,,,,,,,,,,,,,,,,,,,,,,,,456.7041751999932,456.7211765999964,456.7211765999964,456.7211765999964,459.698198099999,shoe,f,1.6097090000112075,0.11264619999565184,459.6982403000002,459.6982521000027,None,,,,,,,,,,,,,,00036,001,2026-01-16_22h07.58.999,MST_task,2024.2.0,59.77272020724095,2026-01-16 22h08.17.849575 +0530,
,Objects\295a.jpg,95,0,96,,,,,,,f,0.8496553000004496,0.12753249998786487,None,,,,,,96,0,95,459.7150331999874,,,,,,,,,,,,,,,,,,,,,,,459.69834780000383,459.7150331999874,460.199996499985,,,,,,,,,,,,,,,,,,,,,,,,460.21495749999303,460.23347599999397,460.23347599999397,460.23347599999397,463.21061320000445,shoe,f,0.8496553000004496,0.12753249998786487,463.21080929998425,463.21082380000735,None,,,,,,,,,,,,,,00036,001,2026-01-16_22h07.58.999,MST_task,2024.2.0,59.77272020724095,2026-01-16 22h08.17.849575 +0530,
,Objects\339a.jpg,96,0,97,,,,,,,j,1.7846265000116546,0.11999889998696744,None,,,,,,97,0,96,463.2272263999912,,,,,,,,,,,,,,,,,,,,,,,463.2109475999896,463.2272263999912,463.7124530999863,,,,,,,,,,,,,,,,,,,,,,,,463.72717870000633,463.7456613999966,463.7456613999966,463.7456613999966,466.72291099998984,shoe,j,1.7846265000116546,0.11999889998696744,466.7229667000065,466.72297949998756,None,,,,,,,,,,,,,,00036,001,2026-01-16_22h07.58.999,MST_task,2024.2.0,59.77272020724095,2026-01-16 22h08.17.849575 +0530,
,Objects\064a.jpg,97,0,98,,,,,,,f,1.2084392000106163,0.12041030000546016,None,,,,,,98,0,97,466.73975869998685,,,,,,,,,,,,,,,,,,,,,,,466.72319660001085,466.73975869998685,467.22464860000764,,,,,,,,,,,,,,,,,,,,,,,,467.2411330000032,467.2580748999899,467.2580748999899,467.2580748999899,470.2352232999983,shoe,f,1.2084392000106163,0.12041030000546016,470.2355511999922,470.2355646000069,None,,,,,,,,,,,,,,00036,001,2026-01-16_22h07.58.999,MST_task,2024.2.0,59.77272020724095,2026-01-16 22h08.17.849575 +0530,
,Objects\072a.jpg,98,0,99,,,,,,,f,2.479707700025756,0.09598359998199157,None,,,,,,99,0,98,470.2518284000107,,,,,,,,,,,,,,,,,,,,,,,470.2356710000022,470.2518284000107,470.7376150999917,,,,,,,,,,,,,,,,,,,,,,,,470.7488619000069,470.7712036999874,470.7712036999874,470.7712036999874,473.7475146999932,indoor,f,2.479707700025756,0.09598359998199157,473.7494486999931,473.74946610000916,None,,,,,,,,,,,,,,00036,001,2026-01-16_22h07.58.999,MST_task,2024.2.0,59.77272020724095,2026-01-16 22h08.17.849575 +0530,
,Objects\076a.jpg,99,0,100,,,,,,,j,1.1363539999874774,0.08806139999069273,None,,,,,,100,0,99,473.764611599996,,,,,,,,,,,,,,,,,,,,,,,473.74953729999834,473.764611599996,474.2496142000018,,,,,,,,,,,,,,,,474.2825534000003,,,,,,,,474.2588095999963,474.2825534000003,474.2825534000003,474.2825534000003,477.2598660000076,indoor,j,1.1363539999874774,0.08806139999069273,477.2599235000089,477.2599489999993,None,,,,,,,,,,,,,,00036,001,2026-01-16_22h07.58.999,MST_task,2024.2.0,59.77272020724095,2026-01-16 22h08.17.849575 +0530,
,Objects\026a.jpg,100,0,101,,,,,,,j,1.5034054000279866,0.11245729998336174,None,,,,,,101,0,100,477.27671000000555,,,,,,,,,,,,,,,,,,,,,,,477.26002660000813,477.27671000000555,477.761668799998,,,,,,,,,,,,,,,,,,,,,,,,477.77138650001143,477.7951420999889,477.7951420999889,477.7951420999889,480.7728889999853,indoor,j,1.5034054000279866,0.11245729998336174,480.77295280000544,480.7729757000052,None,,,,,,,,,,,,,,00036,001,2026-01-16_22h07.58.999,MST_task,2024.2.0,59.77272020724095,2026-01-16 22h08.17.849575 +0530,
,Objects\234a.jpg,101,0,102,,,,,,,None,,,f,0.006371299998136237,None,,,,102,0,101,480.78885360001004,,,,,,,,,,,,,,,,,,,,,,,480.773236500012,480.78885360001004,481.27410690000397,,,,,,,,,,,,,,,,,,,,,,,,481.2839978999982,481.30715300000156,481.30715300000156,481.30715300000156,484.2844475999882,indoor,None,,,484.28448840000783,484.3183350999898,f,484.3011201999907,484.3011201999907,0.006371299998136237,None,,,,,,,,,,00036,001,2026-01-16_22h07.58.999,MST_task,2024.2.0,59.77272020724095,2026-01-16 22h08.17.849575 +0530,
,Objects\171a.jpg,102,0,103,,,,,,,f,0.9251404000096954,0.16799339998397045,None,,,,,,103,0,102,484.3347278999863,,,,,,,,,,,,,,,,,,,,,,,484.3184209000028,484.3347278999863,484.8196875999856,,,,,,,,,,,,,,,,,,,,,,,,484.82933670000057,484.85355969998636,484.85355969998636,484.85355969998636,487.83017549998476,indoor,f,0.9251404000096954,0.16799339998397045,487.8303795999964,487.83039290001034,None,,,,,,,,,,,,,,00036,001,2026-01-16_22h07.58.999,MST_task,2024.2.0,59.77272020724095,2026-01-16 22h08.17.849575 +0530,
,Objects\170a.jpg,103,0,104,,,,,,,j,1.549460199981695,0.12912739999592304,None,,,,,,104,0,103,487.84688900000765,,,,,,,,,,,,,,,,,,,,,,,487.8304685000039,487.84688900000765,488.33198429999175,,,,,,,,,,,,,,,,,,,,,,,,488.34133470000234,488.3653162000119,488.3653162000119,488.3653162000119,491.34266110000317,indoor,j,1.549460199981695,0.12912739999592304,491.342704300012,491.3427171999938,None,,,,,,,,,,,,,,00036,001,2026-01-16_22h07.58.999,MST_task,2024.2.0,59.77272020724095,2026-01-16 22h08.17.849575 +0530,
,Objects\378a.jpg,104,0,105,,,,,,,j,1.973128599987831,0.12024489999748766,None,,,,,,105,0,104,491.35906149999937,,,,,,,,,,,,,,,,,,,,,,,491.3427903999982,491.35906149999937,491.8442686999915,,,,,,,,,,,,,,,,,,,,,,,,491.85532870001043,491.87749399998575,491.87749399998575,491.87749399998575,494.85468079999555,indoor,j,1.973128599987831,0.12024489999748766,494.8547353000031,494.85474750000867,None,,,,,,,,,,,,,,00036,001,2026-01-16_22h07.58.999,MST_task,2024.2.0,59.77272020724095,2026-01-16 22h08.17.849575 +0530,
,Objects\382a.jpg,105,0,106,,,,,,,None,,,j,0.09774810000089929,None,,,,106,0,105,494.8714786999917,,,,,,,,,,,,,,,,,,,,,,,494.8549633999937,494.8714786999917,495.35637029999634,,,,,,,,,,,,,,,,,,,,,,,,495.37332459999016,495.3900527000078,495.3900527000078,495.3900527000078,498.36756899999455,shoe,None,,,498.3693046999979,498.4848297999997,j,498.38477199999033,498.38477199999033,0.09774810000089929,None,,,,,,,,,,00036,001,2026-01-16_22h07.58.999,MST_task,2024.2.0,59.77272020724095,2026-01-16 22h08.17.849575 +0530,
,Objects\147a.jpg,106,0,107,,,,,,,j,2.823515200027032,None,None,,,,,,107,0,106,498.501348699996,,,,,,,,,,,,,,,,,,,,,,,498.4849297000037,498.501348699996,498.98599350001314,,,,,,,,,,,,,,,,,,,,,,,,499.00257549999515,499.01931269999477,499.01931269999477,499.01931269999477,501.9964459000039,shoe,j,2.823515200027032,None,501.99649329998647,501.9965058999951,None,,,,,,,,,,,,,,00036,001,2026-01-16_22h07.58.999,MST_task,2024.2.0,59.77272020724095,2026-01-16 22h08.17.849575 +0530,
,Objects\013a.jpg,107,0,108,,,,,,,j,0.9839145000150893,0.11907710001105443,None,,,,,,108,0,107,502.01331030001165,,,,,,,,,,,,,,,,,,,,,,,501.9965770000126,502.01331030001165,502.4982500000042,,,,,,,,,,,,,,,,,,,,,,,,502.5089757000096,502.53147439999157,502.53147439999157,502.53147439999157,505.50950179999927,shoe,j,0.9839145000150893,0.11907710001105443,505.50955950000207,505.50957319999,None,,,,,,,,,,,,,,00036,001,2026-01-16_22h07.58.999,MST_task,2024.2.0,59.77272020724095,2026-01-16 22h08.17.849575 +0530,
,Objects\301a.jpg,108,0,109,,,,,,,j,2.079031999979634,0.09669669999857433,None,,,,,,109,0,108,505.52574290000484,,,,,,,,,,,,,,,,,,,,,,,505.50965580000775,505.52574290000484,506.0104183999938,,,,,,,,,,,,,,,,,,,,,,,,506.0197075000033,506.0438892999955,506.0438892999955,506.0438892999955,509.0209257999959,shoe,j,2.079031999979634,0.09669669999857433,509.0211135999998,509.0211285999976,None,,,,,,,,,,,,,,00036,001,2026-01-16_22h07.58.999,MST_task,2024.2.0,59.77272020724095,2026-01-16 22h08.17.849575 +0530,
,Objects\371a.jpg,109,0,110,,,,,,,j,0.7668845000152942,0.15102869999827817,None,,,,,,110,0,109,509.03775889999815,,,,,,,,,,,,,,,,,,,,,,,509.0212135000038,509.03775889999815,509.5227738000103,,,,,,,,,,,,,,,,,,,,,,,,509.53722359999665,509.55618720001075,509.55618720001075,509.55618720001075,512.5333675000002,shoe,j,0.7668845000152942,0.15102869999827817,512.5334121999913,512.5334247999999,None,,,,,,,,,,,,,,00036,001,2026-01-16_22h07.58.999,MST_task,2024.2.0,59.77272020724095,2026-01-16 22h08.17.849575 +0530,
,Objects\154a.jpg,110,0,111,,,,,,,j,1.0858195999753661,0.14314590001595207,None,,,,,,111,0,110,512.5501684999908,,,,,,,,,,,,,,,,,,,,,,,512.5335361000034,512.5501684999908,513.0351695999852,,,,,,,,,,,,,,,,,,,,,,,,513.0500119999924,513.0691431000014,513.0691431000014,513.0691431000014,516.0455213999958,shoe,j,1.0858195999753661,0.14314590001595207,516.0455644000031,516.0455758000026,None,,,,,,,,,,,,,,00036,001,2026-01-16_22h07.58.999,MST_task,2024.2.0,59.77272020724095,2026-01-16 22h08.17.849575 +0530,
,Objects\096a.jpg,111,0,112,,,,,,,j,1.238316200004192,0.1589869000017643,None,,,,,,112,0,111,516.0623532999889,,,,,,,,,,,,,,,,,,,,,,,516.0458443000098,516.0623532999889,516.5475228999858,,,,,,,,,,,,,,,,,,,,,,,,516.5571831999987,516.5807891000004,516.5807891000004,516.5807891000004,519.5580195999937,shoe,j,1.238316200004192,0.1589869000017643,519.5580638000101,519.5580754000111,None,,,,,,,,,,,,,,00036,001,2026-01-16_22h07.58.999,MST_task,2024.2.0,59.77272020724095,2026-01-16 22h08.17.849575 +0530,
,Objects\257a.jpg,112,0,113,,,,,,,f,1.6861315999994986,0.1360088000074029,None,,,,,,113,0,112,519.5745214000053,,,,,,,,,,,,,,,,,,,,,,,519.5581571999937,519.5745214000053,520.0601016999863,,,,,,,,,,,,,,,,,,,,,,,,520.0760993000004,520.0929707000032,520.0929707000032,520.0929707000032,523.0702544999949,indoor,f,1.6861315999994986,0.1360088000074029,523.071598599985,523.0716166000057,None,,,,,,,,,,,,,,00036,001,2026-01-16_22h07.58.999,MST_task,2024.2.0,59.77272020724095,2026-01-16 22h08.17.849575 +0530,
,Objects\048a.jpg,113,0,114,,,,,,,j,1.0059474000008777,0.09488540000165813,None,,,,,,114,0,113,523.0871476999891,,,,,,,,,,,,,,,,,,,,,,,523.0717007000057,523.0871476999891,523.571961699985,,,,,,,,,,,,,,,,,,,,,,,,523.5880545999971,523.6054090000107,523.6054090000107,523.6054090000107,526.5825409000099,indoor,j,1.0059474000008777,0.09488540000165813,526.5825839999889,526.5825955999899,None,,,,,,,,,,,,,,00036,001,2026-01-16_22h07.58.999,MST_task,2024.2.0,59.77272020724095,2026-01-16 22h08.17.849575 +0530,
,Objects\172a.jpg,114,0,115,,,,,,,j,1.1494137000117917,0.1272284999722615,None,,,,,,115,0,114,526.5992510000069,,,,,,,,,,,,,,,,,,,,,,,526.5828159000084,526.5992510000069,527.0843854999985,,,,,,,,,,,,,,,,,,,,,,,,527.0942536999937,527.1176836999948,527.1176836999948,527.1176836999948,530.0949798999936,indoor,j,1.1494137000117917,0.1272284999722615,530.0950267000007,530.0950383000018,None,,,,,,,,,,,,,,00036,001,2026-01-16_22h07.58.999,MST_task,2024.2.0,59.77272020724095,2026-01-16 22h08.17.849575 +0530,
,Objects\229a.jpg,115,0,116,,,,,,,f,1.0532289999828208,0.1357680000073742,None,,,,,,116,0,115,530.1114318000036,,,,,,,,,,,,,,,,,,,,,,,530.0951117000077,530.1114318000036,530.5966524000105,,,,,,,,,,,,,,,,,,,,,,,,530.6116471000132,530.6300353000115,530.6300353000115,530.6300353000115,533.607047700003,indoor,f,1.0532289999828208,0.1357680000073742,533.6071366000106,533.6071527999884,None,,,,,,,,,,,,,,00036,001,2026-01-16_22h07.58.999,MST_task,2024.2.0,59.77272020724095,2026-01-16 22h08.17.849575 +0530,
,Objects\088a.jpg,116,0,117,,,,,,,f,1.0921612000092864,0.12765529999160208,None,,,,,,117,0,116,533.6238586000109,,,,,,,,,,,,,,,,,,,,,,,533.6072295999911,533.6238586000109,534.1088556000032,,,,,,,,,,,,,,,,,,,,,,,,534.1237999000004,534.1424507999909,534.1424507999909,534.1424507999909,537.1194991999946,indoor,f,1.0921612000092864,0.12765529999160208,537.1195677999931,537.119588600006,None,,,,,,,,,,,,,,00036,001,2026-01-16_22h07.58.999,MST_task,2024.2.0,59.77272020724095,2026-01-16 22h08.17.849575 +0530,
,Objects\297a.jpg,117,0,118,,,,,,,f,0.6364117000193801,0.15152620000299066,None,,,,,,118,0,117,537.1360397000099,,,,,,,,,,,,,,,,,,,,,,,537.1197025000001,537.1360397000099,537.6212267999945,,,,,,,,,,,,,,,,,,,,,,,,537.6412096999993,537.6546082000132,537.6546082000132,537.6546082000132,540.6317235000024,indoor,f,0.6364117000193801,0.15152620000299066,540.6317670999852,540.6317787999869,None,,,,,,,,,,,,,,00036,001,2026-01-16_22h07.58.999,MST_task,2024.2.0,59.77272020724095,2026-01-16 22h08.17.849575 +0530,
,Objects\119a.jpg,118,0,119,,,,,,,f,1.5399704999872483,0.13638860001810826,None,,,,,,119,0,118,540.6484369999962,,,,,,,,,,,,,,,,,,,,,,,540.6318474999862,540.6484369999962,541.133410200011,,,,,,,,,,,,,,,,,,,,,,,,541.1484184000001,541.1668918000069,541.1668918000069,541.1668918000069,544.1439061000128,indoor,f,1.5399704999872483,0.13638860001810826,544.1439632000111,544.1439872999908,None,,,,,,,,,,,,,,00036,001,2026-01-16_22h07.58.999,MST_task,2024.2.0,59.77272020724095,2026-01-16 22h08.17.849575 +0530,
,Objects\038a.jpg,119,0,120,,,,,,,f,0.9238310999935493,0.7035450999974273,None,,,,,,120,0,119,544.1607742999913,,,,,,,,,,,,,,,,,,,,,,,544.144440700009,544.1607742999913,544.6457282000047,,,,,,,,,,,,,,,,,,,,,,,,544.656719999999,544.6797777999891,544.6797777999891,544.6797777999891,547.6565154999844,shoe,f,0.9238310999935493,0.7035450999974273,547.6582796000002,547.6582977999933,None,,,,,,,,,,,,,,00036,001,2026-01-16_22h07.58.999,MST_task,2024.2.0,59.77272020724095,2026-01-16 22h08.17.849575 +0530,
,Objects\086a.jpg,120,0,121,,,,,,,j,1.4031733999727294,0.1284639000077732,None,,,,,,121,0,120,547.6729130999884,,,,,,,,,,,,,,,,,,,,,,,547.658411899989,547.6729130999884,548.1585676000104,,,,,,,,,,,,,,,,548.1913633999939,,,,,,,,548.168390900013,548.1913633999939,548.1913633999939,548.1913633999939,551.1684984999883,shoe,j,1.4031733999727294,0.1284639000077732,551.1685384000011,551.1685507000075,None,,,,,,,,,,,,,,00036,001,2026-01-16_22h07.58.999,MST_task,2024.2.0,59.77272020724095,2026-01-16 22h08.17.849575 +0530,
,Objects\212a.jpg,121,0,122,,,,,,,f,2.339631000009831,0.14330940000945702,None,,,,,,122,0,121,551.1854628000001,,,,,,,,,,,,,,,,,,,,,,,551.1691759999958,551.1854628000001,551.6703965000052,,,,,,,,,,,,,,,,,,,,,,,,551.6873114999908,551.703783200006,551.703783200006,551.703783200006,554.6809415000025,shoe,f,2.339631000009831,0.14330940000945702,554.6812629000051,554.6812755999854,None,,,,,,,,,,,,,,00036,001,2026-01-16_22h07.58.999,MST_task,2024.2.0,59.77272020724095,2026-01-16 22h08.17.849575 +0530,
,Objects\065a.jpg,122,0,123,,,,,,,j,0.9785083999740891,0.12838920002104715,None,,,,,,123,0,122,554.6976419999846,,,,,,,,,,,,,,,,,,,,,,,554.6813452999922,554.6976419999846,555.1827234000084,,,,,,,,,,,,,,,,,,,,,,,,555.1988994999847,555.2159622999898,555.2159622999898,555.2159622999898,558.193119500007,shoe,j,0.9785083999740891,0.12838920002104715,558.1931612000044,558.1932002000103,None,,,,,,,,,,,,,,00036,001,2026-01-16_22h07.58.999,MST_task,2024.2.0,59.77272020724095,2026-01-16 22h08.17.849575 +0530,
,Objects\259a.jpg,123,0,124,,,,,,,j,1.362493499997072,0.11980539999785833,None,,,,,,124,0,123,558.2100571999908,,,,,,,,,,,,,,,,,,,,,,,558.1934601000103,558.2100571999908,558.6951953000098,,,,,,,,,,,,,,,,,,,,,,,,558.7128450000018,558.7283782000013,558.7283782000013,558.7283782000013,561.7054723000037,shoe,j,1.362493499997072,0.11980539999785833,561.7055255000014,561.7055385000131,None,,,,,,,,,,,,,,00036,001,2026-01-16_22h07.58.999,MST_task,2024.2.0,59.77272020724095,2026-01-16 22h08.17.849575 +0530,
,Objects\163a.jpg,124,0,125,,,,,,,j,1.0414706000010483,0.12040430001798086,None,,,,,,125,0,124,561.7222304999887,,,,,,,,,,,,,,,,,,,,,,,561.7056141000066,561.7222304999887,562.2073343000084,,,,,,,,,,,,,,,,,,,,,,,,562.2250353999843,562.2406756999844,562.2406756999844,562.2406756999844,565.217825300002,shoe,j,1.0414706000010483,0.12040430001798086,565.2180214000109,565.2180336999882,None,,,,,,,,,,,,,,00036,001,2026-01-16_22h07.58.999,MST_task,2024.2.0,59.77272020724095,2026-01-16 22h08.17.849575 +0530,
,Objects\309a.jpg,125,0,126,,,,,,,j,1.6424154000123963,0.12802050000755116,None,,,,,,126,0,125,565.2344268999877,,,,,,,,,,,,,,,,,,,,,,,565.2181017000112,565.2344268999877,565.7196368000004,,,,,,,,,,,,,,,,,,,,,,,,565.7358843999973,565.7528570999857,565.7528570999857,565.7528570999857,568.7300111000077,shoe,j,1.6424154000123963,0.12802050000755116,568.7300558999996,568.7300685000082,None,,,,,,,,,,,,,,00036,001,2026-01-16_22h07.58.999,MST_task,2024.2.0,59.77272020724095,2026-01-16 22h08.17.849575 +0530,
,Objects\255a.jpg,126,0,127,,,,,,,f,2.4657094000140205,0.11177349998615682,None,,,,,,127,0,126,568.7468395000033,,,,,,,,,,,,,,,,,,,,,,,568.7301393999951,568.7468395000033,569.2319904000033,,,,,,,,,,,,,,,,,,,,,,,,569.2475451999926,569.2653017000121,569.2653017000121,569.2653017000121,572.2426164000062,indoor,f,2.4657094000140205,0.11177349998615682,572.2438664000074,572.2438856000081,None,,,,,,,,,,,,,,00036,001,2026-01-16_22h07.58.999,MST_task,2024.2.0,59.77272020724095,2026-01-16 22h08.17.849575 +0530,
,Objects\367a.jpg,127,0,128,,,,,,,f,0.9128706000046805,0.1277064000023529,None,,,,,,128,0,127,572.2590403000067,,,,,,,,,,,,,,,,,,,,,,,572.243956899998,572.2590403000067,572.7442226999847,,,,,,,,,,,,,,,,,,,,,,,,572.7586881000025,572.7775849000027,572.7775849000027,572.7775849000027,575.7548460999969,indoor,f,0.9128706000046805,0.1277064000023529,575.7548910999903,575.7549043000035,None,,,,,,,,,,,,,,00036,001,2026-01-16_22h07.58.999,MST_task,2024.2.0,59.77272020724095,2026-01-16 22h08.17.849575 +0530,
,Objects\222a.jpg,128,0,129,,,,,,,j,1.4409802999871317,0.11125940000056289,None,,,,,,129,0,128,575.7713207000052,,,,,,,,,,,,,,,,,,,,,,,575.7550278000126,575.7713207000052,576.2565170000016,,,,,,,,,,,,,,,,,,,,,,,,576.271121400001,576.2898930000083,576.2898930000083,576.2898930000083,579.2671738000063,indoor,j,1.4409802999871317,0.11125940000056289,579.267217399989,579.2672300999984,None,,,,,,,,,,,,,,00036,001,2026-01-16_22h07.58.999,MST_task,2024.2.0,59.77272020724095,2026-01-16 22h08.17.849575 +0530,
,Objects\112a.jpg,129,0,130,,,,,,,f,0.9043143000162672,0.16098300000885502,None,,,,,,130,0,129,579.2836134000099,,,,,,,,,,,,,,,,,,,,,,,579.2673276000132,579.2836134000099,579.7688376999868,,,,,,,,,,,,,,,,,,,,,,,,579.7846331000037,579.8020634999848,579.8020634999848,579.8020634999848,582.7792055000027,indoor,f,0.9043143000162672,0.16098300000885502,582.7792474000016,582.7792603000125,None,,,,,,,,,,,,,,00036,001,2026-01-16_22h07.58.999,MST_task,2024.2.0,59.77272020724095,2026-01-16 22h08.17.849575 +0530,
,Objects\176a.jpg,130,0,131,,,,,,,j,2.175847700011218,0.12898879998829216,None,,,,,,131,0,130,582.7961153000069,,,,,,,,,,,,,,,,,,,,,,,582.7793291000125,582.7961153000069,583.281012899999,,,,,,,,,,,,,,,,,,,,,,,,583.2906000000075,583.3144754999958,583.3144754999958,583.3144754999958,586.2916194999998,indoor,j,2.175847700011218,0.12898879998829216,586.2916618000017,586.2916736000043,None,,,,,,,,,,,,,,00036,001,2026-01-16_22h07.58.999,MST_task,2024.2.0,59.77272020724095,2026-01-16 22h08.17.849575 +0530,
,Objects\177a.jpg,131,0,132,,,,,,,f,1.4961747999768704,0.13584699999773875,None,,,,,,132,0,131,586.308225899993,,,,,,,,,,,,,,,,,,,,,,,586.2917414999974,586.308225899993,586.793545499997,,,,,,,,,,,,,,,,,,,,,,,,586.8036533000122,586.8266598999908,586.8266598999908,586.8266598999908,589.8038009000011,indoor,f,1.4961747999768704,0.13584699999773875,589.8038438000076,589.8038560000132,None,,,,,,,,,,,,,,00036,001,2026-01-16_22h07.58.999,MST_task,2024.2.0,59.77272020724095,2026-01-16 22h08.17.849575 +0530,
,Objects\161a.jpg,132,0,133,,,,,,,j,1.1752751000167336,0.11299709999002516,None,,,,,,133,0,132,589.8206264000037,,,,,,,,,,,,,,,,,,,,,,,589.8039258999925,589.8206264000037,590.3056305999926,,,,,,,,,,,,,,,,,,,,,,,,590.3154504999984,590.3390673999966,590.3390673999966,590.3390673999966,593.316404799989,indoor,j,1.1752751000167336,0.11299709999002516,593.3164752000012,593.3164869000029,None,,,,,,,,,,,,,,00036,001,2026-01-16_22h07.58.999,MST_task,2024.2.0,59.77272020724095,2026-01-16 22h08.17.849575 +0530,
,Objects\173a.jpg,133,0,134,,,,,,,f,1.9030515999766067,0.12872770000831224,None,,,,,,134,0,133,593.3328203000128,,,,,,,,,,,,,,,,,,,,,,,593.3165552999999,593.3328203000128,593.8182467999868,,,,,,,,,,,,,,,,,,,,,,,,593.8294073999859,593.8512499000062,593.8512499000062,593.8512499000062,596.8285094999883,shoe,f,1.9030515999766067,0.12872770000831224,596.8307333000121,596.8307519000082,None,,,,,,,,,,,,,,00036,001,2026-01-16_22h07.58.999,MST_task,2024.2.0,59.77272020724095,2026-01-16 22h08.17.849575 +0530,
,Objects\180a.jpg,134,0,135,,,,,,,None,,,j,None,None,,,,135,0,134,596.8451097999932,,,,,,,,,,,,,,,,,,,,,,,596.8308571999951,596.8451097999932,597.3306762999855,,,,,,,,,,,,,,,,597.3635481999954,,,,,,,,597.3399144999858,597.3635481999954,597.3635481999954,597.3635481999954,600.3407308000023,shoe,None,,,600.3407824999886,600.4918706000026,j,600.3575217000034,600.3575217000034,None,None,,,,,,,,,,00036,001,2026-01-16_22h07.58.999,MST_task,2024.2.0,59.77272020724095,2026-01-16 22h08.17.849575 +0530,
,Objects\199a.jpg,135,0,136,,,,,,,f,0.9849209999956656,0.20049550000112504,None,,,,,,136,0,135,600.507941799995,,,,,,,,,,,,,,,,,,,,,,,600.491958700004,600.507941799995,600.9933111999999,,,,,,,,,,,,,,,,,,,,,,,,601.0073552000104,601.0263777000073,601.0263777000073,601.0263777000073,604.0036867999879,shoe,f,0.9849209999956656,0.20049550000112504,604.0037291999906,604.0037413999962,None,,,,,,,,,,,,,,00036,001,2026-01-16_22h07.58.999,MST_task,2024.2.0,59.77272020724095,2026-01-16 22h08.17.849575 +0530,
,Objects\164a.jpg,136,0,137,,,,,,,f,1.447873900004197,0.11197309999261051,None,,,,,,137,0,136,604.0205171999987,,,,,,,,,,,,,,,,,,,,,,,604.003812400013,604.0205171999987,604.5055040000007,,,,,,,,,,,,,,,,,,,,,,,,604.5198794000025,604.539060799987,604.539060799987,604.539060799987,607.5159636999888,shoe,f,1.447873900004197,0.11197309999261051,607.5160053999862,607.5160175999918,None,,,,,,,,,,,,,,00036,001,2026-01-16_22h07.58.999,MST_task,2024.2.0,59.77272020724095,2026-01-16 22h08.17.849575 +0530,
,Objects\210a.jpg,137,0,138,,,,,,,f,0.7750719000177924,0.19247760000871494,None,,,,,,138,0,137,607.5328143000079,,,,,,,,,,,,,,,,,,,,,,,607.5161252999969,607.5328143000079,608.0178731000051,,,,,,,,,,,,,,,,,,,,,,,,608.0311662000022,608.0512186000124,608.0512186000124,608.0512186000124,611.0281076999963,shoe,f,0.7750719000177924,0.19247760000871494,611.0281603999902,611.0281733000011,None,,,,,,,,,,,,,,00036,001,2026-01-16_22h07.58.999,MST_task,2024.2.0,59.77272020724095,2026-01-16 22h08.17.849575 +0530,
,Objects\118a.jpg,138,0,139,,,,,,,f,0.9034898999962024,0.15199739998206496,None,,,,,,139,0,138,611.0449547999888,,,,,,,,,,,,,,,,,,,,,,,611.0282440999872,611.0449547999888,611.5299494999927,,,,,,,,,,,,,,,,,,,,,,,,611.5454000000027,611.5633896999934,611.5633896999934,611.5633896999934,614.5405293999938,shoe,f,0.9034898999962024,0.15199739998206496,614.5405776000116,614.5405895999866,None,,,,,,,,,,,,,,00036,001,2026-01-16_22h07.58.999,MST_task,2024.2.0,59.77272020724095,2026-01-16 22h08.17.849575 +0530,
,Objects\098a.jpg,139,0,140,,,,,,,f,1.3193409999948926,0.1440800999989733,None,,,,,,140,0,139,614.5571232000075,,,,,,,,,,,,,,,,,,,,,,,614.5406577000103,614.5571232000075,615.0423187999986,,,,,,,,,,,,,,,,,,,,,,,,615.052214299998,615.0755667999911,615.0755667999911,615.0755667999911,618.0527171999856,shoe,f,1.3193409999948926,0.1440800999989733,618.052760999999,618.0527734000061,None,,,,,,,,,,,,,,00036,001,2026-01-16_22h07.58.999,MST_task,2024.2.0,59.77272020724095,2026-01-16 22h08.17.849575 +0530,
,Objects\300a.jpg,140,0,141,,,,,,,f,0.8394578000006732,0.15920909997657873,None,,,,,,141,0,140,618.0695511999947,,,,,,,,,,,,,,,,,,,,,,,618.0531536999915,618.0695511999947,618.5546255999943,,,,,,,,,,,,,,,,,,,,,,,,618.5714193999884,618.5879877000116,618.5879877000116,618.5879877000116,621.5687499000051,indoor,f,0.8394578000006732,0.15920909997657873,621.5699956000026,621.5700161000132,None,,,,,,,,,,,,,,00036,001,2026-01-16_22h07.58.999,MST_task,2024.2.0,59.77272020724095,2026-01-16 22h08.17.849575 +0530,
,Objects\194a.jpg,141,0,142,,,,,,,f,0.7987118000164628,0.16775339999003336,None,,,,,,142,0,141,621.5819441000058,,,,,,,,,,,,,,,,,,,,,,,621.5700913000037,621.5819441000058,622.067286400008,,,,,,,,,,,,,,,,622.1002102000057,,,,,,,,622.0806799000129,622.1002102000057,622.1002102000057,622.1002102000057,625.0773943999957,indoor,f,0.7987118000164628,0.16775339999003336,625.0774376000045,625.0774508999893,None,,,,,,,,,,,,,,00036,001,2026-01-16_22h07.58.999,MST_task,2024.2.0,59.77272020724095,2026-01-16 22h08.17.849575 +0530,
,Objects\130a.jpg,142,0,143,,,,,,,f,2.1984878000221215,0.15161739999894053,None,,,,,,143,0,142,625.0942679999862,,,,,,,,,,,,,,,,,,,,,,,625.0778221999935,625.0942679999862,625.579287200002,,,,,,,,,,,,,,,,,,,,,,,,625.5933005000115,625.6125840999885,625.6125840999885,625.6125840999885,628.5897297000047,indoor,f,2.1984878000221215,0.15161739999894053,628.5899190999917,628.5899310999957,None,,,,,,,,,,,,,,00036,001,2026-01-16_22h07.58.999,MST_task,2024.2.0,59.77272020724095,2026-01-16 22h08.17.849575 +0530,
,Objects\223a.jpg,143,0,144,,,,,,,j,1.206301700003678,0.1118533999833744,None,,,,,,144,0,143,628.6065367000119,,,,,,,,,,,,,,,,,,,,,,,628.5899994999927,628.6065367000119,629.0916147000098,,,,,,,,,,,,,,,,,,,,,,,,629.1009478000051,629.124782400002,629.124782400002,629.124782400002,632.1020385999873,indoor,j,1.206301700003678,0.1118533999833744,632.102083500009,632.1020953000116,None,,,,,,,,,,,,,,00036,001,2026-01-16_22h07.58.999,MST_task,2024.2.0,59.77272020724095,2026-01-16 22h08.17.849575 +0530,
,Objects\081a.jpg,144,0,145,,,,,,,f,1.8057640999904834,0.12779530000989325,None,,,,,,145,0,144,632.1186384999892,,,,,,,,,,,,,,,,,,,,,,,632.1021666000015,632.1186384999892,632.6038208999962,,,,,,,,,,,,,,,,,,,,,,,,632.6135800000047,632.6370681000117,632.6370681000117,632.6370681000117,635.6142521000002,indoor,f,1.8057640999904834,0.12779530000989325,635.6143097000022,635.6143217000063,None,,,,,,,,,,,,,,00036,001,2026-01-16_22h07.58.999,MST_task,2024.2.0,59.77272020724095,2026-01-16 22h08.17.849575 +0530,
,Objects\020a.jpg,145,0,146,,,,,,,f,2.581456200015964,0.13662199999089353,None,,,,,,146,0,145,635.6311643999943,,,,,,,,,,,,,,,,,,,,,,,635.6146545000083,635.6311643999943,636.1160184000037,,,,,,,,,,,,,,,,,,,,,,,,636.125728199986,636.1494868999871,636.1494868999871,636.1494868999871,639.126783899992,indoor,f,2.581456200015964,0.13662199999089353,639.1268266999978,639.1268386000011,None,,,,,,,,,,,,,,00036,001,2026-01-16_22h07.58.999,MST_task,2024.2.0,59.77272020724095,2026-01-16 22h08.17.849575 +0530,
,Objects\142a.jpg,146,0,147,,,,,,,f,0.9167257000226527,0.14463949998025782,None,,,,,,147,0,146,639.1433486999886,,,,,,,,,,,,,,,,,,,,,,,639.1269085000094,639.1433486999886,639.6286098000128,,,,,,,,,,,,,,,,,,,,,,,,639.6382448000077,639.6616683999891,639.6616683999891,639.6616683999891,642.6390811000019,indoor,f,0.9167257000226527,0.14463949998025782,642.6394054999982,642.6394176000031,None,,,,,,,,,,,,,,00036,001,2026-01-16_22h07.58.999,MST_task,2024.2.0,59.77272020724095,2026-01-16 22h08.17.849575 +0530,
,Objects\158a.jpg,147,0,148,,,,,,,f,1.4444749999966007,0.16069590000552125,None,,,,,,148,0,147,642.6557807000063,,,,,,,,,,,,,,,,,,,,,,,642.6394864000031,642.6557807000063,643.1406454000098,,,,,,,,,,,,,,,,,,,,,,,,643.1520736000093,643.1740807000024,643.1740807000024,643.1740807000024,646.1512155999953,shoe,f,1.4444749999966007,0.16069590000552125,646.1533109000011,646.1533291999949,None,,,,,,,,,,,,,,00036,001,2026-01-16_22h07.58.999,MST_task,2024.2.0,59.77272020724095,2026-01-16 22h08.17.849575 +0530,
,Objects\160a.jpg,148,0,149,,,,,,,f,1.8526079000148457,0.14370789998793043,None,,,,,,149,0,148,646.1678244000068,,,,,,,,,,,,,,,,,,,,,,,646.1534390999877,646.1678244000068,646.6534832000034,,,,,,,,,,,,,,,,646.6862588000076,,,,,,,,646.6630855000112,646.6862588000076,646.6862588000076,646.6862588000076,649.6635158999998,shoe,f,1.8526079000148457,0.14370789998793043,649.6635575999971,649.6635706000088,None,,,,,,,,,,,,,,00036,001,2026-01-16_22h07.58.999,MST_task,2024.2.0,59.77272020724095,2026-01-16 22h08.17.849575 +0530,
,Objects\168a.jpg,149,0,150,,,,,,,j,2.4771197000227403,0.15165970000089146,None,,,,,,150,0,149,649.6802414999984,,,,,,,,,,,,,,,,,,,,,,,649.663664599997,649.6802414999984,650.1652039999899,,,,,,,,,,,,,,,,,,,,,,,,650.1750071000133,650.1988391999912,650.1988391999912,650.1988391999912,653.1759194000042,shoe,j,2.4771197000227403,0.15165970000089146,653.1759614000039,653.1759731000056,None,,,,,,,,,,,,,,00036,001,2026-01-16_22h07.58.999,MST_task,2024.2.0,59.77272020724095,2026-01-16 22h08.17.849575 +0530,
,Objects\278a.jpg,150,0,151,,,,,,,j,1.2436439000011887,0.13716469999053515,None,,,,,,151,0,150,653.1924166000099,,,,,,,,,,,,,,,,,,,,,,,653.1760900999943,653.1924166000099,653.6785410000011,,,,,,,,,,,,,,,,,,,,,,,,653.7001862000034,653.7110391999886,653.7110391999886,653.7110391999886,656.6880134000094,shoe,j,1.2436439000011887,0.13716469999053515,656.6880562999868,656.6880685999931,None,,,,,,,,,,,,,,00036,001,2026-01-16_22h07.58.999,MST_task,2024.2.0,59.77272020724095,2026-01-16 22h08.17.849575 +0530,
,Objects\150a.jpg,151,0,152,,,,,,,None,,,f,0.20139440000639297,None,,,,152,0,151,656.7049639000033,,,,,,,,,,,,,,,,,,,,,,,656.6881443999882,656.7049639000033,657.189861699997,,,,,,,,,,,,,,,,,,,,,,,,657.2056939000031,657.2232831000001,657.2232831000001,657.2232831000001,660.2006180000026,shoe,None,,,660.2006663999928,660.435106799996,f,660.2173923999944,660.2173923999944,0.20139440000639297,None,,,,,,,,,,00036,001,2026-01-16_22h07.58.999,MST_task,2024.2.0,59.77272020724095,2026-01-16 22h08.17.849575 +0530,
,Objects\202a.jpg,152,0,153,,,,,,,j,2.416943300020648,0.10423959998297505,None,,,,,,153,0,152,660.4511748999939,,,,,,,,,,,,,,,,,,,,,,,660.4351931999845,660.4511748999939,660.9369887000066,,,,,,,,,,,,,,,,,,,,,,,,660.9502935000055,660.9696115000115,660.9696115000115,660.9696115000115,663.9468882000074,shoe,j,2.416943300020648,0.10423959998297505,663.9469310999848,663.9469436999934,None,,,,,,,,,,,,,,00036,001,2026-01-16_22h07.58.999,MST_task,2024.2.0,59.77272020724095,2026-01-16 22h08.17.849575 +0530,
,Objects\384a.jpg,153,0,154,,,,,,,f,1.160925900010625,0.16798080000444315,None,,,,,,154,0,153,663.9638077999989,,,,,,,,,,,,,,,,,,,,,,,663.9470140000049,663.9638077999989,664.4486841000034,,,,,,,,,,,,,,,,,,,,,,,,664.4655333000119,664.4820300999854,664.4820300999854,664.4820300999854,667.4592648000107,shoe,f,1.160925900010625,0.16798080000444315,667.4593101000064,667.459321900009,None,,,,,,,,,,,,,,00036,001,2026-01-16_22h07.58.999,MST_task,2024.2.0,59.77272020724095,2026-01-16 22h08.17.849575 +0530,
,Objects\231a.jpg,154,0,155,,,,,,,j,1.6414695999992546,0.11917890000040643,None,,,,,,155,0,154,667.4758846999903,,,,,,,,,,,,,,,,,,,,,,,667.4593927999958,667.4758846999903,667.9612722999882,,,,,,,,,,,,,,,,,,,,,,,,667.9773499000003,667.9942026000062,667.9942026000062,667.9942026000062,670.9713590999891,indoor,j,1.6414695999992546,0.11917890000040643,670.9732902999967,670.9733070000075,None,,,,,,,,,,,,,,00036,001,2026-01-16_22h07.58.999,MST_task,2024.2.0,59.77272020724095,2026-01-16 22h08.17.849575 +0530,
,Objects\200a.jpg,155,0,156,,,,,,,f,2.881013299978804,None,None,,,,,,156,0,155,670.9882826000103,,,,,,,,,,,,,,,,,,,,,,,670.9733780999959,670.9882826000103,671.473496599996,,,,,,,,,,,,,,,,671.5067504000035,,,,,,,,671.4867490000033,671.5067504000035,671.5067504000035,671.5067504000035,674.4837625999935,indoor,f,2.881013299978804,None,674.4838040999894,674.4838175000041,None,,,,,,,,,,,,,,00036,001,2026-01-16_22h07.58.999,MST_task,2024.2.0,59.77272020724095,2026-01-16 22h08.17.849575 +0530,
,Objects\247a.jpg,156,0,157,,,,,,,j,1.6557747999904677,0.11996969999745488,None,,,,,,157,0,156,674.5003652999876,,,,,,,,,,,,,,,,,,,,,,,674.4838836999843,674.5003652999876,674.9855909000034,,,,,,,,,,,,,,,,,,,,,,,,675.0001776999852,675.0188113999902,675.0188113999902,675.0188113999902,677.9959600000002,indoor,j,1.6557747999904677,0.11996969999745488,677.996002800006,677.9960147000093,None,,,,,,,,,,,,,,00036,001,2026-01-16_22h07.58.999,MST_task,2024.2.0,59.77272020724095,2026-01-16 22h08.17.849575 +0530,
,Objects\254a.jpg,157,0,158,,,,,,,j,1.4709254000044893,0.13675239999429323,None,,,,,,158,0,157,678.0129106999957,,,,,,,,,,,,,,,,,,,,,,,677.9960971999972,678.0129106999957,678.4979468999954,,,,,,,,,,,,,,,,,,,,,,,,678.5128078999987,678.5312963000033,678.5312963000033,678.5312963000033,681.5084027000121,indoor,j,1.4709254000044893,0.13675239999429323,681.5084450999857,681.5084568999882,None,,,,,,,,,,,,,,00036,001,2026-01-16_22h07.58.999,MST_task,2024.2.0,59.77272020724095,2026-01-16 22h08.17.849575 +0530,
,Objects\001a.jpg,158,0,159,,,,,,,f,1.1678303000226151,0.15946009999606758,None,,,,,,159,0,158,681.524963200005,,,,,,,,,,,,,,,,,,,,,,,681.5085255999875,681.524963200005,682.0101812999928,,,,,,,,,,,,,,,,,,,,,,,,682.0248573999852,682.0434120999998,682.0434120999998,682.0434120999998,685.0206868000096,indoor,f,1.1678303000226151,0.15946009999606758,685.0207393000019,685.0207707000081,None,,,,,,,,,,,,,,00036,001,2026-01-16_22h07.58.999,MST_task,2024.2.0,59.77272020724095,2026-01-16 22h08.17.849575 +0530,
,Objects\344a.jpg,159,0,160,,,,,,,f,1.3358443999895826,0.12755299999844283,None,,,,,,160,0,159,685.0372588000027,,,,,,,,,,,,,,,,,,,,,,,685.0208517999854,685.0372588000027,685.5224597000051,,,,,,,,,,,,,,,,,,,,,,,,685.5376864999998,685.5559772000124,685.5559772000124,685.5559772000124,688.5331066999934,indoor,f,1.3358443999895826,0.12755299999844283,688.5331627000123,688.5331745999865,None,,,,,,,,,,,,,,00036,001,2026-01-16_22h07.58.999,MST_task,2024.2.0,59.77272020724095,2026-01-16 22h08.17.849575 +0530,
,Objects\239a.jpg,160,0,161,,,,,,,f,1.062919200019678,0.15961439997772686,None,,,,,,161,0,160,688.5498747999955,,,,,,,,,,,,,,,,,,,,,,,688.5332459000056,688.5498747999955,689.0348182999878,,,,,,,,,,,,,,,,,,,,,,,,689.0507859000063,689.0682880000095,689.0682880000095,689.0682880000095,692.0454334999959,indoor,f,1.062919200019678,0.15961439997772686,692.0454902999918,692.0455138999969,None,,,,,,,,,,,,,,00036,001,2026-01-16_22h07.58.999,MST_task,2024.2.0,59.77272020724095,2026-01-16 22h08.17.849575 +0530,
,Objects\305a.jpg,161,0,162,,,,,,,j,2.5659452000109013,0.12869359998148866,None,,,,,,162,0,161,692.062703100004,,,,,,,,,,,,,,,,,,,,,,,692.045588500012,692.062703100004,692.5472345000017,,,,,,,,,,,,,,,,,,,,,,,,692.5633522999997,692.5803154000023,692.5803154000023,692.5803154000023,695.5575850000023,shoe,j,2.5659452000109013,0.12869359998148866,695.5595385000051,695.5595563999959,None,,,,,,,,,,,,,,00036,001,2026-01-16_22h07.58.999,MST_task,2024.2.0,59.77272020724095,2026-01-16 22h08.17.849575 +0530,
,Objects\357a.jpg,162,0,163,,,,,,,f,2.0132300999830477,0.21686360001331195,None,,,,,,163,0,162,695.5742816999846,,,,,,,,,,,,,,,,,,,,,,,695.5596266000066,695.5742816999846,696.0597545999917,,,,,,,,,,,,,,,,696.0928678000055,,,,,,,,696.0690724999877,696.0928678000055,696.0928678000055,696.0928678000055,699.0698574999988,shoe,f,2.0132300999830477,0.21686360001331195,699.0699139999924,699.0699267000018,None,,,,,,,,,,,,,,00036,001,2026-01-16_22h07.58.999,MST_task,2024.2.0,59.77272020724095,2026-01-16 22h08.17.849575 +0530,
,Objects\327a.jpg,163,0,164,,,,,,,j,1.1897830999805592,0.15207650000229478,None,,,,,,164,0,163,699.0865654000081,,,,,,,,,,,,,,,,,,,,,,,699.0699960000056,699.0865654000081,699.571706799994,,,,,,,,,,,,,,,,,,,,,,,,699.5885158999881,699.6050234999857,699.6050234999857,699.6050234999857,702.5823286999948,shoe,j,1.1897830999805592,0.15207650000229478,702.5823872000037,702.5823989000055,None,,,,,,,,,,,,,,00036,001,2026-01-16_22h07.58.999,MST_task,2024.2.0,59.77272020724095,2026-01-16 22h08.17.849575 +0530,
,Objects\120a.jpg,164,0,165,,,,,,,f,1.0459560999879614,0.15148230001796037,None,,,,,,165,0,164,702.5987784999888,,,,,,,,,,,,,,,,,,,,,,,702.5824684000108,702.5987784999888,703.0839603999921,,,,,,,,,,,,,,,,,,,,,,,,703.0985088000016,703.1171959000058,703.1171959000058,703.1171959000058,706.0944637999928,shoe,f,1.0459560999879614,0.15148230001796037,706.0946618999878,706.0946739999927,None,,,,,,,,,,,,,,00036,001,2026-01-16_22h07.58.999,MST_task,2024.2.0,59.77272020724095,2026-01-16 22h08.17.849575 +0530,
,Objects\136a.jpg,165,0,166,,,,,,,f,0.8534304999921005,0.17620000001625158,None,,,,,,166,0,165,706.1112173000001,,,,,,,,,,,,,,,,,,,,,,,706.0947404000035,706.1112173000001,706.596415100008,,,,,,,,,,,,,,,,,,,,,,,,706.6059788999846,706.6295014999923,706.6295014999923,706.6295014999923,709.6066524999915,shoe,f,0.8534304999921005,0.17620000001625158,709.6067073000013,709.6067198000092,None,,,,,,,,,,,,,,00036,001,2026-01-16_22h07.58.999,MST_task,2024.2.0,59.77272020724095,2026-01-16 22h08.17.849575 +0530,
,Objects\146a.jpg,166,0,167,,,,,,,f,1.8206891000154428,0.2483615999808535,None,,,,,,167,0,166,709.6234824999992,,,,,,,,,,,,,,,,,,,,,,,709.6071144999878,709.6234824999992,710.1084476000105,,,,,,,,,,,,,,,,,,,,,,,,710.1178598999977,710.1420450999867,710.1420450999867,710.1420450999867,713.1193483000097,shoe,f,1.8206891000154428,0.2483615999808535,713.1194020000112,713.1194160000014,None,,,,,,,,,,,,,,00036,001,2026-01-16_22h07.58.999,MST_task,2024.2.0,59.77272020724095,2026-01-16 22h08.17.849575 +0530,
,Objects\302a.jpg,167,0,168,,,,,,,f,0.9486362999887206,0.16803359999903478,None,,,,,,168,0,167,713.135801299999,,,,,,,,,,,,,,,,,,,,,,,713.1194961000001,713.135801299999,713.6213728000002,,,,,,,,,,,,,,,,,,,,,,,,713.6356828999997,713.6542553000036,713.6542553000036,713.6542553000036,716.6313916000072,shoe,f,0.9486362999887206,0.16803359999903478,716.6314346999861,716.6314466999902,None,,,,,,,,,,,,,,00036,001,2026-01-16_22h07.58.999,MST_task,2024.2.0,59.77272020724095,2026-01-16 22h08.17.849575 +0530,
,Objects\044a.jpg,168,0,169,,,,,,,None,,,f,0.05067810000036843,None,,,,169,0,168,716.648237299989,,,,,,,,,,,,,,,,,,,,,,,716.6315148999856,716.648237299989,717.1331732000108,,,,,,,,,,,,,,,,,,,,,,,,717.1501588000101,717.1663974999974,717.1663974999974,717.1663974999974,720.1435568000015,indoor,None,,,720.1449064000044,720.2277249000035,f,720.160374900006,720.160374900006,0.05067810000036843,None,,,,,,,,,,00036,001,2026-01-16_22h07.58.999,MST_task,2024.2.0,59.77272020724095,2026-01-16 22h08.17.849575 +0530,
,Objects\354a.jpg,169,0,170,,,,,,,j,1.577054700028384,0.10262259998125955,None,,,,,,170,0,169,720.2438816000067,,,,,,,,,,,,,,,,,,,,,,,720.2278448999859,720.2438816000067,720.7290968000016,,,,,,,,,,,,,,,,,,,,,,,,720.7428159000119,720.7624578000105,720.7624578000105,720.7624578000105,723.7396579000051,indoor,j,1.577054700028384,0.10262259998125955,723.7397329999949,723.7397563999984,None,,,,,,,,,,,,,,00036,001,2026-01-16_22h07.58.999,MST_task,2024.2.0,59.77272020724095,2026-01-16 22h08.17.849575 +0530,
,Objects\219a.jpg,170,0,171,,,,,,,j,2.4966394000221044,0.11898909998126328,None,,,,,,171,0,170,723.7564245999965,,,,,,,,,,,,,,,,,,,,,,,723.7398778999923,723.7564245999965,724.2412624999997,,,,,,,,,,,,,,,,,,,,,,,,724.2564730999875,724.2747325999953,724.2747325999953,724.2747325999953,727.2518872999935,indoor,j,2.4966394000221044,0.11898909998126328,727.2519290999917,727.2519406999927,None,,,,,,,,,,,,,,00036,001,2026-01-16_22h07.58.999,MST_task,2024.2.0,59.77272020724095,2026-01-16 22h08.17.849575 +0530,
,Objects\269a.jpg,171,0,172,,,,,,,f,2.0791398999863304,0.26410800000303425,None,,,,,,172,0,171,727.2686011999904,,,,,,,,,,,,,,,,,,,,,,,727.2520111000049,727.2686011999904,727.753696300002,,,,,,,,,,,,,,,,,,,,,,,,727.7680728000123,727.7869174999942,727.7869174999942,727.7869174999942,730.7640582000022,indoor,f,2.0791398999863304,0.26410800000303425,730.7640998999996,730.7641113999998,None,,,,,,,,,,,,,,00036,001,2026-01-16_22h07.58.999,MST_task,2024.2.0,59.77272020724095,2026-01-16 22h08.17.849575 +0530,
,Objects\366a.jpg,172,0,173,,,,,,,j,1.3112522000155877,0.11197699999320321,None,,,,,,173,0,172,730.7808873000031,,,,,,,,,,,,,,,,,,,,,,,730.7641812000074,730.7808873000031,731.2662423999864,,,,,,,,,,,,,,,,,,,,,,,,731.2823577999952,731.2993419000122,731.2993419000122,731.2993419000122,734.2764595999906,indoor,j,1.3112522000155877,0.11197699999320321,734.2765000000072,734.2765115000075,None,,,,,,,,,,,,,,00036,001,2026-01-16_22h07.58.999,MST_task,2024.2.0,59.77272020724095,2026-01-16 22h08.17.849575 +0530,
,Objects\238a.jpg,173,0,174,,,,,,,f,2.319013600004837,0.16775130000314675,None,,,,,,174,0,173,734.2930698999844,,,,,,,,,,,,,,,,,,,,,,,734.2765787999961,734.2930698999844,734.7782093000133,,,,,,,,,,,,,,,,,,,,,,,,734.7935580000049,734.8116322999995,734.8116322999995,734.8116322999995,737.7889068000077,indoor,f,2.319013600004837,0.16775130000314675,737.7889500999881,737.7889677000057,None,,,,,,,,,,,,,,00036,001,2026-01-16_22h07.58.999,MST_task,2024.2.0,59.77272020724095,2026-01-16 22h08.17.849575 +0530,
,Objects\363a.jpg,174,0,175,,,,,,,f,1.5586502999940421,0.19149830000242218,None,,,,,,175,0,174,737.8053844000096,,,,,,,,,,,,,,,,,,,,,,,737.7890373000118,737.8053844000096,738.2905845000059,,,,,,,,,,,,,,,,,,,,,,,,738.3072170999949,738.3239422999904,738.3239422999904,738.3239422999904,741.301117199997,indoor,f,1.5586502999940421,0.19149830000242218,741.3011728999845,741.3011846999871,None,,,,,,,,,,,,,,00036,001,2026-01-16_22h07.58.999,MST_task,2024.2.0,59.77272020724095,2026-01-16 22h08.17.849575 +0530,
,Objects\232a.jpg,175,0,176,,,,,,,f,2.3262541000149213,0.15202509998925962,None,,,,,,176,0,175,741.3179844999977,,,,,,,,,,,,,,,,,,,,,,,741.3012570999854,741.3179844999977,741.8030332000053,,,,,,,,,,,,,,,,,,,,,,,,741.8189434999949,741.8362231999927,741.8362231999927,741.8362231999927,744.8135014,shoe,f,2.3262541000149213,0.15202509998925962,744.8150542000076,744.8150736000098,None,,,,,,,,,,,,,,00036,001,2026-01-16_22h07.58.999,MST_task,2024.2.0,59.77272020724095,2026-01-16 22h08.17.849575 +0530,
,Objects\114a.jpg,176,0,177,,,,,,,f,0.7584320000023581,0.14387979998718947,None,,,,,,177,0,176,744.829965699988,,,,,,,,,,,,,,,,,,,,,,,744.815145200002,744.829965699988,745.3153121999931,,,,,,,,,,,,,,,,,,,,,,,,745.3324855999963,745.3484148999851,745.3484148999851,745.3484148999851,748.3255783999921,shoe,f,0.7584320000023581,0.14387979998718947,748.325620299991,748.3256323999958,None,,,,,,,,,,,,,,00036,001,2026-01-16_22h07.58.999,MST_task,2024.2.0,59.77272020724095,2026-01-16 22h08.17.849575 +0530,
,Objects\040a.jpg,177,0,178,,,,,,,f,0.6295346000115387,0.16793470000266097,None,,,,,,178,0,177,748.3423890999984,,,,,,,,,,,,,,,,,,,,,,,748.3258562000119,748.3423890999984,748.8276565000124,,,,,,,,,,,,,,,,,,,,,,,,748.839481300005,748.8612660999934,748.8612660999934,748.8612660999934,751.8378706999938,shoe,f,0.6295346000115387,0.16793470000266097,751.8379130999965,751.8379245999968,None,,,,,,,,,,,,,,00036,001,2026-01-16_22h07.58.999,MST_task,2024.2.0,59.77272020724095,2026-01-16 22h08.17.849575 +0530,
,Objects\248a.jpg,178,0,179,,,,,,,f,0.7897183000168297,0.16987739998148754,None,,,,,,179,0,178,751.8551913000119,,,,,,,,,,,,,,,,,,,,,,,751.83800660001,751.8551913000119,752.339650400012,,,,,,,,,,,,,,,,,,,,,,,,752.3571956999949,752.3731652999995,752.3731652999995,752.3731652999995,755.3504189999949,shoe,f,0.7897183000168297,0.16987739998148754,755.3504621000029,755.350474100007,None,,,,,,,,,,,,,,00036,001,2026-01-16_22h07.58.999,MST_task,2024.2.0,59.77272020724095,2026-01-16 22h08.17.849575 +0530,
,Objects\353a.jpg,179,0,180,,,,,,,f,0.8772826000058558,0.19150990000343882,None,,,,,,180,0,179,755.3668676000088,,,,,,,,,,,,,,,,,,,,,,,755.3505472000106,755.3668676000088,755.852132400003,,,,,,,,,,,,,,,,,,,,,,,,755.8653439999907,755.8853062999842,755.8853062999842,755.8853062999842,758.8624560000026,shoe,f,0.8772826000058558,0.19150990000343882,758.8625453000132,758.8625602000102,None,,,,,,,,,,,,,,00036,001,2026-01-16_22h07.58.999,MST_task,2024.2.0,59.77272020724095,2026-01-16 22h08.17.849575 +0530,
,Objects\287a.jpg,180,0,181,,,,,,,j,1.6682149000116624,0.15254559999448247,None,,,,,,181,0,180,758.8792874999926,,,,,,,,,,,,,,,,,,,,,,,758.8626331000123,758.8792874999926,759.3642626999936,,,,,,,,,,,,,,,,,,,,,,,,759.3788643000007,759.3978458000056,759.3978458000056,759.3978458000056,762.3748816000007,shoe,j,1.6682149000116624,0.15254559999448247,762.3749508000037,762.3749636999855,None,,,,,,,,,,,,,,00036,001,2026-01-16_22h07.58.999,MST_task,2024.2.0,59.77272020724095,2026-01-16 22h08.17.849575 +0530,
