thisN,thisTrialN,thisRepN,key_resp_3.keys,key_resp_3.rt,key_resp_3.duration,trials.thisRepN,trials.thisTrialN,trials.thisN,thisRow.t,notes,intro_page.started,text.started,key_resp.started,intro_page.stopped,key_resp.keys,key_resp.rt,key_resp.duration,instructions.started,text_2.started,key_resp_2.started,instructions.stopped,key_resp_2.keys,key_resp_2.rt,key_resp_2.duration,demo1.started,image_1.started,image_2.started,text_7.started,key_resp_6.started,text_9.started,demo1.stopped,key_resp_6.keys,key_resp_6.rt,key_resp_6.duration,demo3.started,image_5.started,image_6.started,text_11.started,text_12.started,key_resp_8.started,demo3.stopped,key_resp_8.keys,key_resp_8.rt,key_resp_8.duration,demo_conclusion.started,text_13.started,key_resp_9.started,demo_conclusion.stopped,key_resp_9.keys,key_resp_9.rt,key_resp_9.duration,start_test.started,text_6.started,key_resp_5.started,start_test.stopped,key_resp_5.keys,key_resp_5.rt,key_resp_5.duration,ISI.started,text_4.started,text_4.stopped,ISI.stopped,routine_1.started,image.started,text_3.started,key_resp_3.started,routine_1.stopped,image_path,position_of_stimuli,trials.key_resp_3.keys,trials.key_resp_3.rt,trials.key_resp_3.duration,End_page.started,text_5.started,key_resp_4.started,participant,session,date,expName,psychopyVersion,frameRate,expStart,
,,,,,,,,,,,0.0011975000088568777,0.0026425999822095037,0.0026425999822095037,2.4788652999850456,space,2.4290484999946784,None,,,,,,,,,,,,,,,,,,,,,,,,,,,,,,,,,,,,,,,,,,,,,,,,,,,,,,,,,,,00035,001,2026-01-16_15h26.14.383,MST_test,2024.2.0,59.93931744047256,2026-01-16 15h26.26.580208 +0530,
,,,,,,,,,,,,,,,,,,2.478923599992413,2.4911837999825366,2.4911837999825366,30.39891940000234,space,27.892785100004403,None,,,,,,,,,,,,,,,,,,,,,,,,,,,,,,,,,,,,,,,,,,,,,,,,,,,,00035,001,2026-01-16_15h26.14.383,MST_test,2024.2.0,59.93931744047256,2026-01-16 15h26.26.580208 +0530,
,,,,,,,,,,,,,,,,,,,,,,,,,30.398944099986693,30.415673499985132,30.415673499985132,30.415673499985132,30.415673499985132,30.415673499985132,36.43264359998284,space,6.015644700004486,None,,,,,,,,,,,,,,,,,,,,,,,,,,,,,,,,,,,,,,,,,,00035,001,2026-01-16_15h26.14.383,MST_test,2024.2.0,59.93931744047256,2026-01-16 15h26.26.580208 +0530,
,,,,,,,,,,,,,,,,,,,,,,,,,,,,,,,,,,,36.43267310000374,36.44872369998484,36.44872369998484,36.44872369998484,36.44872369998484,36.44872369998484,53.99952929999563,space,17.549878699996043,None,,,,,,,,,,,,,,,,,,,,,,,,,,,,,,,,00035,001,2026-01-16_15h26.14.383,MST_test,2024.2.0,59.93931744047256,2026-01-16 15h26.26.580208 +0530,
,,,,,,,,,,,,,,,,,,,,,,,,,,,,,,,,,,,,,,,,,,,,,53.999556399998255,54.01523799999268,54.01523799999268,84.64897629999905,space,30.63249519999954,None,,,,,,,,,,,,,,,,,,,,,,,,,00035,001,2026-01-16_15h26.14.383,MST_test,2024.2.0,59.93931744047256,2026-01-16 15h26.26.580208 +0530,
,,,,,,,,,,,,,,,,,,,,,,,,,,,,,,,,,,,,,,,,,,,,,,,,,,,,84.64900820000912,84.67120089998934,84.67120089998934,92.26565600000322,space,7.583523700013757,None,,,,,,,,,,,,,,,,,,00035,001,2026-01-16_15h26.14.383,MST_test,2024.2.0,59.93931744047256,2026-01-16 15h26.26.580208 +0530,
0,0,1,o,8.3341245999909,None,1,0,0,92.28183980000904,,,,,,,,,,,,,,,,,,,,,,,,,,,,,,,,,,,,,,,,,,,,,,,,,,92.26943439999013,92.28183980000904,92.78506239998387,92.76545859998441,92.7830219999887,92.78506239998387,92.78506239998387,92.78506239998387,101.13244300000952,Objects\009b.jpg,mid,o,8.3341245999909,None,,,,00035,001,2026-01-16_15h26.14.383,MST_test,2024.2.0,59.93931744047256,2026-01-16 15h26.26.580208 +0530,
1,0,2,n,6.503110499994364,None,2,0,1,101.14839550000033,,,,,,,,,,,,,,,,,,,,,,,,,,,,,,,,,,,,,,,,,,,,,,,,,,101.13253269999404,101.14839550000033,101.64883069999632,101.63214840000728,101.64125839999178,101.64883069999632,101.64883069999632,101.64883069999632,108.16583569999784,Objects\175a.jpg,mid,n,6.503110499994364,None,,,,00035,001,2026-01-16_15h26.14.383,MST_test,2024.2.0,59.93931744047256,2026-01-16 15h26.26.580208 +0530,
2,0,3,s,4.276918899995508,None,3,0,2,108.18196270000772,,,,,,,,,,,,,,,,,,,,,,,,,,,,,,,,,,,,,,,,,,,,,,,,,,108.16592589998618,108.18196270000772,108.6821912000014,108.6654784999846,108.67631879998953,108.6821912000014,108.6821912000014,108.6821912000014,112.96594309998909,Objects\161a.jpg,post,s,4.276918899995508,None,,,,00035,001,2026-01-16_15h26.14.383,MST_test,2024.2.0,59.93931744047256,2026-01-16 15h26.26.580208 +0530,
3,0,4,o,1.9086813000030816,None,4,0,3,112.98197590000927,,,,,,,,,,,,,,,,,,,,,,,,,,,,,,,,,,,,,,,,,,,,,,,,,,112.96610829999554,112.98197590000927,113.48212299999432,113.46548889999394,113.47476250000182,113.48212299999432,113.48212299999432,113.48212299999432,115.39925369998673,Objects\179a.jpg,post,o,1.9086813000030816,None,,,,00035,001,2026-01-16_15h26.14.383,MST_test,2024.2.0,59.93931744047256,2026-01-16 15h26.26.580208 +0530,
4,0,5,s,2.3870634000049904,None,5,0,4,115.41528119999566,,,,,,,,,,,,,,,,,,,,,,,,,,,,,,,,,,,,,,,,,,,,,,,,,,115.39934350000112,115.41528119999566,115.9156132999924,115.8990198999818,115.90842629998224,115.9156132999924,115.9156132999924,115.9156132999924,118.31589110000641,Objects\379b.jpg,pre,s,2.3870634000049904,None,,,,00035,001,2026-01-16_15h26.14.383,MST_test,2024.2.0,59.93931744047256,2026-01-16 15h26.26.580208 +0530,
5,0,6,n,1.9910323000221979,None,6,0,5,118.33189589998801,,,,,,,,,,,,,,,,,,,,,,,,,,,,,,,,,,,,,,,,,,,,,,,,,,118.31597940000938,118.33189589998801,118.83226930000819,118.81558259998565,118.82477559999097,118.83226930000819,118.83226930000819,118.83226930000819,120.83258869999554,Foils\009a.jpg,none,n,1.9910323000221979,None,,,,00035,001,2026-01-16_15h26.14.383,MST_test,2024.2.0,59.93931744047256,2026-01-16 15h26.26.580208 +0530,
6,0,7,n,1.633902700006729,None,7,0,6,120.84866669998155,,,,,,,,,,,,,,,,,,,,,,,,,,,,,,,,,,,,,,,,,,,,,,,,,,120.83267879998311,120.84866669998155,121.34902100000181,121.33224980000523,121.34137569999439,121.34902100000181,121.34902100000181,121.34902100000181,122.99925940000685,Foils\f5.jpg,none,n,1.633902700006729,None,,,,00035,001,2026-01-16_15h26.14.383,MST_test,2024.2.0,59.93931744047256,2026-01-16 15h26.26.580208 +0530,
7,0,8,s,3.8909820999833755,None,8,0,7,123.01536530000158,,,,,,,,,,,,,,,,,,,,,,,,,,,,,,,,,,,,,,,,,,,,,,,,,,122.99934999999823,123.01536530000158,123.51564969998435,123.49880770000163,123.50837329999194,123.51564969998435,123.51564969998435,123.51564969998435,127.41584390000207,Foils\050a.jpg,none,s,3.8909820999833755,None,,,,00035,001,2026-01-16_15h26.14.383,MST_test,2024.2.0,59.93931744047256,2026-01-16 15h26.26.580208 +0530,
8,0,9,s,3.491202799981693,None,9,0,8,127.43195830000332,,,,,,,,,,,,,,,,,,,,,,,,,,,,,,,,,,,,,,,,,,,,,,,,,,127.415931800002,127.43195830000332,127.93218259999412,127.91549220000161,127.92498159999377,127.93218259999412,127.93218259999412,127.93218259999412,131.43253499999992,Objects\369a.jpg,pre,s,3.491202799981693,None,,,,00035,001,2026-01-16_15h26.14.383,MST_test,2024.2.0,59.93931744047256,2026-01-16 15h26.26.580208 +0530,
9,0,10,s,1.4181277999887243,None,10,0,9,131.44853530000546,,,,,,,,,,,,,,,,,,,,,,,,,,,,,,,,,,,,,,,,,,,,,,,,,,131.4326221999945,131.44853530000546,131.94878169998992,131.93225320000784,131.9422990999883,131.94878169998992,131.94878169998992,131.94878169998992,133.38243539998075,Objects\041b.jpg,post,s,1.4181277999887243,None,,,,00035,001,2026-01-16_15h26.14.383,MST_test,2024.2.0,59.93931744047256,2026-01-16 15h26.26.580208 +0530,
10,0,11,s,1.4922203999885824,None,11,0,10,133.39863789998344,,,,,,,,,,,,,,,,,,,,,,,,,,,,,,,,,,,,,,,,,,,,,,,,,,133.382523999986,133.39863789998344,133.89912590000313,133.88219509998453,133.89205880000372,133.89912590000313,133.89912590000313,133.89912590000313,135.39905239999644,Objects\292b.jpg,pre,s,1.4922203999885824,None,,,,00035,001,2026-01-16_15h26.14.383,MST_test,2024.2.0,59.93931744047256,2026-01-16 15h26.26.580208 +0530,
11,0,12,o,7.5229097999981605,None,12,0,11,135.41523409998626,,,,,,,,,,,,,,,,,,,,,,,,,,,,,,,,,,,,,,,,,,,,,,,,,,135.39914609998232,135.41523409998626,135.91568929998903,135.89876549999462,135.9100216999941,135.91568929998903,135.91568929998903,135.91568929998903,143.44920080000884,Objects\096b.jpg,pre,o,7.5229097999981605,None,,,,00035,001,2026-01-16_15h26.14.383,MST_test,2024.2.0,59.93931744047256,2026-01-16 15h26.26.580208 +0530,
12,0,13,o,1.9857516999763902,None,13,0,12,143.4651761999994,,,,,,,,,,,,,,,,,,,,,,,,,,,,,,,,,,,,,,,,,,,,,,,,,,143.44929580000462,143.4651761999994,143.96551549999276,143.94880179999745,143.95802520000143,143.96551549999276,143.96551549999276,143.96551549999276,145.96577219999745,Objects\241a.jpg,pre,o,1.9857516999763902,None,,,,00035,001,2026-01-16_15h26.14.383,MST_test,2024.2.0,59.93931744047256,2026-01-16 15h26.26.580208 +0530,
13,0,14,s,1.8126593999913894,None,14,0,13,145.9819787000015,,,,,,,,,,,,,,,,,,,,,,,,,,,,,,,,,,,,,,,,,,,,,,,,,,145.96586100000422,145.9819787000015,146.48238440000569,146.46550459999708,146.47514999998384,146.48238440000569,146.48238440000569,146.48238440000569,148.29927799999132,Objects\359a.jpg,pre,s,1.8126593999913894,None,,,,00035,001,2026-01-16_15h26.14.383,MST_test,2024.2.0,59.93931744047256,2026-01-16 15h26.26.580208 +0530,
14,0,15,s,1.8398275000217836,None,15,0,14,148.31523740000557,,,,,,,,,,,,,,,,,,,,,,,,,,,,,,,,,,,,,,,,,,,,,,,,,,148.2993667999981,148.31523740000557,148.81571500000427,148.79888419999043,148.8087864999834,148.81571500000427,148.81571500000427,148.81571500000427,150.66583119999268,Objects\328a.jpg,mid,s,1.8398275000217836,None,,,,00035,001,2026-01-16_15h26.14.383,MST_test,2024.2.0,59.93931744047256,2026-01-16 15h26.26.580208 +0530,
15,0,16,n,2.5606082000012975,None,16,0,15,150.68201879999833,,,,,,,,,,,,,,,,,,,,,,,,,,,,,,,,,,,,,,,,,,,,,,,,,,150.6659209000063,150.68201879999833,151.18223020000733,151.16560989999562,151.1756519000046,151.18223020000733,151.18223020000733,151.18223020000733,153.7493506000028,Objects\277b.jpg,pre,n,2.5606082000012975,None,,,,00035,001,2026-01-16_15h26.14.383,MST_test,2024.2.0,59.93931744047256,2026-01-16 15h26.26.580208 +0530,
16,0,17,n,1.148908000002848,None,17,0,16,153.76532579999184,,,,,,,,,,,,,,,,,,,,,,,,,,,,,,,,,,,,,,,,,,,,,,,,,,153.74944119999418,153.76532579999184,154.2656968999945,154.24877169998945,154.25797169998987,154.2656968999945,154.2656968999945,154.2656968999945,155.41580200000317,Foils\026a.jpg,none,n,1.148908000002848,None,,,,00035,001,2026-01-16_15h26.14.383,MST_test,2024.2.0,59.93931744047256,2026-01-16 15h26.26.580208 +0530,
17,0,18,n,1.4746572999865748,None,18,0,17,155.43190179998055,,,,,,,,,,,,,,,,,,,,,,,,,,,,,,,,,,,,,,,,,,,,,,,,,,155.41589319999912,155.43190179998055,155.932080700004,155.91554839999299,155.92452110000886,155.932080700004,155.932080700004,155.932080700004,157.4158516000025,Objects\031a.jpg,pre,n,1.4746572999865748,None,,,,00035,001,2026-01-16_15h26.14.383,MST_test,2024.2.0,59.93931744047256,2026-01-16 15h26.26.580208 +0530,
18,0,19,s,1.363106999982847,None,19,0,18,157.43186149999383,,,,,,,,,,,,,,,,,,,,,,,,,,,,,,,,,,,,,,,,,,,,,,,,,,157.41594569999143,157.43186149999383,157.93211599998176,157.91561729999376,157.9251341999916,157.93211599998176,157.93211599998176,157.93211599998176,159.2990901999874,Objects\013b.jpg,post,s,1.363106999982847,None,,,,00035,001,2026-01-16_15h26.14.383,MST_test,2024.2.0,59.93931744047256,2026-01-16 15h26.26.580208 +0530,
19,0,20,s,1.8074789999809582,None,20,0,19,159.31523609999567,,,,,,,,,,,,,,,,,,,,,,,,,,,,,,,,,,,,,,,,,,,,,,,,,,159.29918939998606,159.31523609999567,159.8155063999875,159.79880269998102,159.80777549999766,159.8155063999875,159.8155063999875,159.8155063999875,161.63247599999886,Objects\305a.jpg,pre,s,1.8074789999809582,None,,,,00035,001,2026-01-16_15h26.14.383,MST_test,2024.2.0,59.93931744047256,2026-01-16 15h26.26.580208 +0530,
20,0,21,s,8.521911299991189,None,21,0,20,161.64842139999382,,,,,,,,,,,,,,,,,,,,,,,,,,,,,,,,,,,,,,,,,,,,,,,,,,161.63257349998457,161.64842139999382,162.14888110000174,162.13220570000703,162.14141300000483,162.14888110000174,162.14888110000174,162.14888110000174,170.68239629999152,Objects\157b.jpg,pre,s,8.521911299991189,None,,,,00035,001,2026-01-16_15h26.14.383,MST_test,2024.2.0,59.93931744047256,2026-01-16 15h26.26.580208 +0530,
21,0,22,o,1.5600040999997873,None,22,0,21,170.6984819000063,,,,,,,,,,,,,,,,,,,,,,,,,,,,,,,,,,,,,,,,,,,,,,,,,,170.68248600000516,170.6984819000063,171.19873329999973,171.18216140000732,171.19401129998732,171.19873329999973,171.19873329999973,171.19873329999973,172.7668854999938,Objects\366a.jpg,mid,o,1.5600040999997873,None,,,,00035,001,2026-01-16_15h26.14.383,MST_test,2024.2.0,59.93931744047256,2026-01-16 15h26.26.580208 +0530,
22,0,23,s,1.7011955000052694,None,23,0,22,172.78181009998661,,,,,,,,,,,,,,,,,,,,,,,,,,,,,,,,,,,,,,,,,,,,,,,,,,172.76697359999525,172.78181009998661,173.28204769999138,173.26553040000726,173.27516639998066,173.28204769999138,173.28204769999138,173.28204769999138,174.99902089999523,Objects\153b.jpg,pre,s,1.7011955000052694,None,,,,00035,001,2026-01-16_15h26.14.383,MST_test,2024.2.0,59.93931744047256,2026-01-16 15h26.26.580208 +0530,
23,0,24,s,1.4126503000152297,None,24,0,23,175.0152451999893,,,,,,,,,,,,,,,,,,,,,,,,,,,,,,,,,,,,,,,,,,,,,,,,,,174.9991100000043,175.0152451999893,175.51542489998974,175.49891120000393,175.5091931000061,175.51542489998974,175.51542489998974,175.51542489998974,176.9324473000015,Objects\092b.jpg,mid,s,1.4126503000152297,None,,,,00035,001,2026-01-16_15h26.14.383,MST_test,2024.2.0,59.93931744047256,2026-01-16 15h26.26.580208 +0530,
24,0,25,o,2.3418084000004455,None,25,0,24,176.94848029999412,,,,,,,,,,,,,,,,,,,,,,,,,,,,,,,,,,,,,,,,,,,,,,,,,,176.93253600000753,176.94848029999412,177.44894390000263,177.43213749999995,177.44190439998056,177.44894390000263,177.44894390000263,177.44894390000263,179.79907660000026,Objects\290a.jpg,pre,o,2.3418084000004455,None,,,,00035,001,2026-01-16_15h26.14.383,MST_test,2024.2.0,59.93931744047256,2026-01-16 15h26.26.580208 +0530,
25,0,26,o,1.4037639999878593,None,26,0,25,179.81524809999974,,,,,,,,,,,,,,,,,,,,,,,,,,,,,,,,,,,,,,,,,,,,,,,,,,179.79916799999774,179.81524809999974,180.3156626999844,180.2988017000025,180.30849460000172,180.3156626999844,180.3156626999844,180.3156626999844,181.73246699999436,Objects\184b.jpg,pre,o,1.4037639999878593,None,,,,00035,001,2026-01-16_15h26.14.383,MST_test,2024.2.0,59.93931744047256,2026-01-16 15h26.26.580208 +0530,
26,0,27,o,13.550352100020973,None,27,0,26,181.7484152999823,,,,,,,,,,,,,,,,,,,,,,,,,,,,,,,,,,,,,,,,,,,,,,,,,,181.73255799998879,181.7484152999823,182.24856059998274,182.2321440000087,182.24135530000785,182.24856059998274,182.24856059998274,182.24856059998274,195.8156342000002,Objects\120a.jpg,mid,o,13.550352100020973,None,,,,00035,001,2026-01-16_15h26.14.383,MST_test,2024.2.0,59.93931744047256,2026-01-16 15h26.26.580208 +0530,
27,0,28,s,1.5946425000147428,None,28,0,27,195.83188809998683,,,,,,,,,,,,,,,,,,,,,,,,,,,,,,,,,,,,,,,,,,,,,,,,,,195.81572389998473,195.83188809998683,196.33211409999058,196.31546489999164,196.32488899998134,196.33211409999058,196.33211409999058,196.33211409999058,197.93239109998103,Foils\017a.jpg,none,s,1.5946425000147428,None,,,,00035,001,2026-01-16_15h26.14.383,MST_test,2024.2.0,59.93931744047256,2026-01-16 15h26.26.580208 +0530,
28,0,29,s,2.8383626000140794,None,29,0,28,197.94846909999615,,,,,,,,,,,,,,,,,,,,,,,,,,,,,,,,,,,,,,,,,,,,,,,,,,197.93248029999086,197.94846909999615,198.44865949999075,198.43218410000554,198.44132029998582,198.44865949999075,198.44865949999075,198.44865949999075,201.29906089999713,Objects\145a.jpg,post,s,2.8383626000140794,None,,,,00035,001,2026-01-16_15h26.14.383,MST_test,2024.2.0,59.93931744047256,2026-01-16 15h26.26.580208 +0530,
29,0,30,o,6.63189930000226,None,30,0,29,201.31522339998628,,,,,,,,,,,,,,,,,,,,,,,,,,,,,,,,,,,,,,,,,,,,,,,,,,201.29915320000146,201.31522339998628,201.81539129998419,201.79883389998577,201.80773999998928,201.81539129998419,201.81539129998419,201.81539129998419,208.4489515000023,Objects\121a.jpg,post,o,6.63189930000226,None,,,,00035,001,2026-01-16_15h26.14.383,MST_test,2024.2.0,59.93931744047256,2026-01-16 15h26.26.580208 +0530,
30,0,31,o,2.5302709999959916,None,31,0,30,208.4652209999913,,,,,,,,,,,,,,,,,,,,,,,,,,,,,,,,,,,,,,,,,,,,,,,,,,208.44904609999503,208.4652209999913,208.96543999999994,208.9486629999883,208.9579424999829,208.96543999999994,208.96543999999994,208.96543999999994,211.49898440000834,Objects\117a.jpg,pre,o,2.5302709999959916,None,,,,00035,001,2026-01-16_15h26.14.383,MST_test,2024.2.0,59.93931744047256,2026-01-16 15h26.26.580208 +0530,
31,0,32,o,1.0873525000060908,None,32,0,31,211.5151584999985,,,,,,,,,,,,,,,,,,,,,,,,,,,,,,,,,,,,,,,,,,,,,,,,,,211.4990797000064,211.5151584999985,212.015421899996,211.99891470000148,212.0082504999882,212.015421899996,212.015421899996,212.015421899996,213.11571290000575,Objects\075b.jpg,pre,o,1.0873525000060908,None,,,,00035,001,2026-01-16_15h26.14.383,MST_test,2024.2.0,59.93931744047256,2026-01-16 15h26.26.580208 +0530,
32,0,33,s,1.8231449000013527,None,33,0,32,213.13186059999862,,,,,,,,,,,,,,,,,,,,,,,,,,,,,,,,,,,,,,,,,,,,,,,,,,213.11580299999332,213.13186059999862,213.63215719998698,213.61553360000835,213.6242765999923,213.63215719998698,213.63215719998698,213.63215719998698,215.46574089999194,Objects\171a.jpg,post,s,1.8231449000013527,None,,,,00035,001,2026-01-16_15h26.14.383,MST_test,2024.2.0,59.93931744047256,2026-01-16 15h26.26.580208 +0530,
33,0,34,s,0.7604316999786533,None,34,0,33,215.4818942999991,,,,,,,,,,,,,,,,,,,,,,,,,,,,,,,,,,,,,,,,,,,,,,,,,,215.46582929999568,215.4818942999991,215.98234309998224,215.96559419998084,215.97704589998466,215.98234309998224,215.98234309998224,215.98234309998224,216.74914149998222,Objects\213b.jpg,mid,s,0.7604316999786533,None,,,,00035,001,2026-01-16_15h26.14.383,MST_test,2024.2.0,59.93931744047256,2026-01-16 15h26.26.580208 +0530,
34,0,35,s,3.7101432000054047,None,35,0,34,216.76523099999758,,,,,,,,,,,,,,,,,,,,,,,,,,,,,,,,,,,,,,,,,,,,,,,,,,216.74923139999737,216.76523099999758,217.26559279998764,217.24881550000282,217.25888300000224,217.26559279998764,217.26559279998764,217.26559279998764,220.98254019999877,Objects\174b.jpg,post,s,3.7101432000054047,None,,,,00035,001,2026-01-16_15h26.14.383,MST_test,2024.2.0,59.93931744047256,2026-01-16 15h26.26.580208 +0530,
35,0,36,n,2.2292105999949854,None,36,0,35,220.99842940000235,,,,,,,,,,,,,,,,,,,,,,,,,,,,,,,,,,,,,,,,,,,,,,,,,,220.98263310000766,220.99842940000235,221.49882479998632,221.4821532999922,221.49147049998282,221.49882479998632,221.49882479998632,221.49882479998632,223.73252520000096,Foils\073a.jpg,none,n,2.2292105999949854,None,,,,00035,001,2026-01-16_15h26.14.383,MST_test,2024.2.0,59.93931744047256,2026-01-16 15h26.26.580208 +0530,
36,0,37,o,4.742060599994147,None,37,0,36,223.74849609998637,,,,,,,,,,,,,,,,,,,,,,,,,,,,,,,,,,,,,,,,,,,,,,,,,,223.7326177000068,223.74849609998637,224.24933859999874,224.23229270000593,224.2453147000051,224.24933859999874,224.24933859999874,224.24933859999874,228.99933339998825,Objects\240b.jpg,pre,o,4.742060599994147,None,,,,00035,001,2026-01-16_15h26.14.383,MST_test,2024.2.0,59.93931744047256,2026-01-16 15h26.26.580208 +0530,
37,0,38,n,5.402952799980994,None,38,0,37,229.01532499998575,,,,,,,,,,,,,,,,,,,,,,,,,,,,,,,,,,,,,,,,,,,,,,,,,,228.99942269999883,229.01532499998575,229.5159205000091,229.49898000000394,229.51073029998224,229.5159205000091,229.5159205000091,229.5159205000091,234.93251739998232,Objects\118a.jpg,post,n,5.402952799980994,None,,,,00035,001,2026-01-16_15h26.14.383,MST_test,2024.2.0,59.93931744047256,2026-01-16 15h26.26.580208 +0530,
38,0,39,s,2.9179009000072256,None,39,0,38,234.94852679999894,,,,,,,,,,,,,,,,,,,,,,,,,,,,,,,,,,,,,,,,,,,,,,,,,,234.93261359998723,234.94852679999894,235.44878489998518,235.43226539998432,235.44167979998747,235.44878489998518,235.44878489998518,235.44878489998518,238.38255979999667,Foils\049a.jpg,none,s,2.9179009000072256,None,,,,00035,001,2026-01-16_15h26.14.383,MST_test,2024.2.0,59.93931744047256,2026-01-16 15h26.26.580208 +0530,
39,0,40,s,1.4281836999871302,None,40,0,39,238.39856949998648,,,,,,,,,,,,,,,,,,,,,,,,,,,,,,,,,,,,,,,,,,,,,,,,,,238.38264830000116,238.39856949998648,238.8989883000031,238.88229700000375,238.89230479998514,238.8989883000031,238.8989883000031,238.8989883000031,240.3326420999947,Objects\106b.jpg,pre,s,1.4281836999871302,None,,,,00035,001,2026-01-16_15h26.14.383,MST_test,2024.2.0,59.93931744047256,2026-01-16 15h26.26.580208 +0530,
40,0,41,n,2.9985296000086237,None,41,0,40,240.3485970000038,,,,,,,,,,,,,,,,,,,,,,,,,,,,,,,,,,,,,,,,,,,,,,,,,,240.3327367999882,240.3485970000038,240.8488243999891,240.8322107999993,240.84127639999497,240.8488243999891,240.8488243999891,240.8488243999891,243.84911619999912,Objects\307a.jpg,pre,n,2.9985296000086237,None,,,,00035,001,2026-01-16_15h26.14.383,MST_test,2024.2.0,59.93931744047256,2026-01-16 15h26.26.580208 +0530,
41,0,42,o,2.201833600003738,None,42,0,41,243.86533299999428,,,,,,,,,,,,,,,,,,,,,,,,,,,,,,,,,,,,,,,,,,,,,,,,,,243.84920460000285,243.86533299999428,244.36569790000794,244.34894379999605,244.36063199999626,244.36569790000794,244.36569790000794,244.36569790000794,246.58259079998243,Objects\248a.jpg,post,o,2.201833600003738,None,,,,00035,001,2026-01-16_15h26.14.383,MST_test,2024.2.0,59.93931744047256,2026-01-16 15h26.26.580208 +0530,
42,0,43,o,2.4363614000030793,None,43,0,42,246.5985578999971,,,,,,,,,,,,,,,,,,,,,,,,,,,,,,,,,,,,,,,,,,,,,,,,,,246.58268510000198,246.5985578999971,247.09897510000155,247.08218870000564,247.09232589998282,247.09897510000155,247.09897510000155,247.09897510000155,249.54923679999774,Objects\129a.jpg,mid,o,2.4363614000030793,None,,,,00035,001,2026-01-16_15h26.14.383,MST_test,2024.2.0,59.93931744047256,2026-01-16 15h26.26.580208 +0530,
43,0,44,o,1.1171434000134468,None,44,0,43,249.5653221999819,,,,,,,,,,,,,,,,,,,,,,,,,,,,,,,,,,,,,,,,,,,,,,,,,,249.54932649998227,249.5653221999819,250.06548950000433,250.04881409998052,250.05804360000184,250.06548950000433,250.06548950000433,250.06548950000433,251.1991170999827,Objects\183a.jpg,post,o,1.1171434000134468,None,,,,00035,001,2026-01-16_15h26.14.383,MST_test,2024.2.0,59.93931744047256,2026-01-16 15h26.26.580208 +0530,
44,0,45,s,1.7238892999885138,None,45,0,44,251.21531989998766,,,,,,,,,,,,,,,,,,,,,,,,,,,,,,,,,,,,,,,,,,,,,,,,,,251.1992101999931,251.21531989998766,251.71576769999228,251.69883649999974,251.7088095000072,251.71576769999228,251.71576769999228,251.71576769999228,253.44943439998315,Objects\288b.jpg,post,s,1.7238892999885138,None,,,,00035,001,2026-01-16_15h26.14.383,MST_test,2024.2.0,59.93931744047256,2026-01-16 15h26.26.580208 +0530,
45,0,46,o,2.3461378999927547,None,46,0,45,253.4653696999885,,,,,,,,,,,,,,,,,,,,,,,,,,,,,,,,,,,,,,,,,,,,,,,,,,253.44953149999492,253.4653696999885,253.96571580000455,253.94882540000253,253.95855300000403,253.96571580000455,253.96571580000455,253.96571580000455,256.3162595999893,Objects\237b.jpg,pre,o,2.3461378999927547,None,,,,00035,001,2026-01-16_15h26.14.383,MST_test,2024.2.0,59.93931744047256,2026-01-16 15h26.26.580208 +0530,
46,0,47,n,2.127137000003131,None,47,0,46,256.33194420000655,,,,,,,,,,,,,,,,,,,,,,,,,,,,,,,,,,,,,,,,,,,,,,,,,,256.3163665999891,256.33194420000655,256.8322019999905,256.81610189998173,256.82473319998826,256.8322019999905,256.8322019999905,256.8322019999905,258.9658674999955,Objects\376a.jpg,mid,n,2.127137000003131,None,,,,00035,001,2026-01-16_15h26.14.383,MST_test,2024.2.0,59.93931744047256,2026-01-16 15h26.26.580208 +0530,
47,0,48,s,2.1167796999798156,None,48,0,47,258.9820257999818,,,,,,,,,,,,,,,,,,,,,,,,,,,,,,,,,,,,,,,,,,,,,,,,,,258.9659572999808,258.9820257999818,259.4822470000072,259.46553879999556,259.474541899981,259.4822470000072,259.4822470000072,259.4822470000072,261.6157902999839,Objects\152b.jpg,mid,s,2.1167796999798156,None,,,,00035,001,2026-01-16_15h26.14.383,MST_test,2024.2.0,59.93931744047256,2026-01-16 15h26.26.580208 +0530,
48,0,49,n,2.3145364000229165,None,49,0,48,261.6319599999988,,,,,,,,,,,,,,,,,,,,,,,,,,,,,,,,,,,,,,,,,,,,,,,,,,261.61588699999265,261.6319599999988,262.1321529999841,262.11552429999574,262.124605399993,262.1321529999841,262.1321529999841,262.1321529999841,264.44909929999267,Foils\033a.jpg,none,n,2.3145364000229165,None,,,,00035,001,2026-01-16_15h26.14.383,MST_test,2024.2.0,59.93931744047256,2026-01-16 15h26.26.580208 +0530,
49,0,50,o,2.4976578000059817,None,50,0,49,264.4653500999848,,,,,,,,,,,,,,,,,,,,,,,,,,,,,,,,,,,,,,,,,,,,,,,,,,264.44918940000935,264.4653500999848,264.965563500009,264.94881790000363,264.9578884000075,264.965563500009,264.965563500009,264.965563500009,267.46583790000295,Objects\062a.jpg,post,o,2.4976578000059817,None,,,,00035,001,2026-01-16_15h26.14.383,MST_test,2024.2.0,59.93931744047256,2026-01-16 15h26.26.580208 +0530,
50,0,51,o,1.0803621000086423,None,51,0,50,267.4820124999969,,,,,,,,,,,,,,,,,,,,,,,,,,,,,,,,,,,,,,,,,,,,,,,,,,267.4659311999858,267.4820124999969,267.9823533000017,267.96557919998304,267.9755166999821,267.9823533000017,267.9823533000017,267.9823533000017,269.0659575999889,Objects\280b.jpg,mid,o,1.0803621000086423,None,,,,00035,001,2026-01-16_15h26.14.383,MST_test,2024.2.0,59.93931744047256,2026-01-16 15h26.26.580208 +0530,
51,0,52,n,1.528918900003191,None,52,0,51,269.08193620000384,,,,,,,,,,,,,,,,,,,,,,,,,,,,,,,,,,,,,,,,,,,,,,,,,,269.0660458999919,269.08193620000384,269.58230799998273,269.56578099998296,269.575548599998,269.58230799998273,269.58230799998273,269.58230799998273,271.1158873999957,Foils\098a.jpg,none,n,1.528918900003191,None,,,,00035,001,2026-01-16_15h26.14.383,MST_test,2024.2.0,59.93931744047256,2026-01-16 15h26.26.580208 +0530,
52,0,53,s,8.71851649999735,None,53,0,52,271.1320255000028,,,,,,,,,,,,,,,,,,,,,,,,,,,,,,,,,,,,,,,,,,,,,,,,,,271.1159759000002,271.1320255000028,271.63220019999426,271.615616199997,271.62469100000453,271.63220019999426,271.63220019999426,271.63220019999426,280.36588159998064,Objects\142a.jpg,mid,s,8.71851649999735,None,,,,00035,001,2026-01-16_15h26.14.383,MST_test,2024.2.0,59.93931744047256,2026-01-16 15h26.26.580208 +0530,
53,0,54,n,1.2054434000165202,None,54,0,53,280.38191769999685,,,,,,,,,,,,,,,,,,,,,,,,,,,,,,,,,,,,,,,,,,,,,,,,,,280.36597240000265,280.38191769999685,280.8822378999903,280.86561899998924,280.875232099992,280.8822378999903,280.8822378999903,280.8822378999903,282.09911399998236,Foils\081a.jpg,none,n,1.2054434000165202,None,,,,00035,001,2026-01-16_15h26.14.383,MST_test,2024.2.0,59.93931744047256,2026-01-16 15h26.26.580208 +0530,
54,0,55,o,3.0791075000015553,None,55,0,54,282.1153642999998,,,,,,,,,,,,,,,,,,,,,,,,,,,,,,,,,,,,,,,,,,,,,,,,,,282.0992057999829,282.1153642999998,282.6158085000061,282.5988981999981,282.60777129998314,282.6158085000061,282.6158085000061,282.6158085000061,285.6991046000039,Objects\060a.jpg,pre,o,3.0791075000015553,None,,,,00035,001,2026-01-16_15h26.14.383,MST_test,2024.2.0,59.93931744047256,2026-01-16 15h26.26.580208 +0530,
55,0,56,s,3.464634499978274,None,56,0,55,285.7151726000011,,,,,,,,,,,,,,,,,,,,,,,,,,,,,,,,,,,,,,,,,,,,,,,,,,285.6991938999854,285.7151726000011,286.21552249998786,286.1988838999823,286.2111108999816,286.21552249998786,286.21552249998786,286.21552249998786,289.6825072999927,Foils\065a.jpg,none,s,3.464634499978274,None,,,,00035,001,2026-01-16_15h26.14.383,MST_test,2024.2.0,59.93931744047256,2026-01-16 15h26.26.580208 +0530,
56,0,57,s,6.248913999996148,None,57,0,56,289.6985050000076,,,,,,,,,,,,,,,,,,,,,,,,,,,,,,,,,,,,,,,,,,,,,,,,,,289.68259599999874,289.6985050000076,290.19864630000666,290.18215919999056,290.1933376000088,290.19864630000666,290.19864630000666,290.19864630000666,296.449040699983,Objects\136b.jpg,mid,s,6.248913999996148,None,,,,00035,001,2026-01-16_15h26.14.383,MST_test,2024.2.0,59.93931744047256,2026-01-16 15h26.26.580208 +0530,
57,0,58,o,1.7133566999982577,None,58,0,57,296.4652480999939,,,,,,,,,,,,,,,,,,,,,,,,,,,,,,,,,,,,,,,,,,,,,,,,,,296.44912859998294,296.4652480999939,296.9654884999909,296.94872519999626,296.9585157999827,296.9654884999909,296.9654884999909,296.9654884999909,298.68278360000113,Objects\089b.jpg,mid,o,1.7133566999982577,None,,,,00035,001,2026-01-16_15h26.14.383,MST_test,2024.2.0,59.93931744047256,2026-01-16 15h26.26.580208 +0530,
58,0,59,s,1.5685776000027545,None,59,0,58,298.69861009999295,,,,,,,,,,,,,,,,,,,,,,,,,,,,,,,,,,,,,,,,,,,,,,,,,,298.68288730000495,298.69861009999295,299.1988513999968,299.1821454000019,299.1910450999858,299.1988513999968,299.1988513999968,299.1988513999968,300.78267779998714,Objects\064a.jpg,post,s,1.5685776000027545,None,,,,00035,001,2026-01-16_15h26.14.383,MST_test,2024.2.0,59.93931744047256,2026-01-16 15h26.26.580208 +0530,
59,0,60,s,1.868052899983013,None,60,0,59,300.7984889000072,,,,,,,,,,,,,,,,,,,,,,,,,,,,,,,,,,,,,,,,,,,,,,,,,,300.7827752000012,300.7984889000072,301.2987843999872,301.2821614999848,301.29223120000097,301.2987843999872,301.2987843999872,301.2987843999872,303.18239259999245,Objects\340b.jpg,pre,s,1.868052899983013,None,,,,00035,001,2026-01-16_15h26.14.383,MST_test,2024.2.0,59.93931744047256,2026-01-16 15h26.26.580208 +0530,
60,0,61,o,1.8046455000003334,None,61,0,60,303.19852439998067,,,,,,,,,,,,,,,,,,,,,,,,,,,,,,,,,,,,,,,,,,,,,,,,,,303.1824825000076,303.19852439998067,303.698982300004,303.6821510999871,303.6922825000074,303.698982300004,303.698982300004,303.698982300004,305.5158106999879,Objects\006b.jpg,mid,o,1.8046455000003334,None,,,,00035,001,2026-01-16_15h26.14.383,MST_test,2024.2.0,59.93931744047256,2026-01-16 15h26.26.580208 +0530,
61,0,62,o,0.9352474999905098,None,62,0,61,305.5318458999973,,,,,,,,,,,,,,,,,,,,,,,,,,,,,,,,,,,,,,,,,,,,,,,,,,305.51589909999166,305.5318458999973,306.0321578999865,306.01545049998094,306.0243791999819,306.0321578999865,306.0321578999865,306.0321578999865,306.98249130000477,Objects\051a.jpg,pre,o,0.9352474999905098,None,,,,00035,001,2026-01-16_15h26.14.383,MST_test,2024.2.0,59.93931744047256,2026-01-16 15h26.26.580208 +0530,
62,0,63,s,2.5967458000232,None,63,0,62,306.9984434999933,,,,,,,,,,,,,,,,,,,,,,,,,,,,,,,,,,,,,,,,,,,,,,,,,,306.9825803999847,306.9984434999933,307.4986410999845,307.4820991999877,307.49189469998237,307.4986410999845,307.4986410999845,307.4986410999845,310.0990543999942,Objects\126b.jpg,pre,s,2.5967458000232,None,,,,00035,001,2026-01-16_15h26.14.383,MST_test,2024.2.0,59.93931744047256,2026-01-16 15h26.26.580208 +0530,
63,0,64,s,1.431857499992475,None,64,0,63,310.1152589999838,,,,,,,,,,,,,,,,,,,,,,,,,,,,,,,,,,,,,,,,,,,,,,,,,,310.0991446999833,310.1152589999838,310.6154716000019,310.5986655000015,310.6074968999892,310.6154716000019,310.6154716000019,310.6154716000019,312.04901869999594,Objects\004b.jpg,mid,s,1.431857499992475,None,,,,00035,001,2026-01-16_15h26.14.383,MST_test,2024.2.0,59.93931744047256,2026-01-16 15h26.26.580208 +0530,
64,0,65,o,1.2574370999936946,None,65,0,64,312.0652579999878,,,,,,,,,,,,,,,,,,,,,,,,,,,,,,,,,,,,,,,,,,,,,,,,,,312.04911079999874,312.0652579999878,312.565440699982,312.5486930999905,312.5575337999908,312.565440699982,312.565440699982,312.565440699982,313.8324039999861,Objects\098a.jpg,pre,o,1.2574370999936946,None,,,,00035,001,2026-01-16_15h26.14.383,MST_test,2024.2.0,59.93931744047256,2026-01-16 15h26.26.580208 +0530,
65,0,66,o,0.7467284000013024,None,66,0,65,313.84851690000505,,,,,,,,,,,,,,,,,,,,,,,,,,,,,,,,,,,,,,,,,,,,,,,,,,313.8324956999859,313.84851690000505,314.3487581000081,314.3321946999931,314.3414695999818,314.3487581000081,314.3487581000081,314.3487581000081,315.09897769999225,Objects\279a.jpg,post,o,0.7467284000013024,None,,,,00035,001,2026-01-16_15h26.14.383,MST_test,2024.2.0,59.93931744047256,2026-01-16 15h26.26.580208 +0530,
66,0,67,s,1.231549099989934,None,67,0,66,315.1152468000073,,,,,,,,,,,,,,,,,,,,,,,,,,,,,,,,,,,,,,,,,,,,,,,,,,315.099066099996,315.1152468000073,315.61550069999066,315.5989294000028,315.6076906999806,315.61550069999066,315.61550069999066,315.61550069999066,316.8494514999911,Objects\223a.jpg,post,s,1.231549099989934,None,,,,00035,001,2026-01-16_15h26.14.383,MST_test,2024.2.0,59.93931744047256,2026-01-16 15h26.26.580208 +0530,
67,0,68,n,1.3296495999966282,None,68,0,67,316.86538899998413,,,,,,,,,,,,,,,,,,,,,,,,,,,,,,,,,,,,,,,,,,,,,,,,,,316.84955079999054,316.86538899998413,317.36552089999896,317.3488037000061,317.3577957999951,317.36552089999896,317.36552089999896,317.36552089999896,318.6991396000085,Objects\177b.jpg,post,n,1.3296495999966282,None,,,,00035,001,2026-01-16_15h26.14.383,MST_test,2024.2.0,59.93931744047256,2026-01-16 15h26.26.580208 +0530,
68,0,69,s,1.7597967000037897,None,69,0,68,318.7152486999985,,,,,,,,,,,,,,,,,,,,,,,,,,,,,,,,,,,,,,,,,,,,,,,,,,318.6992312000075,318.7152486999985,319.21547359999386,319.1987309999822,319.20819879998453,319.21547359999386,319.21547359999386,319.21547359999386,320.9825329000014,Objects\076b.jpg,mid,s,1.7597967000037897,None,,,,00035,001,2026-01-16_15h26.14.383,MST_test,2024.2.0,59.93931744047256,2026-01-16 15h26.26.580208 +0530,
69,0,70,n,3.9324347999936435,None,70,0,69,320.99845320000895,,,,,,,,,,,,,,,,,,,,,,,,,,,,,,,,,,,,,,,,,,,,,,,,,,320.9826230999897,320.99845320000895,321.49893309999607,321.4821403999813,321.49197239999194,321.49893309999607,321.49893309999607,321.49893309999607,325.4325416999927,Objects\259a.jpg,pre,n,3.9324347999936435,None,,,,00035,001,2026-01-16_15h26.14.383,MST_test,2024.2.0,59.93931744047256,2026-01-16 15h26.26.580208 +0530,
70,0,71,s,2.898374699987471,None,71,0,70,325.4484694999992,,,,,,,,,,,,,,,,,,,,,,,,,,,,,,,,,,,,,,,,,,,,,,,,,,325.4326304999995,325.4484694999992,325.9489227999875,325.93215770000825,325.9418509999814,325.9489227999875,325.9489227999875,325.9489227999875,328.8490153999883,Objects\070a.jpg,pre,s,2.898374699987471,None,,,,00035,001,2026-01-16_15h26.14.383,MST_test,2024.2.0,59.93931744047256,2026-01-16 15h26.26.580208 +0530,
71,0,72,s,1.6891978000057861,None,72,0,71,328.86528259998886,,,,,,,,,,,,,,,,,,,,,,,,,,,,,,,,,,,,,,,,,,,,,,,,,,328.84910399999353,328.86528259998886,329.3654792000016,329.3486818999809,329.3576011999976,329.3654792000016,329.3654792000016,329.3654792000016,331.0659839999862,Objects\113a.jpg,mid,s,1.6891978000057861,None,,,,00035,001,2026-01-16_15h26.14.383,MST_test,2024.2.0,59.93931744047256,2026-01-16 15h26.26.580208 +0530,
72,0,73,s,1.241631300013978,None,73,0,72,331.0819492999872,,,,,,,,,,,,,,,,,,,,,,,,,,,,,,,,,,,,,,,,,,,,,,,,,,331.0660823000071,331.0819492999872,331.5820917999954,331.5655570999952,331.5747129000083,331.5820917999954,331.5820917999954,331.5820917999954,332.8324692999886,Objects\176b.jpg,pre,s,1.241631300013978,None,,,,00035,001,2026-01-16_15h26.14.383,MST_test,2024.2.0,59.93931744047256,2026-01-16 15h26.26.580208 +0530,
73,0,74,n,1.3388662000070326,None,74,0,73,332.84843149999506,,,,,,,,,,,,,,,,,,,,,,,,,,,,,,,,,,,,,,,,,,,,,,,,,,332.83255759999156,332.84843149999506,333.3487588999851,333.3322858999891,333.341156999988,333.3487588999851,333.3487588999851,333.3487588999851,334.6989876999869,Foils\020b.jpg,none,n,1.3388662000070326,None,,,,00035,001,2026-01-16_15h26.14.383,MST_test,2024.2.0,59.93931744047256,2026-01-16 15h26.26.580208 +0530,
74,0,75,s,3.3672214999969583,None,75,0,74,334.7152536000067,,,,,,,,,,,,,,,,,,,,,,,,,,,,,,,,,,,,,,,,,,,,,,,,,,334.6990778000036,334.7152536000067,335.2155056000047,335.198765499983,335.2083644999948,335.2155056000047,335.2155056000047,335.2155056000047,338.59904209998786,Objects\090b.jpg,mid,s,3.3672214999969583,None,,,,00035,001,2026-01-16_15h26.14.383,MST_test,2024.2.0,59.93931744047256,2026-01-16 15h26.26.580208 +0530,
75,0,76,s,1.6999405000242405,None,76,0,75,338.61526479999884,,,,,,,,,,,,,,,,,,,,,,,,,,,,,,,,,,,,,,,,,,,,,,,,,,338.5991296999855,338.61526479999884,339.11546110000927,339.09876839999924,339.1081659999909,339.11546110000927,339.11546110000927,339.11546110000927,340.8161279000051,Objects\040b.jpg,mid,s,1.6999405000242405,None,,,,00035,001,2026-01-16_15h26.14.383,MST_test,2024.2.0,59.93931744047256,2026-01-16 15h26.26.580208 +0530,
76,0,77,n,1.2028626999817789,None,77,0,76,340.83193179999944,,,,,,,,,,,,,,,,,,,,,,,,,,,,,,,,,,,,,,,,,,,,,,,,,,340.8162183999957,340.83193179999944,341.3321738000086,341.3156344000017,341.32480669999495,341.3321738000086,341.3321738000086,341.3321738000086,342.5490773000056,Foils\090a.jpg,none,n,1.2028626999817789,None,,,,00035,001,2026-01-16_15h26.14.383,MST_test,2024.2.0,59.93931744047256,2026-01-16 15h26.26.580208 +0530,
77,0,78,s,1.533762300008675,None,78,0,77,342.56519369999296,,,,,,,,,,,,,,,,,,,,,,,,,,,,,,,,,,,,,,,,,,,,,,,,,,342.5491659999825,342.56519369999296,343.06541650000145,343.04859719998785,343.0577316999843,343.06541650000145,343.06541650000145,343.06541650000145,344.61581560000195,Objects\190b.jpg,post,s,1.533762300008675,None,,,,00035,001,2026-01-16_15h26.14.383,MST_test,2024.2.0,59.93931744047256,2026-01-16 15h26.26.580208 +0530,
78,0,79,n,1.4902143999934196,None,79,0,78,344.632044900005,,,,,,,,,,,,,,,,,,,,,,,,,,,,,,,,,,,,,,,,,,,,,,,,,,344.61590430000797,344.632044900005,345.1325291999965,345.115575600008,345.12475429999176,345.1325291999965,345.1325291999965,345.1325291999965,346.63267369999085,Objects\109b.jpg,post,n,1.4902143999934196,None,,,,00035,001,2026-01-16_15h26.14.383,MST_test,2024.2.0,59.93931744047256,2026-01-16 15h26.26.580208 +0530,
79,0,80,s,1.825820099998964,None,80,0,79,346.6486315999937,,,,,,,,,,,,,,,,,,,,,,,,,,,,,,,,,,,,,,,,,,,,,,,,,,346.63276499998756,346.6486315999937,347.14891109999735,347.1322800999915,347.1443113999849,347.14891109999735,347.14891109999735,347.14891109999735,348.98264400000335,Foils\057a.jpg,none,s,1.825820099998964,None,,,,00035,001,2026-01-16_15h26.14.383,MST_test,2024.2.0,59.93931744047256,2026-01-16 15h26.26.580208 +0530,
80,0,81,o,1.444542300014291,None,81,0,80,348.9986330999818,,,,,,,,,,,,,,,,,,,,,,,,,,,,,,,,,,,,,,,,,,,,,,,,,,348.9827335999871,348.9986330999818,349.49876029998995,349.4822855000093,349.49314439998125,349.49876029998995,349.49876029998995,349.49876029998995,350.9492387000064,Objects\110a.jpg,post,o,1.444542300014291,None,,,,00035,001,2026-01-16_15h26.14.383,MST_test,2024.2.0,59.93931744047256,2026-01-16 15h26.26.580208 +0530,
81,0,82,o,2.909283500019228,None,82,0,81,350.9653371000022,,,,,,,,,,,,,,,,,,,,,,,,,,,,,,,,,,,,,,,,,,,,,,,,,,350.94933209999,350.9653371000022,351.46578929998213,351.4489368000068,351.45911959998193,351.46578929998213,351.46578929998213,351.46578929998213,354.38253420000547,Objects\211b.jpg,post,o,2.909283500019228,None,,,,00035,001,2026-01-16_15h26.14.383,MST_test,2024.2.0,59.93931744047256,2026-01-16 15h26.26.580208 +0530,
82,0,83,n,1.972825400007423,None,83,0,82,354.3986975000007,,,,,,,,,,,,,,,,,,,,,,,,,,,,,,,,,,,,,,,,,,,,,,,,,,354.38262580000446,354.3986975000007,354.89905469998484,354.8821951999853,354.8917688000074,354.89905469998484,354.89905469998484,354.89905469998484,356.88261929998407,Foils\018a.jpg,none,n,1.972825400007423,None,,,,00035,001,2026-01-16_15h26.14.383,MST_test,2024.2.0,59.93931744047256,2026-01-16 15h26.26.580208 +0530,
83,0,84,n,1.0645763000065926,None,84,0,83,356.8987191999913,,,,,,,,,,,,,,,,,,,,,,,,,,,,,,,,,,,,,,,,,,,,,,,,,,356.88271659999737,356.8987191999913,357.3988043999998,357.382311399997,357.3911291999975,357.3988043999998,357.3988043999998,357.3988043999998,358.4659283999936,Foils\058a.jpg,none,n,1.0645763000065926,None,,,,00035,001,2026-01-16_15h26.14.383,MST_test,2024.2.0,59.93931744047256,2026-01-16 15h26.26.580208 +0530,
84,0,85,s,2.136930400010897,None,85,0,84,358.48196219999227,,,,,,,,,,,,,,,,,,,,,,,,,,,,,,,,,,,,,,,,,,,,,,,,,,358.4660210000002,358.48196219999227,358.98238269999274,358.9656667999807,358.9753902000084,358.98238269999274,358.98238269999274,358.98238269999274,361.13261519998196,Objects\306b.jpg,mid,s,2.136930400010897,None,,,,00035,001,2026-01-16_15h26.14.383,MST_test,2024.2.0,59.93931744047256,2026-01-16 15h26.26.580208 +0530,
85,0,86,s,3.181707199983066,None,86,0,85,361.1486762999848,,,,,,,,,,,,,,,,,,,,,,,,,,,,,,,,,,,,,,,,,,,,,,,,,,361.1327050999971,361.1486762999848,361.6490594999923,361.63235539998277,361.64224709998234,361.6490594999923,361.6490594999923,361.6490594999923,364.8325179000094,Objects\222b.jpg,post,s,3.181707199983066,None,,,,00035,001,2026-01-16_15h26.14.383,MST_test,2024.2.0,59.93931744047256,2026-01-16 15h26.26.580208 +0530,
86,0,87,n,1.1618219999945723,None,87,0,86,364.8484637000074,,,,,,,,,,,,,,,,,,,,,,,,,,,,,,,,,,,,,,,,,,,,,,,,,,364.8326118999976,364.8484637000074,365.3489311999874,365.3322463000077,365.3420200999826,365.3489311999874,365.3489311999874,365.3489311999874,366.5160271000059,Foils\113a.jpg,none,n,1.1618219999945723,None,,,,00035,001,2026-01-16_15h26.14.383,MST_test,2024.2.0,59.93931744047256,2026-01-16 15h26.26.580208 +0530,
87,0,88,n,0.8157432999869343,None,88,0,87,366.53196369999205,,,,,,,,,,,,,,,,,,,,,,,,,,,,,,,,,,,,,,,,,,,,,,,,,,366.5161914000055,366.53196369999205,367.03223409998463,367.0155497000087,367.02488340000855,367.03223409998463,367.03223409998463,367.03223409998463,367.8493004000047,Objects\068b.jpg,post,n,0.8157432999869343,None,,,,00035,001,2026-01-16_15h26.14.383,MST_test,2024.2.0,59.93931744047256,2026-01-16 15h26.26.580208 +0530,
88,0,89,n,1.513384500023676,None,89,0,88,367.8653238999832,,,,,,,,,,,,,,,,,,,,,,,,,,,,,,,,,,,,,,,,,,,,,,,,,,367.84938959998544,367.8653238999832,368.3655138000031,368.34898859998793,368.3581828000024,368.3655138000031,368.3655138000031,368.3655138000031,369.8828672999807,Foils\086a.jpg,none,n,1.513384500023676,None,,,,00035,001,2026-01-16_15h26.14.383,MST_test,2024.2.0,59.93931744047256,2026-01-16 15h26.26.580208 +0530,
89,0,90,n,1.016540000011446,None,90,0,89,369.89857319998555,,,,,,,,,,,,,,,,,,,,,,,,,,,,,,,,,,,,,,,,,,,,,,,,,,369.8829648999963,369.89857319998555,370.39886759998626,370.38223049999215,370.39090820000274,370.39886759998626,370.39886759998626,370.39886759998626,371.41615289999754,Foils\121a.jpg,none,n,1.016540000011446,None,,,,00035,001,2026-01-16_15h26.14.383,MST_test,2024.2.0,59.93931744047256,2026-01-16 15h26.26.580208 +0530,
90,0,91,o,1.3228052000049502,None,91,0,90,371.4325557999837,,,,,,,,,,,,,,,,,,,,,,,,,,,,,,,,,,,,,,,,,,,,,,,,,,371.416250499984,371.4325557999837,371.93243190000067,371.91564550000476,371.92566569999326,371.93243190000067,371.93243190000067,371.93243190000067,373.2657755999826,Objects\263a.jpg,pre,o,1.3228052000049502,None,,,,00035,001,2026-01-16_15h26.14.383,MST_test,2024.2.0,59.93931744047256,2026-01-16 15h26.26.580208 +0530,
91,0,92,o,0.8251594000030309,None,92,0,91,373.2819453999982,,,,,,,,,,,,,,,,,,,,,,,,,,,,,,,,,,,,,,,,,,,,,,,,,,373.2658645999909,373.2819453999982,373.7824455999944,373.76566579999053,373.77497009999934,373.7824455999944,373.7824455999944,373.7824455999944,374.61582099998486,Objects\270a.jpg,pre,o,0.8251594000030309,None,,,,00035,001,2026-01-16_15h26.14.383,MST_test,2024.2.0,59.93931744047256,2026-01-16 15h26.26.580208 +0530,
92,0,93,o,1.0590925999858882,None,93,0,92,374.6318958000047,,,,,,,,,,,,,,,,,,,,,,,,,,,,,,,,,,,,,,,,,,,,,,,,,,374.6159139999945,374.6318958000047,375.1322034999903,375.11583239998436,375.12577169999713,375.1322034999903,375.1322034999903,375.1322034999903,376.1989944999805,Objects\084a.jpg,mid,o,1.0590925999858882,None,,,,00035,001,2026-01-16_15h26.14.383,MST_test,2024.2.0,59.93931744047256,2026-01-16 15h26.26.580208 +0530,
93,0,94,n,1.1552200999867637,None,94,0,93,376.21527779998723,,,,,,,,,,,,,,,,,,,,,,,,,,,,,,,,,,,,,,,,,,,,,,,,,,376.1990914999915,376.21527779998723,376.71566250000615,376.69887989998097,376.70759330000146,376.71566250000615,376.71566250000615,376.71566250000615,377.8825166999886,Foils\101b.jpg,none,n,1.1552200999867637,None,,,,00035,001,2026-01-16_15h26.14.383,MST_test,2024.2.0,59.93931744047256,2026-01-16 15h26.26.580208 +0530,
94,0,95,n,1.2477397999900859,None,95,0,94,377.8984496000048,,,,,,,,,,,,,,,,,,,,,,,,,,,,,,,,,,,,,,,,,,,,,,,,,,377.8826047999901,377.8984496000048,378.3989287999866,378.38221549999435,378.39149449998513,378.3989287999866,378.3989287999866,378.3989287999866,379.64931079998496,Objects\135b.jpg,mid,n,1.2477397999900859,None,,,,00035,001,2026-01-16_15h26.14.383,MST_test,2024.2.0,59.93931744047256,2026-01-16 15h26.26.580208 +0530,
95,0,96,o,1.4655982000113,None,96,0,95,379.6653177999833,,,,,,,,,,,,,,,,,,,,,,,,,,,,,,,,,,,,,,,,,,,,,,,,,,379.6494029999885,379.6653177999833,380.1657504999894,380.1488948999904,380.1584666999988,380.1657504999894,380.1657504999894,380.1657504999894,381.6325671999948,Objects\207a.jpg,pre,o,1.4655982000113,None,,,,00035,001,2026-01-16_15h26.14.383,MST_test,2024.2.0,59.93931744047256,2026-01-16 15h26.26.580208 +0530,
96,0,97,o,1.0739621999964584,None,97,0,96,381.64845809998224,,,,,,,,,,,,,,,,,,,,,,,,,,,,,,,,,,,,,,,,,,,,,,,,,,381.63265610000235,381.64845809998224,382.1490691000072,382.1321244999999,382.14226979998057,382.1490691000072,382.1490691000072,382.1490691000072,383.23244299998623,Objects\229a.jpg,post,o,1.0739621999964584,None,,,,00035,001,2026-01-16_15h26.14.383,MST_test,2024.2.0,59.93931744047256,2026-01-16 15h26.26.580208 +0530,
97,0,98,o,1.3786642999912146,None,98,0,97,383.2485683999839,,,,,,,,,,,,,,,,,,,,,,,,,,,,,,,,,,,,,,,,,,,,,,,,,,383.232537999982,383.2485683999839,383.7488449999946,383.7321990999917,383.741784199985,383.7488449999946,383.7488449999946,383.7488449999946,385.1325414000021,Objects\339a.jpg,pre,o,1.3786642999912146,None,,,,00035,001,2026-01-16_15h26.14.383,MST_test,2024.2.0,59.93931744047256,2026-01-16 15h26.26.580208 +0530,
98,0,99,o,1.093839700013632,None,99,0,98,385.1485912000062,,,,,,,,,,,,,,,,,,,,,,,,,,,,,,,,,,,,,,,,,,,,,,,,,,385.1326269999845,385.1485912000062,385.6488435000065,385.63227370000095,385.64277069998207,385.6488435000065,385.6488435000065,385.6488435000065,386.7490700999915,Objects\151a.jpg,mid,o,1.093839700013632,None,,,,00035,001,2026-01-16_15h26.14.383,MST_test,2024.2.0,59.93931744047256,2026-01-16 15h26.26.580208 +0530,
99,0,100,o,1.3653831999981776,None,100,0,99,386.7652909999888,,,,,,,,,,,,,,,,,,,,,,,,,,,,,,,,,,,,,,,,,,,,,,,,,,386.749163600005,386.7652909999888,387.2654445999942,387.2488110999984,387.25807630000054,387.2654445999942,387.2654445999942,387.2654445999942,388.63337900000624,Objects\228a.jpg,post,o,1.3653831999981776,None,,,,00035,001,2026-01-16_15h26.14.383,MST_test,2024.2.0,59.93931744047256,2026-01-16 15h26.26.580208 +0530,
100,0,101,n,1.2179642000119202,None,101,0,100,388.6485110000067,,,,,,,,,,,,,,,,,,,,,,,,,,,,,,,,,,,,,,,,,,,,,,,,,,388.6334691999946,388.6485110000067,389.14881280000554,389.1321734999947,389.14086079999106,389.14881280000554,389.14881280000554,389.14881280000554,390.3824673999916,Foils\097a.jpg,none,n,1.2179642000119202,None,,,,00035,001,2026-01-16_15h26.14.383,MST_test,2024.2.0,59.93931744047256,2026-01-16 15h26.26.580208 +0530,
101,0,102,o,1.644425799982855,None,102,0,101,390.3984506999841,,,,,,,,,,,,,,,,,,,,,,,,,,,,,,,,,,,,,,,,,,,,,,,,,,390.38255680000293,390.3984506999841,390.89879420000943,390.88221700000577,390.8909369999892,390.89879420000943,390.89879420000943,390.89879420000943,392.5491413999989,Objects\022a.jpg,pre,o,1.644425799982855,None,,,,00035,001,2026-01-16_15h26.14.383,MST_test,2024.2.0,59.93931744047256,2026-01-16 15h26.26.580208 +0530,
102,0,103,s,1.470165500009898,None,103,0,102,392.56527500000084,,,,,,,,,,,,,,,,,,,,,,,,,,,,,,,,,,,,,,,,,,,,,,,,,,392.54923129998497,392.56527500000084,393.0655889000045,393.0487908000068,393.0583791999961,393.0655889000045,393.0655889000045,393.0655889000045,394.5490509000083,Objects\066b.jpg,post,s,1.470165500009898,None,,,,00035,001,2026-01-16_15h26.14.383,MST_test,2024.2.0,59.93931744047256,2026-01-16 15h26.26.580208 +0530,
103,0,104,o,1.0858669999870472,None,104,0,103,394.56527059999644,,,,,,,,,,,,,,,,,,,,,,,,,,,,,,,,,,,,,,,,,,,,,,,,,,394.5491384000052,394.56527059999644,395.0656061999907,395.0487032000092,395.05796929998905,395.0656061999907,395.0656061999907,395.0656061999907,396.1658364000032,Objects\275a.jpg,post,o,1.0858669999870472,None,,,,00035,001,2026-01-16_15h26.14.383,MST_test,2024.2.0,59.93931744047256,2026-01-16 15h26.26.580208 +0530,
104,0,105,o,1.1724440999969374,None,105,0,104,396.18195719999494,,,,,,,,,,,,,,,,,,,,,,,,,,,,,,,,,,,,,,,,,,,,,,,,,,396.1659229999932,396.18195719999494,396.6823031999811,396.66552650000085,396.6750691999914,396.6823031999811,396.6823031999811,396.6823031999811,397.8660028000013,Objects\107a.jpg,mid,o,1.1724440999969374,None,,,,00035,001,2026-01-16_15h26.14.383,MST_test,2024.2.0,59.93931744047256,2026-01-16 15h26.26.580208 +0530,
105,0,106,n,5.560755699989386,None,106,0,105,397.881884900009,,,,,,,,,,,,,,,,,,,,,,,,,,,,,,,,,,,,,,,,,,,,,,,,,,397.8660927999881,397.881884900009,398.3823752999888,398.365696199995,398.3745954000042,398.3823752999888,398.3823752999888,398.3823752999888,403.9490120999981,Objects\284a.jpg,mid,n,5.560755699989386,None,,,,00035,001,2026-01-16_15h26.14.383,MST_test,2024.2.0,59.93931744047256,2026-01-16 15h26.26.580208 +0530,
106,0,107,o,1.7016907000215724,None,107,0,106,403.965269599983,,,,,,,,,,,,,,,,,,,,,,,,,,,,,,,,,,,,,,,,,,,,,,,,,,403.94911180000054,403.965269599983,404.465604099998,404.44862690000446,404.4589653000003,404.465604099998,404.465604099998,404.465604099998,406.1824787000078,Objects\167b.jpg,pre,o,1.7016907000215724,None,,,,00035,001,2026-01-16_15h26.14.383,MST_test,2024.2.0,59.93931744047256,2026-01-16 15h26.26.580208 +0530,
107,0,108,n,1.1721423999988474,None,108,0,107,406.1984722999914,,,,,,,,,,,,,,,,,,,,,,,,,,,,,,,,,,,,,,,,,,,,,,,,,,406.1825652999978,406.1984722999914,406.6986210999894,406.6822989000066,406.6909863000037,406.6986210999894,406.6986210999894,406.6986210999894,407.8823994999984,Foils\074a.jpg,none,n,1.1721423999988474,None,,,,00035,001,2026-01-16_15h26.14.383,MST_test,2024.2.0,59.93931744047256,2026-01-16 15h26.26.580208 +0530,
108,0,109,s,4.056602299999213,None,109,0,108,407.8985572999809,,,,,,,,,,,,,,,,,,,,,,,,,,,,,,,,,,,,,,,,,,,,,,,,,,407.88248850000673,407.8985572999809,408.398687399982,408.3824045000074,408.39288999998826,408.398687399982,408.398687399982,408.398687399982,412.46583639999153,Objects\125b.jpg,post,s,4.056602299999213,None,,,,00035,001,2026-01-16_15h26.14.383,MST_test,2024.2.0,59.93931744047256,2026-01-16 15h26.26.580208 +0530,
109,0,110,n,1.6087439999973867,None,110,0,109,412.48193919999176,,,,,,,,,,,,,,,,,,,,,,,,,,,,,,,,,,,,,,,,,,,,,,,,,,412.465924899996,412.48193919999176,412.9823015999864,412.9655284000037,412.96858970000176,412.9823015999864,412.9823015999864,412.9823015999864,414.59918130000005,Foils\f6.jpg,none,n,1.6087439999973867,None,,,,00035,001,2026-01-16_15h26.14.383,MST_test,2024.2.0,59.93931744047256,2026-01-16 15h26.26.580208 +0530,
110,0,111,n,1.1158978999883402,None,111,0,110,414.6152020999871,,,,,,,,,,,,,,,,,,,,,,,,,,,,,,,,,,,,,,,,,,,,,,,,,,414.5992672999855,414.6152020999871,415.1156806999934,415.0988182000001,415.1094153999875,415.1156806999934,415.1156806999934,415.1156806999934,416.23249419999775,Objects\311b.jpg,post,n,1.1158978999883402,None,,,,00035,001,2026-01-16_15h26.14.383,MST_test,2024.2.0,59.93931744047256,2026-01-16 15h26.26.580208 +0530,
111,0,112,s,1.7785927999939304,None,112,0,111,416.2484801999817,,,,,,,,,,,,,,,,,,,,,,,,,,,,,,,,,,,,,,,,,,,,,,,,,,416.23259480000706,416.2484801999817,416.74869429998216,416.73214909998933,416.73518489999697,416.74869429998216,416.74869429998216,416.74869429998216,418.532515400002,Objects\198a.jpg,pre,s,1.7785927999939304,None,,,,00035,001,2026-01-16_15h26.14.383,MST_test,2024.2.0,59.93931744047256,2026-01-16 15h26.26.580208 +0530,
112,0,113,s,2.158304299984593,None,113,0,112,418.5484893999819,,,,,,,,,,,,,,,,,,,,,,,,,,,,,,,,,,,,,,,,,,,,,,,,,,418.53260410000803,418.5484893999819,419.04866889998084,419.03215210000053,419.0412873000023,419.04866889998084,419.04866889998084,419.04866889998084,421.2160666999989,Objects\140b.jpg,pre,s,2.158304299984593,None,,,,00035,001,2026-01-16_15h26.14.383,MST_test,2024.2.0,59.93931744047256,2026-01-16 15h26.26.580208 +0530,
113,0,114,o,11.634732199978316,None,114,0,113,421.2319806999876,,,,,,,,,,,,,,,,,,,,,,,,,,,,,,,,,,,,,,,,,,,,,,,,,,421.2161582999979,421.2319806999876,421.73224789998494,421.7156183999905,421.72478469999623,421.73224789998494,421.73224789998494,421.73224789998494,433.382618899981,Objects\122a.jpg,post,o,11.634732199978316,None,,,,00035,001,2026-01-16_15h26.14.383,MST_test,2024.2.0,59.93931744047256,2026-01-16 15h26.26.580208 +0530,
114,0,115,n,2.396328500006348,None,115,0,114,433.3984763000044,,,,,,,,,,,,,,,,,,,,,,,,,,,,,,,,,,,,,,,,,,,,,,,,,,433.3827793999808,433.3984763000044,433.8986469999945,433.88227709999774,433.8917266000062,433.8986469999945,433.8986469999945,433.8986469999945,436.29929579998134,Objects\186b.jpg,mid,n,2.396328500006348,None,,,,00035,001,2026-01-16_15h26.14.383,MST_test,2024.2.0,59.93931744047256,2026-01-16 15h26.26.580208 +0530,
115,0,116,n,1.1114179999858607,None,116,0,115,436.31550160000916,,,,,,,,,,,,,,,,,,,,,,,,,,,,,,,,,,,,,,,,,,,,,,,,,,436.2993864000018,436.31550160000916,436.8154508000007,436.7988022000063,436.80755689999205,436.8154508000007,436.8154508000007,436.8154508000007,437.9324715999828,Foils\082a.jpg,none,n,1.1114179999858607,None,,,,00035,001,2026-01-16_15h26.14.383,MST_test,2024.2.0,59.93931744047256,2026-01-16 15h26.26.580208 +0530,
116,0,117,s,5.054795200005174,None,117,0,116,437.9484603999881,,,,,,,,,,,,,,,,,,,,,,,,,,,,,,,,,,,,,,,,,,,,,,,,,,437.9325588000065,437.9484603999881,438.44869289998314,438.43214659998193,438.4414726999821,438.44869289998314,438.44869289998314,438.44869289998314,443.51585559998057,Objects\047b.jpg,pre,s,5.054795200005174,None,,,,00035,001,2026-01-16_15h26.14.383,MST_test,2024.2.0,59.93931744047256,2026-01-16 15h26.26.580208 +0530,
117,0,118,o,1.3188422000093851,None,118,0,117,443.53195979999145,,,,,,,,,,,,,,,,,,,,,,,,,,,,,,,,,,,,,,,,,,,,,,,,,,443.51594409998506,443.53195979999145,444.03233550000004,444.01555219999864,444.025184099999,444.03233550000004,444.03233550000004,444.03233550000004,445.36577579998993,Objects\377a.jpg,post,o,1.3188422000093851,None,,,,00035,001,2026-01-16_15h26.14.383,MST_test,2024.2.0,59.93931744047256,2026-01-16 15h26.26.580208 +0530,
118,0,119,o,1.0699358999845572,None,119,0,118,445.3819480999955,,,,,,,,,,,,,,,,,,,,,,,,,,,,,,,,,,,,,,,,,,,,,,,,,,445.36586220000754,445.3819480999955,445.8823060999857,445.865607899992,445.87583820000873,445.8823060999857,445.8823060999857,445.8823060999857,446.9657623000094,Objects\384a.jpg,post,o,1.0699358999845572,None,,,,00035,001,2026-01-16_15h26.14.383,MST_test,2024.2.0,59.93931744047256,2026-01-16 15h26.26.580208 +0530,
119,0,120,o,1.2697009000112303,None,120,0,119,446.98195109999506,,,,,,,,,,,,,,,,,,,,,,,,,,,,,,,,,,,,,,,,,,,,,,,,,,446.9658500000078,446.98195109999506,447.48211509999237,447.4655217999825,447.475452499988,447.48211509999237,447.48211509999237,447.48211509999237,448.76608460000716,Objects\267b.jpg,post,o,1.2697009000112303,None,,,,00035,001,2026-01-16_15h26.14.383,MST_test,2024.2.0,59.93931744047256,2026-01-16 15h26.26.580208 +0530,
120,0,121,o,0.7811230999941472,None,121,0,120,448.7819645999989,,,,,,,,,,,,,,,,,,,,,,,,,,,,,,,,,,,,,,,,,,,,,,,,,,448.7661812999868,448.7819645999989,449.28234740000335,449.26559769999585,449.2749616999936,449.28234740000335,449.28234740000335,449.28234740000335,450.06596219999483,Objects\261a.jpg,mid,o,0.7811230999941472,None,,,,00035,001,2026-01-16_15h26.14.383,MST_test,2024.2.0,59.93931744047256,2026-01-16 15h26.26.580208 +0530,
121,0,122,s,1.4808082999952603,None,122,0,121,450.08195950000663,,,,,,,,,,,,,,,,,,,,,,,,,,,,,,,,,,,,,,,,,,,,,,,,,,450.06604909998714,450.08195950000663,450.5824987000087,450.5658954999817,450.5768955000094,450.5824987000087,450.5824987000087,450.5824987000087,452.0660447999835,Objects\196a.jpg,mid,s,1.4808082999952603,None,,,,00035,001,2026-01-16_15h26.14.383,MST_test,2024.2.0,59.93931744047256,2026-01-16 15h26.26.580208 +0530,
122,0,123,n,3.745138099999167,None,123,0,122,452.0819796999858,,,,,,,,,,,,,,,,,,,,,,,,,,,,,,,,,,,,,,,,,,,,,,,,,,452.0661417999945,452.0819796999858,452.5823346999823,452.56557509998675,452.57496319999336,452.5823346999823,452.5823346999823,452.5823346999823,456.33260319998953,Foils\002a.jpg,none,n,3.745138099999167,None,,,,00035,001,2026-01-16_15h26.14.383,MST_test,2024.2.0,59.93931744047256,2026-01-16 15h26.26.580208 +0530,
123,0,124,s,1.8545321999990847,None,124,0,123,456.3484841999889,,,,,,,,,,,,,,,,,,,,,,,,,,,,,,,,,,,,,,,,,,,,,,,,,,456.33269169999403,456.3484841999889,456.84880300000077,456.8322516999906,456.8419386000023,456.84880300000077,456.84880300000077,456.84880300000077,458.71580919998814,Objects\164b.jpg,mid,s,1.8545321999990847,None,,,,00035,001,2026-01-16_15h26.14.383,MST_test,2024.2.0,59.93931744047256,2026-01-16 15h26.26.580208 +0530,
124,0,125,o,1.583232400007546,None,125,0,124,458.73198919999413,,,,,,,,,,,,,,,,,,,,,,,,,,,,,,,,,,,,,,,,,,,,,,,,,,458.71589609998045,458.73198919999413,459.2322002000001,459.2155463999952,459.2244579999824,459.2322002000001,459.2322002000001,459.2322002000001,460.81620380000095,Objects\276a.jpg,mid,o,1.583232400007546,None,,,,00035,001,2026-01-16_15h26.14.383,MST_test,2024.2.0,59.93931744047256,2026-01-16 15h26.26.580208 +0530,
125,0,126,o,1.6666220999904908,None,126,0,125,460.8319598999806,,,,,,,,,,,,,,,,,,,,,,,,,,,,,,,,,,,,,,,,,,,,,,,,,,460.81629200000316,460.8319598999806,461.33220469998196,461.31547679999494,461.32513919999474,461.33220469998196,461.33220469998196,461.33220469998196,462.9995732999814,Objects\234b.jpg,mid,o,1.6666220999904908,None,,,,00035,001,2026-01-16_15h26.14.383,MST_test,2024.2.0,59.93931744047256,2026-01-16 15h26.26.580208 +0530,
126,0,127,o,1.0921271000115667,None,127,0,126,463.0153064999904,,,,,,,,,,,,,,,,,,,,,,,,,,,,,,,,,,,,,,,,,,,,,,,,,,462.9996618999867,463.0153064999904,463.51550589999533,463.49880199998734,463.508706099994,463.51550589999533,463.51550589999533,463.51550589999533,464.61597290000645,Objects\001a.jpg,mid,o,1.0921271000115667,None,,,,00035,001,2026-01-16_15h26.14.383,MST_test,2024.2.0,59.93931744047256,2026-01-16 15h26.26.580208 +0530,
127,0,128,n,1.2113939999835566,None,128,0,127,464.6321418999869,,,,,,,,,,,,,,,,,,,,,,,,,,,,,,,,,,,,,,,,,,,,,,,,,,464.6160643000039,464.6321418999869,465.1323245999811,465.11567100000684,465.12570340000093,465.1323245999811,465.1323245999811,465.1323245999811,466.3491560999828,Foils\105a.jpg,none,n,1.2113939999835566,None,,,,00035,001,2026-01-16_15h26.14.383,MST_test,2024.2.0,59.93931744047256,2026-01-16 15h26.26.580208 +0530,
128,0,129,n,1.0694455000048038,None,129,0,128,466.365398199996,,,,,,,,,,,,,,,,,,,,,,,,,,,,,,,,,,,,,,,,,,,,,,,,,,466.3492430000042,466.365398199996,466.8657263999921,466.84909460000927,466.8591382000013,466.8657263999921,466.8657263999921,466.8657263999921,467.9493672999961,Foils\106a.jpg,none,n,1.0694455000048038,None,,,,00035,001,2026-01-16_15h26.14.383,MST_test,2024.2.0,59.93931744047256,2026-01-16 15h26.26.580208 +0530,
129,0,130,o,1.4852572999952827,None,130,0,129,467.96532250000746,,,,,,,,,,,,,,,,,,,,,,,,,,,,,,,,,,,,,,,,,,,,,,,,,,467.94945429998916,467.96532250000746,468.4658872,468.4492190000019,468.46369489998324,468.4658872,468.4658872,468.4658872,469.96597140000085,Objects\295a.jpg,mid,o,1.4852572999952827,None,,,,00035,001,2026-01-16_15h26.14.383,MST_test,2024.2.0,59.93931744047256,2026-01-16 15h26.26.580208 +0530,
130,0,131,o,1.49239219998708,None,131,0,130,469.9820689999906,,,,,,,,,,,,,,,,,,,,,,,,,,,,,,,,,,,,,,,,,,,,,,,,,,469.9660592,469.9820689999906,470.48245179999503,470.46556369998143,470.4773724999977,470.48245179999503,470.48245179999503,470.48245179999503,471.98254699999234,Objects\343b.jpg,mid,o,1.49239219998708,None,,,,00035,001,2026-01-16_15h26.14.383,MST_test,2024.2.0,59.93931744047256,2026-01-16 15h26.26.580208 +0530,
131,0,132,o,3.1884059000003617,None,132,0,131,471.9987172999827,,,,,,,,,,,,,,,,,,,,,,,,,,,,,,,,,,,,,,,,,,,,,,,,,,471.98263469999074,471.9987172999827,472.4990936999966,472.4823586999846,472.4931920999952,472.4990936999966,472.4990936999966,472.4990936999966,475.69912810000824,Objects\018b.jpg,mid,o,3.1884059000003617,None,,,,00035,001,2026-01-16_15h26.14.383,MST_test,2024.2.0,59.93931744047256,2026-01-16 15h26.26.580208 +0530,
132,0,133,o,2.2154854000255,None,133,0,132,475.71545339998556,,,,,,,,,,,,,,,,,,,,,,,,,,,,,,,,,,,,,,,,,,,,,,,,,,475.6992163999821,475.71545339998556,476.2159699999902,476.1989604999835,476.2083047000051,476.2159699999902,476.2159699999902,476.2159699999902,478.4327386000077,Objects\352a.jpg,mid,o,2.2154854000255,None,,,,00035,001,2026-01-16_15h26.14.383,MST_test,2024.2.0,59.93931744047256,2026-01-16 15h26.26.580208 +0530,
133,0,134,n,2.0183966000040527,None,134,0,133,478.44865919998847,,,,,,,,,,,,,,,,,,,,,,,,,,,,,,,,,,,,,,,,,,,,,,,,,,478.43282990000444,478.44865919998847,478.94902100000763,478.9322477999958,478.9426126999897,478.94902100000763,478.94902100000763,478.94902100000763,480.9827346999955,Objects\036b.jpg,post,n,2.0183966000040527,None,,,,00035,001,2026-01-16_15h26.14.383,MST_test,2024.2.0,59.93931744047256,2026-01-16 15h26.26.580208 +0530,
134,0,135,s,2.172331999987364,None,135,0,134,480.99866149999434,,,,,,,,,,,,,,,,,,,,,,,,,,,,,,,,,,,,,,,,,,,,,,,,,,480.98282919998746,480.99866149999434,481.4990318999917,481.4823162999819,481.4921839000017,481.4990318999917,481.4990318999917,481.4990318999917,483.682650999981,Objects\099b.jpg,mid,s,2.172331999987364,None,,,,00035,001,2026-01-16_15h26.14.383,MST_test,2024.2.0,59.93931744047256,2026-01-16 15h26.26.580208 +0530,
135,0,136,o,1.0565584999858402,None,136,0,135,483.69858470000327,,,,,,,,,,,,,,,,,,,,,,,,,,,,,,,,,,,,,,,,,,,,,,,,,,483.6827393999847,483.69858470000327,484.1989576999913,484.1823205999972,484.1912333999935,484.1989576999913,484.1989576999913,484.1989576999913,485.265942500002,Objects\039a.jpg,mid,o,1.0565584999858402,None,,,,00035,001,2026-01-16_15h26.14.383,MST_test,2024.2.0,59.93931744047256,2026-01-16 15h26.26.580208 +0530,
136,0,137,s,2.20011269999668,None,137,0,136,485.28209900000365,,,,,,,,,,,,,,,,,,,,,,,,,,,,,,,,,,,,,,,,,,,,,,,,,,485.2660309000057,485.28209900000365,485.7825845000043,485.7656733999902,485.7763295999903,485.7825845000043,485.7825845000043,485.7825845000043,487.9992297999852,Objects\350a.jpg,post,s,2.20011269999668,None,,,,00035,001,2026-01-16_15h26.14.383,MST_test,2024.2.0,59.93931744047256,2026-01-16 15h26.26.580208 +0530,
137,0,138,n,1.7872832999855746,None,138,0,137,488.0154053999868,,,,,,,,,,,,,,,,,,,,,,,,,,,,,,,,,,,,,,,,,,,,,,,,,,487.99931549999746,488.0154053999868,488.5158814000024,488.4990240999905,488.50864439998986,488.5158814000024,488.5158814000024,488.5158814000024,490.3160083999974,Foils\010a.jpg,none,n,1.7872832999855746,None,,,,00035,001,2026-01-16_15h26.14.383,MST_test,2024.2.0,59.93931744047256,2026-01-16 15h26.26.580208 +0530,
138,0,139,s,1.519259399996372,None,139,0,138,490.33209449998685,,,,,,,,,,,,,,,,,,,,,,,,,,,,,,,,,,,,,,,,,,,,,,,,,,490.3161172999826,490.33209449998685,490.83231470000464,490.81571039999835,490.82506589998957,490.83231470000464,490.83231470000464,490.83231470000464,492.3660444999987,Objects\242a.jpg,mid,s,1.519259399996372,None,,,,00035,001,2026-01-16_15h26.14.383,MST_test,2024.2.0,59.93931744047256,2026-01-16 15h26.26.580208 +0530,
139,0,140,n,1.6289863999991212,None,140,0,139,492.3819857999915,,,,,,,,,,,,,,,,,,,,,,,,,,,,,,,,,,,,,,,,,,,,,,,,,,492.3661426999897,492.3819857999915,492.8824403999897,492.8657200000016,492.8751398999884,492.8824403999897,492.8824403999897,492.8824403999897,494.5159512999817,Foils\f7.jpg,none,n,1.6289863999991212,None,,,,00035,001,2026-01-16_15h26.14.383,MST_test,2024.2.0,59.93931744047256,2026-01-16 15h26.26.580208 +0530,
140,0,141,o,1.3584058999840636,None,141,0,140,494.5320789999969,,,,,,,,,,,,,,,,,,,,,,,,,,,,,,,,,,,,,,,,,,,,,,,,,,494.5160441999906,494.5320789999969,495.0323805999942,495.01573709998047,495.02582650000113,495.0323805999942,495.0323805999942,495.0323805999942,496.39924229998724,Objects\250b.jpg,post,o,1.3584058999840636,None,,,,00035,001,2026-01-16_15h26.14.383,MST_test,2024.2.0,59.93931744047256,2026-01-16 15h26.26.580208 +0530,
141,0,142,s,2.6749641000060365,None,142,0,141,496.41540699999314,,,,,,,,,,,,,,,,,,,,,,,,,,,,,,,,,,,,,,,,,,,,,,,,,,496.3993313999963,496.41540699999314,496.91580960000283,496.89899290000903,496.9082085999835,496.91580960000283,496.91580960000283,496.91580960000283,499.5992532999953,Foils\066a.jpg,none,s,2.6749641000060365,None,,,,00035,001,2026-01-16_15h26.14.383,MST_test,2024.2.0,59.93931744047256,2026-01-16 15h26.26.580208 +0530,
142,0,143,o,8.739800499984995,None,143,0,142,499.61541719999514,,,,,,,,,,,,,,,,,,,,,,,,,,,,,,,,,,,,,,,,,,,,,,,,,,499.5993449999951,499.61541719999514,500.11551569998846,500.09916290000547,500.1085868999944,500.11551569998846,500.11551569998846,500.11551569998846,508.86613819998456,Objects\071b.jpg,post,o,8.739800499984995,None,,,,00035,001,2026-01-16_15h26.14.383,MST_test,2024.2.0,59.93931744047256,2026-01-16 15h26.26.580208 +0530,
143,0,144,s,1.8489157000149135,None,144,0,143,508.882031599991,,,,,,,,,,,,,,,,,,,,,,,,,,,,,,,,,,,,,,,,,,,,,,,,,,508.86623650000547,508.882031599991,509.3824539000052,509.36571620000177,509.37612609998905,509.3824539000052,509.3824539000052,509.3824539000052,511.23270659998525,Objects\365b.jpg,pre,s,1.8489157000149135,None,,,,00035,001,2026-01-16_15h26.14.383,MST_test,2024.2.0,59.93931744047256,2026-01-16 15h26.26.580208 +0530,
144,0,145,s,1.4663990999979433,None,145,0,144,511.2486998999957,,,,,,,,,,,,,,,,,,,,,,,,,,,,,,,,,,,,,,,,,,,,,,,,,,511.2328007000033,511.2486998999957,511.7490923999867,511.7324685000058,511.74242639998556,511.7490923999867,511.7490923999867,511.7490923999867,513.2161692999944,Objects\319b.jpg,pre,s,1.4663990999979433,None,,,,00035,001,2026-01-16_15h26.14.383,MST_test,2024.2.0,59.93931744047256,2026-01-16 15h26.26.580208 +0530,
145,0,146,s,28.67457109998213,None,146,0,145,513.2320805999916,,,,,,,,,,,,,,,,,,,,,,,,,,,,,,,,,,,,,,,,,,,,,,,,,,513.2162574999966,513.2320805999916,513.7322864999878,513.7156792999886,513.7271838999877,513.7322864999878,513.7322864999878,513.7322864999878,542.4159022999811,Objects\093b.jpg,post,s,28.67457109998213,None,,,,00035,001,2026-01-16_15h26.14.383,MST_test,2024.2.0,59.93931744047256,2026-01-16 15h26.26.580208 +0530,
146,0,147,o,1.915535700012697,None,147,0,146,542.4319685999944,,,,,,,,,,,,,,,,,,,,,,,,,,,,,,,,,,,,,,,,,,,,,,,,,,542.4159989999898,542.4319685999944,542.932146999985,542.915533499996,542.9264427000016,542.932146999985,542.932146999985,542.932146999985,544.8491751999827,Objects\172a.jpg,pre,o,1.915535700012697,None,,,,00035,001,2026-01-16_15h26.14.383,MST_test,2024.2.0,59.93931744047256,2026-01-16 15h26.26.580208 +0530,
147,0,148,s,1.2585553000099026,None,148,0,147,544.8652908999939,,,,,,,,,,,,,,,,,,,,,,,,,,,,,,,,,,,,,,,,,,,,,,,,,,544.8492673999863,544.8652908999939,545.3656394999998,545.3486680999922,545.3584459999984,545.3656394999998,545.3656394999998,545.3656394999998,546.6325687000062,Objects\030b.jpg,pre,s,1.2585553000099026,None,,,,00035,001,2026-01-16_15h26.14.383,MST_test,2024.2.0,59.93931744047256,2026-01-16 15h26.26.580208 +0530,
148,0,149,s,0.8831352000124753,None,149,0,148,546.6484804000065,,,,,,,,,,,,,,,,,,,,,,,,,,,,,,,,,,,,,,,,,,,,,,,,,,546.6326773999899,546.6484804000065,547.1488227999944,547.1321951999853,547.1416651000036,547.1488227999944,547.1488227999944,547.1488227999944,548.0329412999854,Objects\033b.jpg,post,s,0.8831352000124753,None,,,,00035,001,2026-01-16_15h26.14.383,MST_test,2024.2.0,59.93931744047256,2026-01-16 15h26.26.580208 +0530,
149,0,150,n,1.6990360999770928,None,150,0,149,548.048597999994,,,,,,,,,,,,,,,,,,,,,,,,,,,,,,,,,,,,,,,,,,,,,,,,,,548.0330343999958,548.048597999994,548.5486614999827,548.5322382999875,548.5419009999896,548.5486614999827,548.5486614999827,548.5486614999827,550.2494614000025,Objects\147b.jpg,post,n,1.6990360999770928,None,,,,00035,001,2026-01-16_15h26.14.383,MST_test,2024.2.0,59.93931744047256,2026-01-16 15h26.26.580208 +0530,
,,,,,,,,,,,,,,,,,,,,,,,,,,,,,,,,,,,,,,,,,,,,,,,,,,,,,,,,,,,,,,,,,,,,,,,,,550.2495262000011,550.2654031999991,550.2654031999991,,,,,,,,
