thisN,thisTrialN,thisRepN,key_resp_3.keys,key_resp_3.rt,key_resp_3.duration,trials.thisRepN,trials.thisTrialN,trials.thisN,thisRow.t,notes,intro_page.started,text.started,key_resp.started,intro_page.stopped,key_resp.keys,key_resp.rt,key_resp.duration,instructions.started,text_2.started,key_resp_2.started,instructions.stopped,key_resp_2.keys,key_resp_2.rt,key_resp_2.duration,demo1.started,image_1.started,image_2.started,text_7.started,key_resp_6.started,text_9.started,demo1.stopped,key_resp_6.keys,key_resp_6.rt,key_resp_6.duration,demo3.started,image_5.started,image_6.started,text_11.started,text_12.started,key_resp_8.started,demo3.stopped,key_resp_8.keys,key_resp_8.rt,key_resp_8.duration,demo_conclusion.started,text_13.started,key_resp_9.started,demo_conclusion.stopped,key_resp_9.keys,key_resp_9.rt,key_resp_9.duration,start_test.started,text_6.started,key_resp_5.started,start_test.stopped,key_resp_5.keys,key_resp_5.rt,key_resp_5.duration,ISI.started,text_4.started,ISI.stopped,routine_1.started,image.started,text_3.started,key_resp_3.started,routine_1.stopped,image_path,position_of_stimuli,trials.key_resp_3.keys,trials.key_resp_3.rt,trials.key_resp_3.duration,End_page.started,text_5.started,key_resp_4.started,End_page.stopped,key_resp_4.keys,key_resp_4.rt,key_resp_4.duration,participant,session,date,expName,psychopyVersion,frameRate,expStart,
,,,,,,,,,,,0.014640799985500053,0.031048000004375353,0.031048000004375353,11.373151699983282,space,11.27641340001719,None,,,,,,,,,,,,,,,,,,,,,,,,,,,,,,,,,,,,,,,,,,,,,,,,,,,,,,,,,,,,,,00032,001,2026-01-16_12h17.18.732,MST_test,2024.2.0,59.919061339942026,2026-01-16 12h17.33.335964 +0530,
,,,,,,,,,,,,,,,,,,11.37319079998997,11.389004099997692,11.389004099997692,23.04735089998576,space,11.64690839999821,None,,,,,,,,,,,,,,,,,,,,,,,,,,,,,,,,,,,,,,,,,,,,,,,,,,,,,,,00032,001,2026-01-16_12h17.18.732,MST_test,2024.2.0,59.919061339942026,2026-01-16 12h17.33.335964 +0530,
,,,,,,,,,,,,,,,,,,,,,,,,,23.047378099989146,23.06354800000554,23.06354800000554,23.06354800000554,23.06354800000554,23.06354800000554,27.64696339998045,space,4.579908199986676,None,,,,,,,,,,,,,,,,,,,,,,,,,,,,,,,,,,,,,,,,,,,,,00032,001,2026-01-16_12h17.18.732,MST_test,2024.2.0,59.919061339942026,2026-01-16 12h17.33.335964 +0530,
,,,,,,,,,,,,,,,,,,,,,,,,,,,,,,,,,,,27.646990899986122,27.662999899999704,27.662999899999704,27.662999899999704,27.662999899999704,27.662999899999704,29.25258010000107,space,1.5881661000021268,None,,,,,,,,,,,,,,,,,,,,,,,,,,,,,,,,,,,00032,001,2026-01-16_12h17.18.732,MST_test,2024.2.0,59.919061339942026,2026-01-16 12h17.33.335964 +0530,
,,,,,,,,,,,,,,,,,,,,,,,,,,,,,,,,,,,,,,,,,,,,,29.252608099981444,29.268489799986128,29.268489799986128,43.48533289998886,space,14.214558000006946,None,,,,,,,,,,,,,,,,,,,,,,,,,,,,00032,001,2026-01-16_12h17.18.732,MST_test,2024.2.0,59.919061339942026,2026-01-16 12h17.33.335964 +0530,
,,,,,,,,,,,,,,,,,,,,,,,,,,,,,,,,,,,,,,,,,,,,,,,,,,,,43.48537209999631,43.51818809998804,43.51818809998804,86.5533804000006,space,43.03016470000148,None,,,,,,,,,,,,,,,,,,,,,00032,001,2026-01-16_12h17.18.732,MST_test,2024.2.0,59.919061339942026,2026-01-16 12h17.33.335964 +0530,
0,0,1,n,5.009373700013384,None,1,0,0,86.56934389998787,,,,,,,,,,,,,,,,,,,,,,,,,,,,,,,,,,,,,,,,,,,,,,,,,,86.55879280000227,86.56934389998787,87.05422140000155,87.08456309998292,87.10554049999337,87.10554049999337,87.10554049999337,92.1226680999971,Objects\261b.jpg,pre,n,5.009373700013384,None,,,,,,,,00032,001,2026-01-16_12h17.18.732,MST_test,2024.2.0,59.919061339942026,2026-01-16 12h17.33.335964 +0530,
1,0,2,o,13.402447600004962,None,2,0,1,92.13874009999563,,,,,,,,,,,,,,,,,,,,,,,,,,,,,,,,,,,,,,,,,,,,,,,,,,92.12276359999669,92.13874009999563,92.62406480000936,92.63519989998895,92.65713609999511,92.65713609999511,92.65713609999511,106.07120609999401,Objects\276a.jpg,pre,o,13.402447600004962,None,,,,,,,,00032,001,2026-01-16_12h17.18.732,MST_test,2024.2.0,59.919061339942026,2026-01-16 12h17.33.335964 +0530,
2,0,3,o,7.717766599991592,None,3,0,2,106.08730709998053,,,,,,,,,,,,,,,,,,,,,,,,,,,,,,,,,,,,,,,,,,,,,,,,,,106.07130169999436,106.08730709998053,106.5725867000001,106.58466459999909,106.6059139999852,106.6059139999852,106.6059139999852,114.33364060000167,Objects\171a.jpg,pre,o,7.717766599991592,None,,,,,,,,00032,001,2026-01-16_12h17.18.732,MST_test,2024.2.0,59.919061339942026,2026-01-16 12h17.33.335964 +0530,
3,0,4,s,7.047645100014051,None,4,0,3,114.34959629998775,,,,,,,,,,,,,,,,,,,,,,,,,,,,,,,,,,,,,,,,,,,,,,,,,,114.33373459998984,114.34959629998775,114.83455549998325,114.84569399998873,114.86814469998353,114.86814469998353,114.86814469998353,121.92720219999319,Objects\022a.jpg,mid,s,7.047645100014051,None,,,,,,,,00032,001,2026-01-16_12h17.18.732,MST_test,2024.2.0,59.919061339942026,2026-01-16 12h17.33.335964 +0530,
4,0,5,n,4.1259268000139855,None,5,0,4,121.9430144999933,,,,,,,,,,,,,,,,,,,,,,,,,,,,,,,,,,,,,,,,,,,,,,,,,,121.92729490000056,121.9430144999933,122.42798320000293,122.4430929000082,122.46226500000921,122.46226500000921,122.46226500000921,126.59313279998605,Objects\272a.jpg,pre,n,4.1259268000139855,None,,,,,,,,00032,001,2026-01-16_12h17.18.732,MST_test,2024.2.0,59.919061339942026,2026-01-16 12h17.33.335964 +0530,
5,0,6,o,2.619618500000797,None,6,0,5,126.60944110000855,,,,,,,,,,,,,,,,,,,,,,,,,,,,,,,,,,,,,,,,,,,,,,,,,,126.5932283999864,126.60944110000855,127.09521209998638,127.11196889998973,127.12864629999967,127.12864629999967,127.12864629999967,129.75416179999593,Objects\084a.jpg,mid,o,2.619618500000797,None,,,,,,,,00032,001,2026-01-16_12h17.18.732,MST_test,2024.2.0,59.919061339942026,2026-01-16 12h17.33.335964 +0530,
6,0,7,n,4.163510299986228,None,7,0,6,129.7702500000014,,,,,,,,,,,,,,,,,,,,,,,,,,,,,,,,,,,,,,,,,,,,,,,,,,129.75425719999475,129.7702500000014,130.25531750000664,130.2663297999825,130.28877859999193,130.28877859999193,130.28877859999193,134.45395520000602,Objects\122b.jpg,pre,n,4.163510299986228,None,,,,,,,,00032,001,2026-01-16_12h17.18.732,MST_test,2024.2.0,59.919061339942026,2026-01-16 12h17.33.335964 +0530,
7,0,8,o,5.430641999992076,None,8,0,7,134.4700508999813,,,,,,,,,,,,,,,,,,,,,,,,,,,,,,,,,,,,,,,,,,,,,,,,,,134.4540555999847,134.4700508999813,134.95504040000378,134.96990589998313,134.98850310000125,134.98850310000125,134.98850310000125,140.424809499993,Objects\251a.jpg,post,o,5.430641999992076,None,,,,,,,,00032,001,2026-01-16_12h17.18.732,MST_test,2024.2.0,59.919061339942026,2026-01-16 12h17.33.335964 +0530,
8,0,9,s,2.612022799992701,None,9,0,8,140.44085109999287,,,,,,,,,,,,,,,,,,,,,,,,,,,,,,,,,,,,,,,,,,,,,,,,,,140.42490409998572,140.44085109999287,140.92603899998358,140.94273629999952,140.95929880000767,140.95929880000767,140.95929880000767,143.58592549999594,Objects\132b.jpg,mid,s,2.612022799992701,None,,,,,,,,00032,001,2026-01-16_12h17.18.732,MST_test,2024.2.0,59.919061339942026,2026-01-16 12h17.33.335964 +0530,
9,0,10,s,3.5625342999992426,None,10,0,9,143.60191689999192,,,,,,,,,,,,,,,,,,,,,,,,,,,,,,,,,,,,,,,,,,,,,,,,,,143.5860243999923,143.60191689999192,144.08729379999568,144.1028731999977,144.12035889999242,144.12035889999242,144.12035889999242,147.68356119998498,Objects\264b.jpg,post,s,3.5625342999992426,None,,,,,,,,00032,001,2026-01-16_12h17.18.732,MST_test,2024.2.0,59.919061339942026,2026-01-16 12h17.33.335964 +0530,
10,0,11,o,4.5774944000004325,None,11,0,10,147.69961300000432,,,,,,,,,,,,,,,,,,,,,,,,,,,,,,,,,,,,,,,,,,,,,,,,,,147.68365469999844,147.69961300000432,148.1849328999815,148.2011571000039,148.2181389000034,148.2181389000034,148.2181389000034,152.80153510000673,Objects\047b.jpg,mid,o,4.5774944000004325,None,,,,,,,,00032,001,2026-01-16_12h17.18.732,MST_test,2024.2.0,59.919061339942026,2026-01-16 12h17.33.335964 +0530,
11,0,12,o,1.347227299993392,None,12,0,11,152.8177202999941,,,,,,,,,,,,,,,,,,,,,,,,,,,,,,,,,,,,,,,,,,,,,,,,,,152.80163000000175,152.8177202999941,153.30265609998605,153.31350889999885,153.33621399998083,153.33621399998083,153.33621399998083,154.69150759998593,Objects\019a.jpg,mid,o,1.347227299993392,None,,,,,,,,00032,001,2026-01-16_12h17.18.732,MST_test,2024.2.0,59.919061339942026,2026-01-16 12h17.33.335964 +0530,
12,0,13,s,2.457689600007143,None,13,0,12,154.70780239999294,,,,,,,,,,,,,,,,,,,,,,,,,,,,,,,,,,,,,,,,,,,,,,,,,,154.69160489999922,154.70780239999294,155.19282789999852,155.2112026999821,155.2260460999969,155.2260460999969,155.2260460999969,157.68588770000497,Objects\231b.jpg,post,s,2.457689600007143,None,,,,,,,,00032,001,2026-01-16_12h17.18.732,MST_test,2024.2.0,59.919061339942026,2026-01-16 12h17.33.335964 +0530,
13,0,14,s,3.7679117000079714,None,14,0,13,157.70150840000133,,,,,,,,,,,,,,,,,,,,,,,,,,,,,,,,,,,,,,,,,,,,,,,,,,157.685979700007,157.70150840000133,158.186421099992,158.2035690000048,158.21986049998668,158.21986049998668,158.21986049998668,162.00027099999716,Objects\125b.jpg,pre,s,3.7679117000079714,None,,,,,,,,00032,001,2026-01-16_12h17.18.732,MST_test,2024.2.0,59.919061339942026,2026-01-16 12h17.33.335964 +0530,
14,0,15,n,4.612013100006152,None,15,0,14,162.01640359999146,,,,,,,,,,,,,,,,,,,,,,,,,,,,,,,,,,,,,,,,,,,,,,,,,,162.0003647999838,162.01640359999146,162.50164080000832,162.52161130000604,162.53583740000613,162.53583740000613,162.53583740000613,167.15189259999897,Objects\363b.jpg,mid,n,4.612013100006152,None,,,,,,,,00032,001,2026-01-16_12h17.18.732,MST_test,2024.2.0,59.919061339942026,2026-01-16 12h17.33.335964 +0530,
15,0,16,o,1.452324600017164,None,16,0,15,167.16778899999917,,,,,,,,,,,,,,,,,,,,,,,,,,,,,,,,,,,,,,,,,,,,,,,,,,167.15198599998257,167.16778899999917,167.65301479998743,167.67063219999545,167.6872435999976,167.6872435999976,167.6872435999976,169.14249649998965,Objects\371a.jpg,mid,o,1.452324600017164,None,,,,,,,,00032,001,2026-01-16_12h17.18.732,MST_test,2024.2.0,59.919061339942026,2026-01-16 12h17.33.335964 +0530,
16,0,17,s,2.1657232000143267,None,17,0,16,169.15808349999133,,,,,,,,,,,,,,,,,,,,,,,,,,,,,,,,,,,,,,,,,,,,,,,,,,169.14259529998526,169.15808349999133,169.64342549999128,169.66084409999894,169.677592299995,169.677592299995,169.677592299995,171.8517254999897,Foils\073a.jpg,none,s,2.1657232000143267,None,,,,,,,,00032,001,2026-01-16_12h17.18.732,MST_test,2024.2.0,59.919061339942026,2026-01-16 12h17.33.335964 +0530,
17,0,18,n,3.320723699987866,None,18,0,17,171.8676862999855,,,,,,,,,,,,,,,,,,,,,,,,,,,,,,,,,,,,,,,,,,,,,,,,,,171.85181829999783,171.8676862999855,172.3527727999899,172.37073759999475,172.38698740000837,172.38698740000837,172.38698740000837,175.71532799999113,Objects\238a.jpg,pre,n,3.320723699987866,None,,,,,,,,00032,001,2026-01-16_12h17.18.732,MST_test,2024.2.0,59.919061339942026,2026-01-16 12h17.33.335964 +0530,
18,0,19,n,3.73829680000199,None,19,0,18,175.73121810000157,,,,,,,,,,,,,,,,,,,,,,,,,,,,,,,,,,,,,,,,,,,,,,,,,,175.71542530000443,175.73121810000157,176.2161908999842,176.23313949999283,176.2497841999866,176.2497841999866,176.2497841999866,179.99677229998633,Objects\344a.jpg,pre,n,3.73829680000199,None,,,,,,,,00032,001,2026-01-16_12h17.18.732,MST_test,2024.2.0,59.919061339942026,2026-01-16 12h17.33.335964 +0530,
19,0,20,o,1.1443714000051841,None,20,0,19,180.0127541999973,,,,,,,,,,,,,,,,,,,,,,,,,,,,,,,,,,,,,,,,,,,,,,,,,,179.99686489999294,180.0127541999973,180.49842349998653,180.51459439998143,180.53120969998417,180.53120969998417,180.53120969998417,181.68594060000032,Objects\172a.jpg,mid,o,1.1443714000051841,None,,,,,,,,00032,001,2026-01-16_12h17.18.732,MST_test,2024.2.0,59.919061339942026,2026-01-16 12h17.33.335964 +0530,
20,0,21,n,2.239138900011312,None,21,0,20,181.70200509999995,,,,,,,,,,,,,,,,,,,,,,,,,,,,,,,,,,,,,,,,,,,,,,,,,,181.6860328000039,181.70200509999995,182.18735439999728,182.20095309999306,182.22057099998347,182.22057099998347,182.22057099998347,184.46239060000516,Objects\367b.jpg,mid,n,2.239138900011312,None,,,,,,,,00032,001,2026-01-16_12h17.18.732,MST_test,2024.2.0,59.919061339942026,2026-01-16 12h17.33.335964 +0530,
21,0,22,n,3.1980753999960143,None,22,0,21,184.4785173999844,,,,,,,,,,,,,,,,,,,,,,,,,,,,,,,,,,,,,,,,,,,,,,,,,,184.46248399998876,184.4785173999844,184.96358640000108,184.98052519999328,184.9971641000011,184.9971641000011,184.9971641000011,188.2087668000022,Foils\074a.jpg,none,n,3.1980753999960143,None,,,,,,,,00032,001,2026-01-16_12h17.18.732,MST_test,2024.2.0,59.919061339942026,2026-01-16 12h17.33.335964 +0530,
22,0,23,o,3.772833499999251,None,23,0,22,188.22509510000236,,,,,,,,,,,,,,,,,,,,,,,,,,,,,,,,,,,,,,,,,,,,,,,,,,188.20886290000635,188.22509510000236,188.7098696999892,188.72090789998765,188.7434224000026,188.7434224000026,188.7434224000026,192.52403219998814,Objects\198a.jpg,mid,o,3.772833499999251,None,,,,,,,,00032,001,2026-01-16_12h17.18.732,MST_test,2024.2.0,59.919061339942026,2026-01-16 12h17.33.335964 +0530,
23,0,24,n,2.1847108000074513,None,24,0,23,192.54019659999176,,,,,,,,,,,,,,,,,,,,,,,,,,,,,,,,,,,,,,,,,,,,,,,,,,192.52414910000516,192.54019659999176,193.02591060000123,193.04147629998624,193.0586151999887,193.0586151999887,193.0586151999887,195.25045980000868,Objects\218a.jpg,post,n,2.1847108000074513,None,,,,,,,,00032,001,2026-01-16_12h17.18.732,MST_test,2024.2.0,59.919061339942026,2026-01-16 12h17.33.335964 +0530,
24,0,25,o,1.3150817999849096,None,25,0,24,195.2663462999917,,,,,,,,,,,,,,,,,,,,,,,,,,,,,,,,,,,,,,,,,,,,,,,,,,195.2505608999927,195.2663462999917,195.75165649998235,195.76704350000364,195.78462289998424,195.78462289998424,195.78462289998424,197.10699229998863,Objects\277a.jpg,pre,o,1.3150817999849096,None,,,,,,,,00032,001,2026-01-16_12h17.18.732,MST_test,2024.2.0,59.919061339942026,2026-01-16 12h17.33.335964 +0530,
25,0,26,o,1.874645599978976,None,26,0,25,197.12268999998923,,,,,,,,,,,,,,,,,,,,,,,,,,,,,,,,,,,,,,,,,,,,,,,,,,197.10709139998653,197.12268999998923,197.6083558999817,197.62541539999074,197.64154280000366,197.64154280000366,197.64154280000366,199.53232410000055,Objects\378b.jpg,pre,o,1.874645599978976,None,,,,,,,,00032,001,2026-01-16_12h17.18.732,MST_test,2024.2.0,59.919061339942026,2026-01-16 12h17.33.335964 +0530,
26,0,27,o,1.2011610999761615,None,27,0,26,199.54783830000088,,,,,,,,,,,,,,,,,,,,,,,,,,,,,,,,,,,,,,,,,,,,,,,,,,199.53241879999405,199.54783830000088,200.03308480000123,200.05060019998928,200.06652699998813,200.06652699998813,200.06652699998813,201.27124109998113,Objects\190a.jpg,mid,o,1.2011610999761615,None,,,,,,,,00032,001,2026-01-16_12h17.18.732,MST_test,2024.2.0,59.919061339942026,2026-01-16 12h17.33.335964 +0530,
27,0,28,n,4.214178499998525,None,28,0,27,201.28738329999032,,,,,,,,,,,,,,,,,,,,,,,,,,,,,,,,,,,,,,,,,,,,,,,,,,201.2713365999807,201.28738329999032,201.77241390000563,201.78339880000567,201.80583719999413,201.80583719999413,201.80583719999413,206.02123610000126,Objects\342a.jpg,pre,n,4.214178499998525,None,,,,,,,,00032,001,2026-01-16_12h17.18.732,MST_test,2024.2.0,59.919061339942026,2026-01-16 12h17.33.335964 +0530,
28,0,29,o,1.6643213999923319,None,29,0,28,206.03748820000328,,,,,,,,,,,,,,,,,,,,,,,,,,,,,,,,,,,,,,,,,,,,,,,,,,206.02133439999307,206.03748820000328,206.52240709998296,206.53344060000381,206.5557880999986,206.5557880999986,206.5557880999986,208.22879699998884,Objects\129b.jpg,mid,o,1.6643213999923319,None,,,,,,,,00032,001,2026-01-16_12h17.18.732,MST_test,2024.2.0,59.919061339942026,2026-01-16 12h17.33.335964 +0530,
29,0,30,n,1.2072850000113249,None,30,0,29,208.2449721999874,,,,,,,,,,,,,,,,,,,,,,,,,,,,,,,,,,,,,,,,,,,,,,,,,,208.22889100000612,208.2449721999874,208.73034109998844,208.7474055000057,208.7635874999978,208.7635874999978,208.7635874999978,209.9851825000078,Objects\217a.jpg,mid,n,1.2072850000113249,None,,,,,,,,00032,001,2026-01-16_12h17.18.732,MST_test,2024.2.0,59.919061339942026,2026-01-16 12h17.33.335964 +0530,
30,0,31,s,1.6359185999899637,None,31,0,30,210.0011153999949,,,,,,,,,,,,,,,,,,,,,,,,,,,,,,,,,,,,,,,,,,,,,,,,,,209.9852763999952,210.0011153999949,210.4863231999916,210.50286740000593,210.51958289998583,210.51958289998583,210.51958289998583,212.15933930000756,Objects\010b.jpg,pre,s,1.6359185999899637,None,,,,,,,,00032,001,2026-01-16_12h17.18.732,MST_test,2024.2.0,59.919061339942026,2026-01-16 12h17.33.335964 +0530,
31,0,32,s,3.5416634999855887,None,32,0,31,212.17551030000322,,,,,,,,,,,,,,,,,,,,,,,,,,,,,,,,,,,,,,,,,,,,,,,,,,212.15942929999437,212.17551030000322,212.66049380000914,212.67130869999528,212.69406399998115,212.69406399998115,212.69406399998115,216.24039550000452,Objects\016a.jpg,pre,s,3.5416634999855887,None,,,,,,,,00032,001,2026-01-16_12h17.18.732,MST_test,2024.2.0,59.919061339942026,2026-01-16 12h17.33.335964 +0530,
32,0,33,n,2.0443964999867603,None,33,0,32,216.25650329998462,,,,,,,,,,,,,,,,,,,,,,,,,,,,,,,,,,,,,,,,,,,,,,,,,,216.2404917999811,216.25650329998462,216.7418958999915,216.75914239999838,216.77480869999272,216.77480869999272,216.77480869999272,218.8329337000032,Objects\256b.jpg,pre,n,2.0443964999867603,None,,,,,,,,00032,001,2026-01-16_12h17.18.732,MST_test,2024.2.0,59.919061339942026,2026-01-16 12h17.33.335964 +0530,
33,0,34,o,1.2204360000032466,None,34,0,33,218.8488209999923,,,,,,,,,,,,,,,,,,,,,,,,,,,,,,,,,,,,,,,,,,,,,,,,,,218.83303079998586,218.8488209999923,219.33413750000182,219.35031680000247,219.36735449999105,219.36735449999105,219.36735449999105,220.58896439999808,Objects\101a.jpg,post,o,1.2204360000032466,None,,,,,,,,00032,001,2026-01-16_12h17.18.732,MST_test,2024.2.0,59.919061339942026,2026-01-16 12h17.33.335964 +0530,
34,0,35,o,1.1047124000033364,None,35,0,34,220.60492529999465,,,,,,,,,,,,,,,,,,,,,,,,,,,,,,,,,,,,,,,,,,,,,,,,,,220.58905519999098,220.60492529999465,221.09011630000896,221.1048829999927,221.1233777999878,221.1233777999878,221.1233777999878,222.24538670000038,Objects\210a.jpg,pre,o,1.1047124000033364,None,,,,,,,,00032,001,2026-01-16_12h17.18.732,MST_test,2024.2.0,59.919061339942026,2026-01-16 12h17.33.335964 +0530,
35,0,36,n,1.696250200009672,None,36,0,35,222.26073270000052,,,,,,,,,,,,,,,,,,,,,,,,,,,,,,,,,,,,,,,,,,,,,,,,,,222.24547920000623,222.26073270000052,222.74640040000668,222.76339929999085,222.77942269999767,222.77942269999767,222.77942269999767,224.48614679998718,Objects\126b.jpg,mid,n,1.696250200009672,None,,,,,,,,00032,001,2026-01-16_12h17.18.732,MST_test,2024.2.0,59.919061339942026,2026-01-16 12h17.33.335964 +0530,
36,0,37,n,1.4792315999802668,None,37,0,36,224.50203390000388,,,,,,,,,,,,,,,,,,,,,,,,,,,,,,,,,,,,,,,,,,,,,,,,,,224.48624709999422,224.50203390000388,224.98720229999162,224.99968919999083,225.02034899999853,225.02034899999853,225.02034899999853,226.50986849999754,Foils\049a.jpg,none,n,1.4792315999802668,None,,,,,,,,00032,001,2026-01-16_12h17.18.732,MST_test,2024.2.0,59.919061339942026,2026-01-16 12h17.33.335964 +0530,
37,0,38,o,2.7359568999963813,None,38,0,37,226.5258089999843,,,,,,,,,,,,,,,,,,,,,,,,,,,,,,,,,,,,,,,,,,,,,,,,,,226.50996679998934,226.5258089999843,227.01098439999623,227.028447699995,227.04420889998437,227.04420889998437,227.04420889998437,229.78778759998386,Objects\290a.jpg,mid,o,2.7359568999963813,None,,,,,,,,00032,001,2026-01-16_12h17.18.732,MST_test,2024.2.0,59.919061339942026,2026-01-16 12h17.33.335964 +0530,
38,0,39,o,3.081841799983522,None,39,0,38,229.80390959998476,,,,,,,,,,,,,,,,,,,,,,,,,,,,,,,,,,,,,,,,,,,,,,,,,,229.7878819000034,229.80390959998476,230.2888801000081,230.30688210000517,230.32237270000041,230.32237270000041,230.32237270000041,233.41711639999994,Objects\170a.jpg,pre,o,3.081841799983522,None,,,,,,,,00032,001,2026-01-16_12h17.18.732,MST_test,2024.2.0,59.919061339942026,2026-01-16 12h17.33.335964 +0530,
39,0,40,n,1.235322000022279,None,40,0,39,233.43341169998166,,,,,,,,,,,,,,,,,,,,,,,,,,,,,,,,,,,,,,,,,,,,,,,,,,233.4172091000073,233.43341169998166,233.9182986000087,233.93375840000226,233.95174689998385,233.95174689998385,233.95174689998385,235.19009299998288,Objects\194b.jpg,pre,n,1.235322000022279,None,,,,,,,,00032,001,2026-01-16_12h17.18.732,MST_test,2024.2.0,59.919061339942026,2026-01-16 12h17.33.335964 +0530,
40,0,41,s,1.3984242000151426,None,41,0,40,235.20605670000077,,,,,,,,,,,,,,,,,,,,,,,,,,,,,,,,,,,,,,,,,,,,,,,,,,235.19019079999998,235.20605670000077,235.69126479999977,235.70801539998502,235.72448979999172,235.72448979999172,235.72448979999172,237.13032399999793,Objects\024b.jpg,mid,s,1.3984242000151426,None,,,,,,,,00032,001,2026-01-16_12h17.18.732,MST_test,2024.2.0,59.919061339942026,2026-01-16 12h17.33.335964 +0530,
41,0,42,n,1.443238099978771,None,42,0,41,237.14646299998276,,,,,,,,,,,,,,,,,,,,,,,,,,,,,,,,,,,,,,,,,,,,,,,,,,237.13042010000208,237.14646299998276,237.6313763000071,237.64226719998987,237.66462949998095,237.66462949998095,237.66462949998095,239.1205356999999,Objects\160b.jpg,post,n,1.443238099978771,None,,,,,,,,00032,001,2026-01-16_12h17.18.732,MST_test,2024.2.0,59.919061339942026,2026-01-16 12h17.33.335964 +0530,
42,0,43,o,1.0845008000032976,None,43,0,42,239.13647179998225,,,,,,,,,,,,,,,,,,,,,,,,,,,,,,,,,,,,,,,,,,,,,,,,,,239.1206272999989,239.13647179998225,239.62177140000858,239.63218339998275,239.65493079999578,239.65493079999578,239.65493079999578,240.74266580000403,Objects\097a.jpg,pre,o,1.0845008000032976,None,,,,,,,,00032,001,2026-01-16_12h17.18.732,MST_test,2024.2.0,59.919061339942026,2026-01-16 12h17.33.335964 +0530,
43,0,44,o,0.8942927999887615,None,44,0,43,240.75883999999496,,,,,,,,,,,,,,,,,,,,,,,,,,,,,,,,,,,,,,,,,,,,,,,,,,240.74276589998044,240.75883999999496,241.24434929998824,241.25471079998533,241.27729229998658,241.27729229998658,241.27729229998658,242.1812546000001,Objects\253a.jpg,pre,o,0.8942927999887615,None,,,,,,,,00032,001,2026-01-16_12h17.18.732,MST_test,2024.2.0,59.919061339942026,2026-01-16 12h17.33.335964 +0530,
44,0,45,o,1.1523950999835506,None,45,0,44,242.19731600000523,,,,,,,,,,,,,,,,,,,,,,,,,,,,,,,,,,,,,,,,,,,,,,,,,,242.1813503000012,242.19731600000523,242.68226480000885,242.69346270000096,242.71576580000692,242.71576580000692,242.71576580000692,243.8702970999875,Objects\204a.jpg,mid,o,1.1523950999835506,None,,,,,,,,00032,001,2026-01-16_12h17.18.732,MST_test,2024.2.0,59.919061339942026,2026-01-16 12h17.33.335964 +0530,
45,0,46,n,1.8464680000033695,None,46,0,45,243.8865714999847,,,,,,,,,,,,,,,,,,,,,,,,,,,,,,,,,,,,,,,,,,,,,,,,,,243.87038879998727,243.8865714999847,244.3716093999974,244.38691870000912,244.40501709998352,244.40501709998352,244.40501709998352,246.26205059999484,Objects\249b.jpg,mid,n,1.8464680000033695,None,,,,,,,,00032,001,2026-01-16_12h17.18.732,MST_test,2024.2.0,59.919061339942026,2026-01-16 12h17.33.335964 +0530,
46,0,47,n,1.6783267999999225,None,47,0,46,246.27827370000887,,,,,,,,,,,,,,,,,,,,,,,,,,,,,,,,,,,,,,,,,,,,,,,,,,246.26214189999155,246.27827370000887,246.7632265999855,246.78026229998795,246.7967226000037,246.7967226000037,246.7967226000037,248.4865798999963,Objects\002b.jpg,post,n,1.6783267999999225,None,,,,,,,,00032,001,2026-01-16_12h17.18.732,MST_test,2024.2.0,59.919061339942026,2026-01-16 12h17.33.335964 +0530,
47,0,48,o,1.1017800999979954,None,48,0,47,248.50272590000532,,,,,,,,,,,,,,,,,,,,,,,,,,,,,,,,,,,,,,,,,,,,,,,,,,248.48667189999833,248.50272590000532,248.9877262999944,249.00191629998153,249.02105189999565,249.02105189999565,249.02105189999565,250.1256318000087,Objects\227a.jpg,mid,o,1.1017800999979954,None,,,,,,,,00032,001,2026-01-16_12h17.18.732,MST_test,2024.2.0,59.919061339942026,2026-01-16 12h17.33.335964 +0530,
48,0,49,o,1.0149201000167523,None,49,0,48,250.1418057999981,,,,,,,,,,,,,,,,,,,,,,,,,,,,,,,,,,,,,,,,,,,,,,,,,,250.1257259999984,250.1418057999981,250.6267605999892,250.63793019999866,250.66024959998322,250.66024959998322,250.66024959998322,251.68105889999424,Objects\147b.jpg,pre,o,1.0149201000167523,None,,,,,,,,00032,001,2026-01-16_12h17.18.732,MST_test,2024.2.0,59.919061339942026,2026-01-16 12h17.33.335964 +0530,
49,0,50,s,5.6281332000216935,None,50,0,49,251.69725959998323,,,,,,,,,,,,,,,,,,,,,,,,,,,,,,,,,,,,,,,,,,,,,,,,,,251.6811524000077,251.69725959998323,252.1824040999927,252.19924029998947,252.21571269998094,252.21571269998094,252.21571269998094,257.85291389998747,Objects\288b.jpg,post,s,5.6281332000216935,None,,,,,,,,00032,001,2026-01-16_12h17.18.732,MST_test,2024.2.0,59.919061339942026,2026-01-16 12h17.33.335964 +0530,
50,0,51,n,1.5681344000040554,None,51,0,50,257.8688552999811,,,,,,,,,,,,,,,,,,,,,,,,,,,,,,,,,,,,,,,,,,,,,,,,,,257.8530095999886,257.8688552999811,258.3539430999954,258.3712372999871,258.3871960999968,258.3871960999968,258.3871960999968,259.96007219998864,Foils\097a.jpg,none,n,1.5681344000040554,None,,,,,,,,00032,001,2026-01-16_12h17.18.732,MST_test,2024.2.0,59.919061339942026,2026-01-16 12h17.33.335964 +0530,
51,0,52,n,1.6859903000004124,None,52,0,51,259.9762426999805,,,,,,,,,,,,,,,,,,,,,,,,,,,,,,,,,,,,,,,,,,,,,,,,,,259.96016250000685,259.9762426999805,260.4614104999928,260.47141840000404,260.4946973999904,260.4946973999904,260.4946973999904,262.1844951999956,Objects\031b.jpg,mid,n,1.6859903000004124,None,,,,,,,,00032,001,2026-01-16_12h17.18.732,MST_test,2024.2.0,59.919061339942026,2026-01-16 12h17.33.335964 +0530,
52,0,53,n,1.668458699976327,None,53,0,52,262.2006865000003,,,,,,,,,,,,,,,,,,,,,,,,,,,,,,,,,,,,,,,,,,,,,,,,,,262.18458739999915,262.2006865000003,262.68584429999464,262.6971418999892,262.719285500003,262.719285500003,262.719285500003,264.392571400007,Foils\020b.jpg,none,n,1.668458699976327,None,,,,,,,,00032,001,2026-01-16_12h17.18.732,MST_test,2024.2.0,59.919061339942026,2026-01-16 12h17.33.335964 +0530,
53,0,54,n,1.892847500013886,None,54,0,53,264.4083258000028,,,,,,,,,,,,,,,,,,,,,,,,,,,,,,,,,,,,,,,,,,,,,,,,,,264.3926751999825,264.4083258000028,264.8935158000095,264.904264199984,264.9268807999906,264.9268807999906,264.9268807999906,266.8343028999807,Foils\101b.jpg,none,n,1.892847500013886,None,,,,,,,,00032,001,2026-01-16_12h17.18.732,MST_test,2024.2.0,59.919061339942026,2026-01-16 12h17.33.335964 +0530,
54,0,55,n,0.8113442999892868,None,55,0,54,266.85019679999095,,,,,,,,,,,,,,,,,,,,,,,,,,,,,,,,,,,,,,,,,,,,,,,,,,266.8343952999858,266.85019679999095,267.3355759999831,267.3463525999978,267.3686435999989,267.3686435999989,267.3686435999989,268.1887043000024,Objects\166a.jpg,pre,n,0.8113442999892868,None,,,,,,,,00032,001,2026-01-16_12h17.18.732,MST_test,2024.2.0,59.919061339942026,2026-01-16 12h17.33.335964 +0530,
55,0,56,n,1.639757400000235,None,56,0,55,268.2049360999954,,,,,,,,,,,,,,,,,,,,,,,,,,,,,,,,,,,,,,,,,,,,,,,,,,268.1888004000066,268.2049360999954,268.69014399999287,268.70102479998604,268.72338680000394,268.72338680000394,268.72338680000394,270.3799433000095,Foils\098a.jpg,none,n,1.639757400000235,None,,,,,,,,00032,001,2026-01-16_12h17.18.732,MST_test,2024.2.0,59.919061339942026,2026-01-16 12h17.33.335964 +0530,
56,0,57,s,2.8893496000091545,None,57,0,56,270.3959543000092,,,,,,,,,,,,,,,,,,,,,,,,,,,,,,,,,,,,,,,,,,,,,,,,,,270.38003259999095,270.3959543000092,270.8815360000008,270.8927935999818,270.914417699998,270.914417699998,270.914417699998,273.808649899991,Foils\034a.jpg,none,s,2.8893496000091545,None,,,,,,,,00032,001,2026-01-16_12h17.18.732,MST_test,2024.2.0,59.919061339942026,2026-01-16 12h17.33.335964 +0530,
57,0,58,n,3.828373399999691,None,58,0,57,273.82461710000644,,,,,,,,,,,,,,,,,,,,,,,,,,,,,,,,,,,,,,,,,,,,,,,,,,273.80874109998695,273.82461710000644,274.3097352999903,274.32142960000783,274.3430709000095,274.3430709000095,274.3430709000095,278.17425199999707,Objects\065b.jpg,mid,n,3.828373399999691,None,,,,,,,,00032,001,2026-01-16_12h17.18.732,MST_test,2024.2.0,59.919061339942026,2026-01-16 12h17.33.335964 +0530,
58,0,59,n,1.054675599996699,None,59,0,58,278.19002579999506,,,,,,,,,,,,,,,,,,,,,,,,,,,,,,,,,,,,,,,,,,,,,,,,,,278.17435369998566,278.19002579999506,278.67499949998455,278.6858272999816,278.7084687000024,278.7084687000024,278.7084687000024,279.7797350999899,Objects\161a.jpg,pre,n,1.054675599996699,None,,,,,,,,00032,001,2026-01-16_12h17.18.732,MST_test,2024.2.0,59.919061339942026,2026-01-16 12h17.33.335964 +0530,
59,0,60,o,1.1612744999874849,None,60,0,59,279.7956840999832,,,,,,,,,,,,,,,,,,,,,,,,,,,,,,,,,,,,,,,,,,,,,,,,,,279.77983179999865,279.7956840999832,280.2807394999836,280.2918157999811,280.3139790999994,280.3139790999994,280.3139790999994,281.4854711999942,Objects\175b.jpg,post,o,1.1612744999874849,None,,,,,,,,00032,001,2026-01-16_12h17.18.732,MST_test,2024.2.0,59.919061339942026,2026-01-16 12h17.33.335964 +0530,
60,0,61,o,1.656579000002239,None,61,0,60,281.50162520000595,,,,,,,,,,,,,,,,,,,,,,,,,,,,,,,,,,,,,,,,,,,,,,,,,,281.48556219998864,281.50162520000595,281.9866153000039,282.00342900000396,282.0200734999962,282.0200734999962,282.0200734999962,283.69306429999415,Objects\327a.jpg,post,o,1.656579000002239,None,,,,,,,,00032,001,2026-01-16_12h17.18.732,MST_test,2024.2.0,59.919061339942026,2026-01-16 12h17.33.335964 +0530,
61,0,62,o,0.8953920000058133,None,62,0,61,283.7092330000014,,,,,,,,,,,,,,,,,,,,,,,,,,,,,,,,,,,,,,,,,,,,,,,,,,283.69315609999467,283.7092330000014,284.194445000001,284.2110310999851,284.22780140000395,284.22780140000395,284.22780140000395,285.1316041999962,Objects\281a.jpg,mid,o,0.8953920000058133,None,,,,,,,,00032,001,2026-01-16_12h17.18.732,MST_test,2024.2.0,59.919061339942026,2026-01-16 12h17.33.335964 +0530,
62,0,63,n,1.5058125000214204,None,63,0,62,285.14772169999196,,,,,,,,,,,,,,,,,,,,,,,,,,,,,,,,,,,,,,,,,,,,,,,,,,285.13170549998176,285.14772169999196,285.63269179998315,285.6512819000054,285.6661674999923,285.6661674999923,285.6661674999923,287.18854559998726,Objects\289a.jpg,mid,n,1.5058125000214204,None,,,,,,,,00032,001,2026-01-16_12h17.18.732,MST_test,2024.2.0,59.919061339942026,2026-01-16 12h17.33.335964 +0530,
63,0,64,o,1.5598655000212602,None,64,0,63,287.2050643999828,,,,,,,,,,,,,,,,,,,,,,,,,,,,,,,,,,,,,,,,,,,,,,,,,,287.18863849999616,287.2050643999828,287.68993029999547,287.7056057000009,287.7233830000041,287.7233830000041,287.7233830000041,289.296242899989,Objects\225b.jpg,post,o,1.5598655000212602,None,,,,,,,,00032,001,2026-01-16_12h17.18.732,MST_test,2024.2.0,59.919061339942026,2026-01-16 12h17.33.335964 +0530,
64,0,65,n,1.0366509000014048,None,65,0,64,289.3128344999859,,,,,,,,,,,,,,,,,,,,,,,,,,,,,,,,,,,,,,,,,,,,,,,,,,289.2963388999924,289.3128344999859,289.7975660999946,289.81330419998267,289.83087000000523,289.83087000000523,289.83087000000523,290.8682948999922,Foils\057a.jpg,none,n,1.0366509000014048,None,,,,,,,,00032,001,2026-01-16_12h17.18.732,MST_test,2024.2.0,59.919061339942026,2026-01-16 12h17.33.335964 +0530,
65,0,66,n,2.616471499990439,None,66,0,65,290.8846499999927,,,,,,,,,,,,,,,,,,,,,,,,,,,,,,,,,,,,,,,,,,,,,,,,,,290.86838969998644,290.8846499999927,291.3696166999871,291.38072240000474,291.40298189999885,291.40298189999885,291.40298189999885,294.02930629998446,Foils\105a.jpg,none,n,2.616471499990439,None,,,,,,,,00032,001,2026-01-16_12h17.18.732,MST_test,2024.2.0,59.919061339942026,2026-01-16 12h17.33.335964 +0530,
66,0,67,o,1.1510619000182487,None,67,0,66,294.04553469998064,,,,,,,,,,,,,,,,,,,,,,,,,,,,,,,,,,,,,,,,,,,,,,,,,,294.02939710000646,294.04553469998064,294.5306421999994,294.5417274000065,294.5638818999869,294.5638818999869,294.5638818999869,295.71869599999627,Objects\131a.jpg,post,o,1.1510619000182487,None,,,,,,,,00032,001,2026-01-16_12h17.18.732,MST_test,2024.2.0,59.919061339942026,2026-01-16 12h17.33.335964 +0530,
67,0,68,n,3.2540451000095345,None,68,0,67,295.73477799998363,,,,,,,,,,,,,,,,,,,,,,,,,,,,,,,,,,,,,,,,,,,,,,,,,,295.71878819999984,295.73477799998363,296.2199970000074,296.2305916000041,296.25312740000663,296.25312740000663,296.25312740000663,299.51518240000587,Objects\029b.jpg,post,n,3.2540451000095345,None,,,,,,,,00032,001,2026-01-16_12h17.18.732,MST_test,2024.2.0,59.919061339942026,2026-01-16 12h17.33.335964 +0530,
68,0,69,n,2.665703000006033,None,69,0,68,299.53143380000256,,,,,,,,,,,,,,,,,,,,,,,,,,,,,,,,,,,,,,,,,,,,,,,,,,299.51527460000943,299.53143380000256,300.0165105999913,300.03296889999183,300.04989709999063,300.04989709999063,300.04989709999063,302.72689459999674,Objects\197b.jpg,post,n,2.665703000006033,None,,,,,,,,00032,001,2026-01-16_12h17.18.732,MST_test,2024.2.0,59.919061339942026,2026-01-16 12h17.33.335964 +0530,
69,0,70,n,1.2553416999871843,None,70,0,69,302.74266889999853,,,,,,,,,,,,,,,,,,,,,,,,,,,,,,,,,,,,,,,,,,,,,,,,,,302.7269932999916,302.74266889999853,303.22765129999607,303.24434589999146,303.261128299986,303.261128299986,303.261128299986,304.53274429999874,Foils\002a.jpg,none,n,1.2553416999871843,None,,,,,,,,00032,001,2026-01-16_12h17.18.732,MST_test,2024.2.0,59.919061339942026,2026-01-16 12h17.33.335964 +0530,
70,0,71,s,1.8555083999817725,None,71,0,70,304.54888129999745,,,,,,,,,,,,,,,,,,,,,,,,,,,,,,,,,,,,,,,,,,,,,,,,,,304.53284229998826,304.54888129999745,305.0343482999888,305.0446459999948,305.0674660000077,305.0674660000077,305.0674660000077,306.9247938999906,Objects\089b.jpg,post,s,1.8555083999817725,None,,,,,,,,00032,001,2026-01-16_12h17.18.732,MST_test,2024.2.0,59.919061339942026,2026-01-16 12h17.33.335964 +0530,
71,0,72,s,2.2316925000050105,None,72,0,71,306.94060199998785,,,,,,,,,,,,,,,,,,,,,,,,,,,,,,,,,,,,,,,,,,,,,,,,,,306.92488489998505,306.94060199998785,307.42578890000004,307.4427865000034,307.4592471999931,307.4592471999931,307.4592471999931,309.70094069998595,Objects\381a.jpg,pre,s,2.2316925000050105,None,,,,,,,,00032,001,2026-01-16_12h17.18.732,MST_test,2024.2.0,59.919061339942026,2026-01-16 12h17.33.335964 +0530,
72,0,73,n,4.055978399992455,None,73,0,72,309.7171027000004,,,,,,,,,,,,,,,,,,,,,,,,,,,,,,,,,,,,,,,,,,,,,,,,,,309.7011996000074,309.7171027000004,310.2021695000003,310.21969399999944,310.23555079998914,310.23555079998914,310.23555079998914,314.30049779999536,Objects\282b.jpg,pre,n,4.055978399992455,None,,,,,,,,00032,001,2026-01-16_12h17.18.732,MST_test,2024.2.0,59.919061339942026,2026-01-16 12h17.33.335964 +0530,
73,0,74,n,2.383782399992924,None,74,0,73,314.31653159999405,,,,,,,,,,,,,,,,,,,,,,,,,,,,,,,,,,,,,,,,,,,,,,,,,,314.3005897999974,314.31653159999405,314.80151119999937,314.8126430999837,314.835073299997,314.835073299997,314.835073299997,317.2272010000015,Objects\105b.jpg,post,n,2.383782399992924,None,,,,,,,,00032,001,2026-01-16_12h17.18.732,MST_test,2024.2.0,59.919061339942026,2026-01-16 12h17.33.335964 +0530,
74,0,75,n,1.6573478000063915,None,75,0,74,317.24346749999677,,,,,,,,,,,,,,,,,,,,,,,,,,,,,,,,,,,,,,,,,,,,,,,,,,317.22729270000127,317.24346749999677,317.7290099999809,317.74009740000474,317.7624799000041,317.7624799000041,317.7624799000041,319.4349632000085,Objects\273a.jpg,mid,n,1.6573478000063915,None,,,,,,,,00032,001,2026-01-16_12h17.18.732,MST_test,2024.2.0,59.919061339942026,2026-01-16 12h17.33.335964 +0530,
75,0,76,o,1.673367999988841,None,76,0,75,319.45107809998444,,,,,,,,,,,,,,,,,,,,,,,,,,,,,,,,,,,,,,,,,,,,,,,,,,319.4350591999828,319.45107809998444,319.93624429998454,319.9465445999813,319.969761299988,319.969761299988,319.969761299988,321.6595828999998,Objects\314b.jpg,mid,o,1.673367999988841,None,,,,,,,,00032,001,2026-01-16_12h17.18.732,MST_test,2024.2.0,59.919061339942026,2026-01-16 12h17.33.335964 +0530,
76,0,77,n,4.87368439999409,None,77,0,76,321.67575550000765,,,,,,,,,,,,,,,,,,,,,,,,,,,,,,,,,,,,,,,,,,,,,,,,,,321.65967719999026,321.67575550000765,322.16062779998174,322.1765170999861,322.1940837999864,322.1940837999864,322.1940837999864,327.07839730000705,Objects\254b.jpg,pre,n,4.87368439999409,None,,,,,,,,00032,001,2026-01-16_12h17.18.732,MST_test,2024.2.0,59.919061339942026,2026-01-16 12h17.33.335964 +0530,
77,0,78,n,1.4141732999996748,None,78,0,77,327.09450300000026,,,,,,,,,,,,,,,,,,,,,,,,,,,,,,,,,,,,,,,,,,,,,,,,,,327.0784944999905,327.09450300000026,327.57970050000586,327.5958164999902,327.6131494999863,327.6131494999863,327.6131494999863,329.0352874000091,Objects\151a.jpg,post,n,1.4141732999996748,None,,,,,,,,00032,001,2026-01-16_12h17.18.732,MST_test,2024.2.0,59.919061339942026,2026-01-16 12h17.33.335964 +0530,
78,0,79,s,5.025084299995797,None,79,0,78,329.05148719999124,,,,,,,,,,,,,,,,,,,,,,,,,,,,,,,,,,,,,,,,,,,,,,,,,,329.03538019998814,329.05148719999124,329.536461199983,329.54742540000007,329.5699248999881,329.5699248999881,329.5699248999881,334.60505670000566,Objects\156b.jpg,post,s,5.025084299995797,None,,,,,,,,00032,001,2026-01-16_12h17.18.732,MST_test,2024.2.0,59.919061339942026,2026-01-16 12h17.33.335964 +0530,
79,0,80,o,1.0799347999854945,None,80,0,79,334.62097309998353,,,,,,,,,,,,,,,,,,,,,,,,,,,,,,,,,,,,,,,,,,,,,,,,,,334.6051533999853,334.62097309998353,335.1059709999827,335.11659930000314,335.13942699998734,335.13942699998734,335.13942699998734,336.227210299985,Objects\100a.jpg,pre,o,1.0799347999854945,None,,,,,,,,00032,001,2026-01-16_12h17.18.732,MST_test,2024.2.0,59.919061339942026,2026-01-16 12h17.33.335964 +0530,
80,0,81,o,0.8650639000115916,None,81,0,80,336.2433274000068,,,,,,,,,,,,,,,,,,,,,,,,,,,,,,,,,,,,,,,,,,,,,,,,,,336.227300700004,336.2433274000068,336.7282861999993,336.739330899989,336.7618281999894,336.7618281999894,336.7618281999894,337.63198629999533,Objects\164b.jpg,pre,o,0.8650639000115916,None,,,,,,,,00032,001,2026-01-16_12h17.18.732,MST_test,2024.2.0,59.919061339942026,2026-01-16 12h17.33.335964 +0530,
81,0,82,o,0.6933312000182923,None,82,0,81,337.64846510000643,,,,,,,,,,,,,,,,,,,,,,,,,,,,,,,,,,,,,,,,,,,,,,,,,,337.6320735999907,337.64846510000643,338.13346670000465,338.150458899996,338.1665667000052,338.1665667000052,338.1665667000052,338.8699949999864,Objects\265a.jpg,post,o,0.6933312000182923,None,,,,,,,,00032,001,2026-01-16_12h17.18.732,MST_test,2024.2.0,59.919061339942026,2026-01-16 12h17.33.335964 +0530,
82,0,83,o,0.6874189999944065,None,83,0,82,338.8860006000032,,,,,,,,,,,,,,,,,,,,,,,,,,,,,,,,,,,,,,,,,,,,,,,,,,338.87008590000914,338.8860006000032,339.370895,339.3886674999958,339.40435939998133,339.40435939998133,339.40435939998133,340.10747679998167,Objects\178b.jpg,post,o,0.6874189999944065,None,,,,,,,,00032,001,2026-01-16_12h17.18.732,MST_test,2024.2.0,59.919061339942026,2026-01-16 12h17.33.335964 +0530,
83,0,84,n,1.3537554999929853,None,84,0,83,340.1234532999806,,,,,,,,,,,,,,,,,,,,,,,,,,,,,,,,,,,,,,,,,,,,,,,,,,340.107569099986,340.1234532999806,340.60872079999535,340.62437710000086,340.6419002999901,340.6419002999901,340.6419002999901,341.9974532999913,Objects\233a.jpg,post,n,1.3537554999929853,None,,,,,,,,00032,001,2026-01-16_12h17.18.732,MST_test,2024.2.0,59.919061339942026,2026-01-16 12h17.33.335964 +0530,
84,0,85,o,1.0400823000236414,None,85,0,84,342.0134060999844,,,,,,,,,,,,,,,,,,,,,,,,,,,,,,,,,,,,,,,,,,,,,,,,,,341.9975468000048,342.0134060999844,342.49860359999,342.51330309998593,342.5318639999896,342.5318639999896,342.5318639999896,343.58641419999185,Objects\309b.jpg,pre,o,1.0400823000236414,None,,,,,,,,00032,001,2026-01-16_12h17.18.732,MST_test,2024.2.0,59.919061339942026,2026-01-16 12h17.33.335964 +0530,
85,0,86,n,2.8741725999861956,None,86,0,85,343.6022961999988,,,,,,,,,,,,,,,,,,,,,,,,,,,,,,,,,,,,,,,,,,,,,,,,,,343.58650219999254,343.6022961999988,344.0875117999967,344.1044549999933,344.1209070000041,344.1209070000041,344.1209070000041,346.99831500000437,Foils\058a.jpg,none,n,2.8741725999861956,None,,,,,,,,00032,001,2026-01-16_12h17.18.732,MST_test,2024.2.0,59.919061339942026,2026-01-16 12h17.33.335964 +0530,
86,0,87,n,0.8939935000089463,None,87,0,86,347.0143784999964,,,,,,,,,,,,,,,,,,,,,,,,,,,,,,,,,,,,,,,,,,,,,,,,,,346.99840559999575,347.0143784999964,347.4994781999849,347.51255590000073,347.53290210000705,347.53290210000705,347.53290210000705,348.4365732999868,Foils\106a.jpg,none,n,0.8939935000089463,None,,,,,,,,00032,001,2026-01-16_12h17.18.732,MST_test,2024.2.0,59.919061339942026,2026-01-16 12h17.33.335964 +0530,
87,0,88,n,0.8957499000243843,None,88,0,87,348.4527446999855,,,,,,,,,,,,,,,,,,,,,,,,,,,,,,,,,,,,,,,,,,,,,,,,,,348.43666390000726,348.4527446999855,348.9377056999947,348.95508600000176,348.97121759998845,348.97121759998845,348.97121759998845,349.8748518000066,Objects\302a.jpg,pre,n,0.8957499000243843,None,,,,,,,,00032,001,2026-01-16_12h17.18.732,MST_test,2024.2.0,59.919061339942026,2026-01-16 12h17.33.335964 +0530,
88,0,89,n,1.2102803000016138,None,89,0,88,349.8910006000078,,,,,,,,,,,,,,,,,,,,,,,,,,,,,,,,,,,,,,,,,,,,,,,,,,349.8749448999879,349.8910006000078,350.3761947999883,350.3926963999984,350.4094403999916,350.4094403999916,350.4094403999916,351.6310683999909,Objects\350a.jpg,post,n,1.2102803000016138,None,,,,,,,,00032,001,2026-01-16_12h17.18.732,MST_test,2024.2.0,59.919061339942026,2026-01-16 12h17.33.335964 +0530,
89,0,90,s,2.75790510000661,None,90,0,89,351.64714479999384,,,,,,,,,,,,,,,,,,,,,,,,,,,,,,,,,,,,,,,,,,,,,,,,,,351.6311649999989,351.64714479999384,352.13233009999385,352.1494135999819,352.1655991000007,352.1655991000007,352.1655991000007,354.9266188000038,Objects\189a.jpg,mid,s,2.75790510000661,None,,,,,,,,00032,001,2026-01-16_12h17.18.732,MST_test,2024.2.0,59.919061339942026,2026-01-16 12h17.33.335964 +0530,
90,0,91,s,1.3342874000081792,None,91,0,90,354.94203279999783,,,,,,,,,,,,,,,,,,,,,,,,,,,,,,,,,,,,,,,,,,,,,,,,,,354.92671430000337,354.94203279999783,355.42721580000944,355.4383345999813,355.4605806999898,355.4605806999898,355.4605806999898,356.7990529999952,Objects\039a.jpg,post,s,1.3342874000081792,None,,,,,,,,00032,001,2026-01-16_12h17.18.732,MST_test,2024.2.0,59.919061339942026,2026-01-16 12h17.33.335964 +0530,
91,0,92,n,1.0216611000068951,None,92,0,91,356.8153517000028,,,,,,,,,,,,,,,,,,,,,,,,,,,,,,,,,,,,,,,,,,,,,,,,,,356.7991475999879,356.8153517000028,357.30054309999105,357.3117504999973,357.3336705999973,357.3336705999973,357.3336705999973,358.3714675999945,Foils\090a.jpg,none,n,1.0216611000068951,None,,,,,,,,00032,001,2026-01-16_12h17.18.732,MST_test,2024.2.0,59.919061339942026,2026-01-16 12h17.33.335964 +0530,
92,0,93,o,1.0500139000068884,None,93,0,92,358.387731099996,,,,,,,,,,,,,,,,,,,,,,,,,,,,,,,,,,,,,,,,,,,,,,,,,,358.3715661999886,358.387731099996,358.8724900999805,358.8832706999965,358.9059762999823,358.9059762999823,358.9059762999823,359.9604410000029,Objects\027a.jpg,mid,o,1.0500139000068884,None,,,,,,,,00032,001,2026-01-16_12h17.18.732,MST_test,2024.2.0,59.919061339942026,2026-01-16 12h17.33.335964 +0530,
93,0,94,n,1.0924162000010256,None,94,0,93,359.97642729998915,,,,,,,,,,,,,,,,,,,,,,,,,,,,,,,,,,,,,,,,,,,,,,,,,,359.9605304999859,359.97642729998915,360.46143359999405,360.4721993999847,360.4950031999906,360.4950031999906,360.4950031999906,361.59941619998426,Foils\017a.jpg,none,n,1.0924162000010256,None,,,,,,,,00032,001,2026-01-16_12h17.18.732,MST_test,2024.2.0,59.919061339942026,2026-01-16 12h17.33.335964 +0530,
94,0,95,n,1.1649920000054408,None,95,0,94,361.61537650000537,,,,,,,,,,,,,,,,,,,,,,,,,,,,,,,,,,,,,,,,,,,,,,,,,,361.59951529998216,361.61537650000537,362.10060839998187,362.1156469999987,362.1338326999976,362.1338326999976,362.1338326999976,363.3055761999858,Objects\262a.jpg,post,n,1.1649920000054408,None,,,,,,,,00032,001,2026-01-16_12h17.18.732,MST_test,2024.2.0,59.919061339942026,2026-01-16 12h17.33.335964 +0530,
95,0,96,s,1.9072828999778721,None,96,0,95,363.3214767999889,,,,,,,,,,,,,,,,,,,,,,,,,,,,,,,,,,,,,,,,,,,,,,,,,,363.3056671000086,363.3214767999889,363.80643039999995,363.82414670000435,363.8399275999982,363.8399275999982,363.8399275999982,365.7637942000001,Objects\360b.jpg,mid,s,1.9072828999778721,None,,,,,,,,00032,001,2026-01-16_12h17.18.732,MST_test,2024.2.0,59.919061339942026,2026-01-16 12h17.33.335964 +0530,
96,0,97,n,2.2645975000050385,None,97,0,96,365.78009230000316,,,,,,,,,,,,,,,,,,,,,,,,,,,,,,,,,,,,,,,,,,,,,,,,,,365.76388700000825,365.78009230000316,366.26521660000435,366.28271249998943,366.29854960000375,366.29854960000375,366.29854960000375,368.5736900999909,Objects\223a.jpg,post,n,2.2645975000050385,None,,,,,,,,00032,001,2026-01-16_12h17.18.732,MST_test,2024.2.0,59.919061339942026,2026-01-16 12h17.33.335964 +0530,
97,0,98,s,1.566359000018565,None,98,0,97,368.5899264999898,,,,,,,,,,,,,,,,,,,,,,,,,,,,,,,,,,,,,,,,,,,,,,,,,,368.57378730000346,368.5899264999898,369.07488949998515,369.0859385000076,369.10849210000015,369.10849210000015,369.10849210000015,370.6814876999997,Objects\014b.jpg,pre,s,1.566359000018565,None,,,,,,,,00032,001,2026-01-16_12h17.18.732,MST_test,2024.2.0,59.919061339942026,2026-01-16 12h17.33.335964 +0530,
98,0,99,s,1.747894100000849,None,99,0,98,370.69716999999946,,,,,,,,,,,,,,,,,,,,,,,,,,,,,,,,,,,,,,,,,,,,,,,,,,370.68157889999566,370.69716999999946,371.1825595999835,371.1970084999921,371.2156403999834,371.2156403999834,371.2156403999834,372.97271539998474,Objects\336b.jpg,post,s,1.747894100000849,None,,,,,,,,00032,001,2026-01-16_12h17.18.732,MST_test,2024.2.0,59.919061339942026,2026-01-16 12h17.33.335964 +0530,
99,0,100,s,1.5043594000162557,None,100,0,99,372.98853649999364,,,,,,,,,,,,,,,,,,,,,,,,,,,,,,,,,,,,,,,,,,,,,,,,,,372.97281780000776,372.98853649999364,373.4737752999936,373.49083599998266,373.50699999998324,373.50699999998324,373.50699999998324,375.01323139999295,Objects\322b.jpg,pre,s,1.5043594000162557,None,,,,,,,,00032,001,2026-01-16_12h17.18.732,MST_test,2024.2.0,59.919061339942026,2026-01-16 12h17.33.335964 +0530,
100,0,101,n,1.7593159999814816,None,101,0,100,375.0292637000093,,,,,,,,,,,,,,,,,,,,,,,,,,,,,,,,,,,,,,,,,,,,,,,,,,375.01332500000717,375.0292637000093,375.5141117000021,375.5313881000038,375.5477014000062,375.5477014000062,375.5477014000062,377.32136539998464,Foils\082a.jpg,none,n,1.7593159999814816,None,,,,,,,,00032,001,2026-01-16_12h17.18.732,MST_test,2024.2.0,59.919061339942026,2026-01-16 12h17.33.335964 +0530,
101,0,102,n,1.0597597000014503,None,102,0,101,377.3372320999915,,,,,,,,,,,,,,,,,,,,,,,,,,,,,,,,,,,,,,,,,,,,,,,,,,377.3214572999859,377.3372320999915,377.82231019999017,377.8356104999839,377.8555515999906,377.8555515999906,377.8555515999906,378.9267370000016,Foils\f6.jpg,none,n,1.0597597000014503,None,,,,,,,,00032,001,2026-01-16_12h17.18.732,MST_test,2024.2.0,59.919061339942026,2026-01-16 12h17.33.335964 +0530,
102,0,103,n,2.245876100001624,None,103,0,102,378.9429388999997,,,,,,,,,,,,,,,,,,,,,,,,,,,,,,,,,,,,,,,,,,,,,,,,,,378.92683179999585,378.9429388999997,379.427838899981,379.4415410000074,379.46128869999666,379.46128869999666,379.46128869999666,381.7197877999861,Foils\f7.jpg,none,n,2.245876100001624,None,,,,,,,,00032,001,2026-01-16_12h17.18.732,MST_test,2024.2.0,59.919061339942026,2026-01-16 12h17.33.335964 +0530,
103,0,104,n,2.7889939000015147,None,104,0,103,381.73610599999665,,,,,,,,,,,,,,,,,,,,,,,,,,,,,,,,,,,,,,,,,,,,,,,,,,381.71987840000656,381.73610599999665,382.22096119998605,382.23798689999967,382.25440549998893,382.25440549998893,382.25440549998893,385.04824199998984,Objects\280a.jpg,pre,n,2.7889939000015147,None,,,,,,,,00032,001,2026-01-16_12h17.18.732,MST_test,2024.2.0,59.919061339942026,2026-01-16 12h17.33.335964 +0530,
104,0,105,n,1.0048373000172433,None,105,0,104,385.06415419999394,,,,,,,,,,,,,,,,,,,,,,,,,,,,,,,,,,,,,,,,,,,,,,,,,,385.0483365999826,385.06415419999394,385.54938109999057,385.5605707000068,385.58262080000713,385.58262080000713,385.58262080000713,386.6036086999811,Objects\070a.jpg,post,n,1.0048373000172433,None,,,,,,,,00032,001,2026-01-16_12h17.18.732,MST_test,2024.2.0,59.919061339942026,2026-01-16 12h17.33.335964 +0530,
105,0,106,s,2.1688988000096288,None,106,0,105,386.61953500000527,,,,,,,,,,,,,,,,,,,,,,,,,,,,,,,,,,,,,,,,,,,,,,,,,,386.6036991000001,386.61953500000527,387.10479879999184,387.11591079999926,387.13819649998914,387.13819649998914,387.13819649998914,389.31303649998154,Foils\086a.jpg,none,s,2.1688988000096288,None,,,,,,,,00032,001,2026-01-16_12h17.18.732,MST_test,2024.2.0,59.919061339942026,2026-01-16 12h17.33.335964 +0530,
106,0,107,s,1.2516940000059549,None,107,0,106,389.32909590000054,,,,,,,,,,,,,,,,,,,,,,,,,,,,,,,,,,,,,,,,,,,,,,,,,,389.3131318000087,389.32909590000054,389.81461239999044,389.8256013999926,389.8476706999936,389.8476706999936,389.8476706999936,391.1026592999988,Objects\007b.jpg,pre,s,1.2516940000059549,None,,,,,,,,00032,001,2026-01-16_12h17.18.732,MST_test,2024.2.0,59.919061339942026,2026-01-16 12h17.33.335964 +0530,
107,0,108,n,1.0778468000062276,None,108,0,107,391.1188342999958,,,,,,,,,,,,,,,,,,,,,,,,,,,,,,,,,,,,,,,,,,,,,,,,,,391.1027489999833,391.1188342999958,391.60395889999927,391.6148575999832,391.63726889999816,391.63726889999816,391.63726889999816,392.7247467999987,Objects\023a.jpg,post,n,1.0778468000062276,None,,,,,,,,00032,001,2026-01-16_12h17.18.732,MST_test,2024.2.0,59.919061339942026,2026-01-16 12h17.33.335964 +0530,
108,0,109,s,1.3375676999858115,None,109,0,108,392.7414468000061,,,,,,,,,,,,,,,,,,,,,,,,,,,,,,,,,,,,,,,,,,,,,,,,,,392.7248385999992,392.7414468000061,393.2265438000031,393.2423545999918,393.2596096000052,393.2596096000052,393.2596096000052,394.5984751000069,Objects\365b.jpg,pre,s,1.3375676999858115,None,,,,,,,,00032,001,2026-01-16_12h17.18.732,MST_test,2024.2.0,59.919061339942026,2026-01-16 12h17.33.335964 +0530,
109,0,110,o,1.4305176000052597,None,110,0,109,394.614414199983,,,,,,,,,,,,,,,,,,,,,,,,,,,,,,,,,,,,,,,,,,,,,,,,,,394.59856990000117,394.614414199983,395.0996452999825,395.11558919999516,395.13271249999525,395.13271249999525,395.13271249999525,396.5716906999878,Objects\379a.jpg,mid,o,1.4305176000052597,None,,,,,,,,00032,001,2026-01-16_12h17.18.732,MST_test,2024.2.0,59.919061339942026,2026-01-16 12h17.33.335964 +0530,
110,0,111,n,1.0654500999953598,None,111,0,110,396.58797849999974,,,,,,,,,,,,,,,,,,,,,,,,,,,,,,,,,,,,,,,,,,,,,,,,,,396.5717844000028,396.58797849999974,397.07296639998094,397.0840622999822,397.1064078999916,397.1064078999916,397.1064078999916,398.1774827000045,Foils\042a.jpg,none,n,1.0654500999953598,None,,,,,,,,00032,001,2026-01-16_12h17.18.732,MST_test,2024.2.0,59.919061339942026,2026-01-16 12h17.33.335964 +0530,
111,0,112,s,2.14794319999055,None,112,0,111,398.19345580000663,,,,,,,,,,,,,,,,,,,,,,,,,,,,,,,,,,,,,,,,,,,,,,,,,,398.1775781000033,398.19345580000663,398.67872979998356,398.6899780999811,398.711914399988,398.711914399988,398.711914399988,400.8701560999907,Objects\182b.jpg,mid,s,2.14794319999055,None,,,,,,,,00032,001,2026-01-16_12h17.18.732,MST_test,2024.2.0,59.919061339942026,2026-01-16 12h17.33.335964 +0530,
112,0,113,o,1.1668961999821477,None,113,0,112,400.88635670000804,,,,,,,,,,,,,,,,,,,,,,,,,,,,,,,,,,,,,,,,,,,,,,,,,,400.87025199999334,400.88635670000804,401.3713210999849,401.3829878999968,401.4048014,401.4048014,401.4048014,402.57651529999566,Objects\140a.jpg,post,o,1.1668961999821477,None,,,,,,,,00032,001,2026-01-16_12h17.18.732,MST_test,2024.2.0,59.919061339942026,2026-01-16 12h17.33.335964 +0530,
113,0,114,n,1.0126771999930497,None,114,0,113,402.5922187999822,,,,,,,,,,,,,,,,,,,,,,,,,,,,,,,,,,,,,,,,,,,,,,,,,,402.57660850000684,402.5922187999822,403.0774184000038,403.09111710000434,403.1106530999823,403.1106530999823,403.1106530999823,404.13162040000316,Objects\270a.jpg,pre,n,1.0126771999930497,None,,,,,,,,00032,001,2026-01-16_12h17.18.732,MST_test,2024.2.0,59.919061339942026,2026-01-16 12h17.33.335964 +0530,
114,0,115,n,3.6168609999876935,None,115,0,114,404.14766250000685,,,,,,,,,,,,,,,,,,,,,,,,,,,,,,,,,,,,,,,,,,,,,,,,,,404.1317077999993,404.14766250000685,404.63284889998613,404.6490291999944,404.66610040000523,404.66610040000523,404.66610040000523,408.2961213999952,Objects\109a.jpg,pre,n,3.6168609999876935,None,,,,,,,,00032,001,2026-01-16_12h17.18.732,MST_test,2024.2.0,59.919061339942026,2026-01-16 12h17.33.335964 +0530,
115,0,116,n,2.9100392000109423,None,116,0,115,408.3127480999974,,,,,,,,,,,,,,,,,,,,,,,,,,,,,,,,,,,,,,,,,,,,,,,,,,408.2962159999879,408.3127480999974,408.7976198999968,408.8105139999825,408.8307089000009,408.8307089000009,408.8307089000009,411.74150539998664,Objects\229b.jpg,mid,n,2.9100392000109423,None,,,,,,,,00032,001,2026-01-16_12h17.18.732,MST_test,2024.2.0,59.919061339942026,2026-01-16 12h17.33.335964 +0530,
116,0,117,n,1.0399101999937557,None,117,0,116,411.75778240000363,,,,,,,,,,,,,,,,,,,,,,,,,,,,,,,,,,,,,,,,,,,,,,,,,,411.74159699998563,411.75778240000363,412.2428368999972,412.2547445000091,412.2760821999982,412.2760821999982,412.2760821999982,413.3303495,Objects\123b.jpg,post,n,1.0399101999937557,None,,,,,,,,00032,001,2026-01-16_12h17.18.732,MST_test,2024.2.0,59.919061339942026,2026-01-16 12h17.33.335964 +0530,
117,0,118,n,1.338580900017405,None,118,0,117,413.3465412000078,,,,,,,,,,,,,,,,,,,,,,,,,,,,,,,,,,,,,,,,,,,,,,,,,,413.3304385000083,413.3465412000078,413.83191989999614,413.84314209999866,413.8649665999983,413.8649665999983,413.8649665999983,415.22042900000815,Foils\113a.jpg,none,n,1.338580900017405,None,,,,,,,,00032,001,2026-01-16_12h17.18.732,MST_test,2024.2.0,59.919061339942026,2026-01-16 12h17.33.335964 +0530,
118,0,119,n,1.0886985000106506,None,119,0,118,415.23647909998544,,,,,,,,,,,,,,,,,,,,,,,,,,,,,,,,,,,,,,,,,,,,,,,,,,415.22051539999666,415.23647909998544,415.7216816,415.7322324999841,415.75493019999703,415.75493019999703,415.75493019999703,416.8594904000056,Foils\026a.jpg,none,n,1.0886985000106506,None,,,,,,,,00032,001,2026-01-16_12h17.18.732,MST_test,2024.2.0,59.919061339942026,2026-01-16 12h17.33.335964 +0530,
119,0,120,n,1.017004099994665,None,120,0,119,416.8756699000078,,,,,,,,,,,,,,,,,,,,,,,,,,,,,,,,,,,,,,,,,,,,,,,,,,416.8595820000046,416.8756699000078,417.36062550000497,417.3716611999844,417.39411769999424,417.39411769999424,417.39411769999424,418.41496480000205,Objects\091a.jpg,mid,n,1.017004099994665,None,,,,,,,,00032,001,2026-01-16_12h17.18.732,MST_test,2024.2.0,59.919061339942026,2026-01-16 12h17.33.335964 +0530,
120,0,121,s,0.9180257999978494,None,121,0,120,418.431264999992,,,,,,,,,,,,,,,,,,,,,,,,,,,,,,,,,,,,,,,,,,,,,,,,,,418.41506159998244,418.431264999992,418.91650809999555,418.92739659998915,418.94958319998113,418.94958319998113,418.94958319998113,419.8699102999817,Objects\111a.jpg,post,s,0.9180257999978494,None,,,,,,,,00032,001,2026-01-16_12h17.18.732,MST_test,2024.2.0,59.919061339942026,2026-01-16 12h17.33.335964 +0530,
121,0,122,n,1.5360622000007425,None,122,0,121,419.8862250999955,,,,,,,,,,,,,,,,,,,,,,,,,,,,,,,,,,,,,,,,,,,,,,,,,,419.8700017000083,419.8862250999955,420.37130369999795,420.3824173999892,420.40479319999577,420.40479319999577,420.40479319999577,421.94418429999496,Objects\180b.jpg,post,n,1.5360622000007425,None,,,,,,,,00032,001,2026-01-16_12h17.18.732,MST_test,2024.2.0,59.919061339942026,2026-01-16 12h17.33.335964 +0530,
122,0,123,n,0.9807079999882262,None,123,0,122,421.96003469999414,,,,,,,,,,,,,,,,,,,,,,,,,,,,,,,,,,,,,,,,,,,,,,,,,,421.9442740000086,421.96003469999414,422.4452791000076,422.45589939999627,422.4784708000079,422.4784708000079,422.4784708000079,423.4658255999966,Objects\307b.jpg,mid,n,0.9807079999882262,None,,,,,,,,00032,001,2026-01-16_12h17.18.732,MST_test,2024.2.0,59.919061339942026,2026-01-16 12h17.33.335964 +0530,
123,0,124,n,1.0268447999842465,None,124,0,123,423.482016199996,,,,,,,,,,,,,,,,,,,,,,,,,,,,,,,,,,,,,,,,,,,,,,,,,,423.46591659999103,423.482016199996,423.96725309998146,423.97907299999497,424.00047410000116,424.00047410000116,424.00047410000116,425.0382921999844,Objects\275b.jpg,mid,n,1.0268447999842465,None,,,,,,,,00032,001,2026-01-16_12h17.18.732,MST_test,2024.2.0,59.919061339942026,2026-01-16 12h17.33.335964 +0530,
124,0,125,n,3.6944140999985393,None,125,0,124,425.054321100004,,,,,,,,,,,,,,,,,,,,,,,,,,,,,,,,,,,,,,,,,,,,,,,,,,425.0383986000088,425.054321100004,425.5394958999823,425.55067480000434,425.57276199999615,425.57276199999615,425.57276199999615,429.269718800002,Foils\081a.jpg,none,n,3.6944140999985393,None,,,,,,,,00032,001,2026-01-16_12h17.18.732,MST_test,2024.2.0,59.919061339942026,2026-01-16 12h17.33.335964 +0530,
125,0,126,s,1.7835330000089016,None,126,0,125,429.285684100003,,,,,,,,,,,,,,,,,,,,,,,,,,,,,,,,,,,,,,,,,,,,,,,,,,429.2698173999961,429.285684100003,429.7708813000063,429.78181909999694,429.8041361999931,429.8041361999931,429.8041361999931,431.59446089999983,Objects\013a.jpg,mid,s,1.7835330000089016,None,,,,,,,,00032,001,2026-01-16_12h17.18.732,MST_test,2024.2.0,59.919061339942026,2026-01-16 12h17.33.335964 +0530,
126,0,127,n,1.5626073000021279,None,127,0,126,431.6104818999884,,,,,,,,,,,,,,,,,,,,,,,,,,,,,,,,,,,,,,,,,,,,,,,,,,431.59455089998664,431.6104818999884,432.0956896999851,432.10681939998176,432.12893410000834,432.12893410000834,432.12893410000834,433.7020010999986,Objects\015a.jpg,post,n,1.5626073000021279,None,,,,,,,,00032,001,2026-01-16_12h17.18.732,MST_test,2024.2.0,59.919061339942026,2026-01-16 12h17.33.335964 +0530,
127,0,128,n,1.8872042000002693,None,128,0,127,433.71798459999263,,,,,,,,,,,,,,,,,,,,,,,,,,,,,,,,,,,,,,,,,,,,,,,,,,433.7020944999822,433.71798459999263,434.2029840000032,434.2186868999852,434.2364295999869,434.2364295999869,434.2364295999869,436.1270822999941,Objects\207b.jpg,post,n,1.8872042000002693,None,,,,,,,,00032,001,2026-01-16_12h17.18.732,MST_test,2024.2.0,59.919061339942026,2026-01-16 12h17.33.335964 +0530,
128,0,129,n,2.2461240999982692,None,129,0,128,436.1431457999861,,,,,,,,,,,,,,,,,,,,,,,,,,,,,,,,,,,,,,,,,,,,,,,,,,436.12717140000314,436.1431457999861,436.629096699995,436.64651739998953,436.66147069999715,436.66147069999715,436.66147069999715,438.92066020000493,Foils\033a.jpg,none,n,2.2461240999982692,None,,,,,,,,00032,001,2026-01-16_12h17.18.732,MST_test,2024.2.0,59.919061339942026,2026-01-16 12h17.33.335964 +0530,
129,0,130,n,1.8040528999990784,None,130,0,129,438.93683339998825,,,,,,,,,,,,,,,,,,,,,,,,,,,,,,,,,,,,,,,,,,,,,,,,,,438.92077480000444,438.93683339998825,439.4213487999805,439.4329679000075,439.4547072999994,439.4547072999994,439.4547072999994,441.26169509999454,Objects\067b.jpg,mid,n,1.8040528999990784,None,,,,,,,,00032,001,2026-01-16_12h17.18.732,MST_test,2024.2.0,59.919061339942026,2026-01-16 12h17.33.335964 +0530,
130,0,131,o,1.5920894999871962,None,131,0,130,441.27780290000373,,,,,,,,,,,,,,,,,,,,,,,,,,,,,,,,,,,,,,,,,,,,,,,,,,441.26179079999565,441.27780290000373,441.76290770000196,441.77336829999695,441.7962390999892,441.7962390999892,441.7962390999892,443.4024611999921,Objects\141a.jpg,mid,o,1.5920894999871962,None,,,,,,,,00032,001,2026-01-16_12h17.18.732,MST_test,2024.2.0,59.919061339942026,2026-01-16 12h17.33.335964 +0530,
131,0,132,n,2.898167099978309,None,132,0,131,443.4185052999819,,,,,,,,,,,,,,,,,,,,,,,,,,,,,,,,,,,,,,,,,,,,,,,,,,443.40255139998044,443.4185052999819,443.9037190999952,443.91387970000505,443.9369493999984,443.9369493999984,443.9369493999984,446.847835499997,Foils\050a.jpg,none,n,2.898167099978309,None,,,,,,,,00032,001,2026-01-16_12h17.18.732,MST_test,2024.2.0,59.919061339942026,2026-01-16 12h17.33.335964 +0530,
132,0,133,o,3.6299911999958567,None,133,0,132,446.86401590000605,,,,,,,,,,,,,,,,,,,,,,,,,,,,,,,,,,,,,,,,,,,,,,,,,,446.8479293999844,446.86401590000605,447.34897560000536,447.36058049998246,447.3824602999957,447.3824602999957,447.3824602999957,451.0291479000007,Objects\219a.jpg,post,o,3.6299911999958567,None,,,,,,,,00032,001,2026-01-16_12h17.18.732,MST_test,2024.2.0,59.919061339942026,2026-01-16 12h17.33.335964 +0530,
133,0,134,n,2.0077233999909367,None,134,0,133,451.04520090000005,,,,,,,,,,,,,,,,,,,,,,,,,,,,,,,,,,,,,,,,,,,,,,,,,,451.0292385999928,451.04520090000005,451.53042870000354,451.54156139999395,451.56366719998186,451.56366719998186,451.56366719998186,453.58817969998927,Objects\095b.jpg,post,n,2.0077233999909367,None,,,,,,,,00032,001,2026-01-16_12h17.18.732,MST_test,2024.2.0,59.919061339942026,2026-01-16 12h17.33.335964 +0530,
134,0,135,o,3.7445426999765914,None,135,0,134,453.6041681999923,,,,,,,,,,,,,,,,,,,,,,,,,,,,,,,,,,,,,,,,,,,,,,,,,,453.58827629999723,453.6041681999923,454.0894318000064,454.1001946000033,454.1226142999949,454.1226142999949,454.1226142999949,457.86986209999304,Objects\060b.jpg,mid,o,3.7445426999765914,None,,,,,,,,00032,001,2026-01-16_12h17.18.732,MST_test,2024.2.0,59.919061339942026,2026-01-16 12h17.33.335964 +0530,
135,0,136,n,0.7993396999954712,None,136,0,135,457.88583399998606,,,,,,,,,,,,,,,,,,,,,,,,,,,,,,,,,,,,,,,,,,,,,,,,,,457.8699527999852,457.88583399998606,458.37103589999606,458.38244600000326,458.4042802999902,458.4042802999902,458.4042802999902,459.2077706999844,Foils\010a.jpg,none,n,0.7993396999954712,None,,,,,,,,00032,001,2026-01-16_12h17.18.732,MST_test,2024.2.0,59.919061339942026,2026-01-16 12h17.33.335964 +0530,
136,0,137,s,1.0692951999953948,None,137,0,136,459.2241107999871,,,,,,,,,,,,,,,,,,,,,,,,,,,,,,,,,,,,,,,,,,,,,,,,,,459.2078685000015,459.2241107999871,459.7089493999956,459.7199083000014,459.74257289999514,459.74257289999514,459.74257289999514,460.8142650999944,Objects\032b.jpg,post,s,1.0692951999953948,None,,,,,,,,00032,001,2026-01-16_12h17.18.732,MST_test,2024.2.0,59.919061339942026,2026-01-16 12h17.33.335964 +0530,
137,0,138,s,1.3833009999943897,None,138,0,137,460.82959649999975,,,,,,,,,,,,,,,,,,,,,,,,,,,,,,,,,,,,,,,,,,,,,,,,,,460.81435549998423,460.82959649999975,461.3145924999844,461.3257105000084,461.34803520000423,461.34803520000423,461.34803520000423,462.73745580000104,Objects\121b.jpg,mid,s,1.3833009999943897,None,,,,,,,,00032,001,2026-01-16_12h17.18.732,MST_test,2024.2.0,59.919061339942026,2026-01-16 12h17.33.335964 +0530,
138,0,139,n,1.1010276000015438,None,139,0,138,462.7530055999814,,,,,,,,,,,,,,,,,,,,,,,,,,,,,,,,,,,,,,,,,,,,,,,,,,462.7375666000007,462.7530055999814,463.238008299988,463.2484587999934,463.271679700003,463.271679700003,463.271679700003,464.375692600006,Foils\121a.jpg,none,n,1.1010276000015438,None,,,,,,,,00032,001,2026-01-16_12h17.18.732,MST_test,2024.2.0,59.919061339942026,2026-01-16 12h17.33.335964 +0530,
139,0,140,o,1.0612920999992639,None,140,0,139,464.3920657999988,,,,,,,,,,,,,,,,,,,,,,,,,,,,,,,,,,,,,,,,,,,,,,,,,,464.3757886000094,464.3920657999988,464.87731179999537,464.89507929998217,464.91038739998476,464.91038739998476,464.91038739998476,465.981723600009,Objects\326b.jpg,pre,o,1.0612920999992639,None,,,,,,,,00032,001,2026-01-16_12h17.18.732,MST_test,2024.2.0,59.919061339942026,2026-01-16 12h17.33.335964 +0530,
140,0,141,n,2.6654522999888286,None,141,0,140,465.99834190000547,,,,,,,,,,,,,,,,,,,,,,,,,,,,,,,,,,,,,,,,,,,,,,,,,,465.98181939998176,465.99834190000547,466.482688899996,466.49905969999963,466.5161412000016,466.5161412000016,466.5161412000016,469.19283640000504,Objects\258a.jpg,post,n,2.6654522999888286,None,,,,,,,,00032,001,2026-01-16_12h17.18.732,MST_test,2024.2.0,59.919061339942026,2026-01-16 12h17.33.335964 +0530,
141,0,142,s,0.979611400020076,None,142,0,141,469.2090188000002,,,,,,,,,,,,,,,,,,,,,,,,,,,,,,,,,,,,,,,,,,,,,,,,,,469.19293469999684,469.2090188000002,469.6940377999854,469.7129881999863,469.727733799984,469.727733799984,469.727733799984,470.7148545999953,Objects\153b.jpg,mid,s,0.979611400020076,None,,,,,,,,00032,001,2026-01-16_12h17.18.732,MST_test,2024.2.0,59.919061339942026,2026-01-16 12h17.33.335964 +0530,
142,0,143,n,1.2577913999848533,None,143,0,142,470.73080520000076,,,,,,,,,,,,,,,,,,,,,,,,,,,,,,,,,,,,,,,,,,,,,,,,,,470.7149464999966,470.73080520000076,471.2160116999876,471.22855709999567,471.2492424999946,471.2492424999946,471.2492424999946,472.5210271999822,Objects\118b.jpg,pre,n,1.2577913999848533,None,,,,,,,,00032,001,2026-01-16_12h17.18.732,MST_test,2024.2.0,59.919061339942026,2026-01-16 12h17.33.335964 +0530,
143,0,144,n,0.9478923999995459,None,144,0,143,472.53713589999825,,,,,,,,,,,,,,,,,,,,,,,,,,,,,,,,,,,,,,,,,,,,,,,,,,472.5211258000054,472.53713589999825,473.02239749999717,473.0385406999849,473.05557920000865,473.05557920000865,473.05557920000865,474.0096030999848,Objects\239a.jpg,post,n,0.9478923999995459,None,,,,,,,,00032,001,2026-01-16_12h17.18.732,MST_test,2024.2.0,59.919061339942026,2026-01-16 12h17.33.335964 +0530,
144,0,145,n,1.1391601999930572,None,145,0,144,474.0256814000022,,,,,,,,,,,,,,,,,,,,,,,,,,,,,,,,,,,,,,,,,,,,,,,,,,474.00969539998914,474.0256814000022,474.51109849999193,474.52504429998226,474.54413209998165,474.54413209998165,474.54413209998165,475.69875320000574,Foils\f5.jpg,none,n,1.1391601999930572,None,,,,,,,,00032,001,2026-01-16_12h17.18.732,MST_test,2024.2.0,59.919061339942026,2026-01-16 12h17.33.335964 +0530,
145,0,146,n,1.0181414000107907,None,146,0,145,475.71492539998144,,,,,,,,,,,,,,,,,,,,,,,,,,,,,,,,,,,,,,,,,,,,,,,,,,475.6988463999878,475.71492539998144,476.20024859998375,476.2162040999974,476.23338859999785,476.23338859999785,476.23338859999785,477.25459299999056,Objects\135b.jpg,post,n,1.0181414000107907,None,,,,,,,,00032,001,2026-01-16_12h17.18.732,MST_test,2024.2.0,59.919061339942026,2026-01-16 12h17.33.335964 +0530,
146,0,147,o,3.278415800014045,None,147,0,146,477.27037509999354,,,,,,,,,,,,,,,,,,,,,,,,,,,,,,,,,,,,,,,,,,,,,,,,,,477.254687299981,477.27037509999354,477.755634000001,477.7655473999912,477.7889632000006,477.7889632000006,477.7889632000006,481.0678408999811,Foils\066a.jpg,none,o,3.278415800014045,None,,,,,,,,00032,001,2026-01-16_12h17.18.732,MST_test,2024.2.0,59.919061339942026,2026-01-16 12h17.33.335964 +0530,
147,0,148,n,2.257340500014834,None,148,0,147,481.0838542999991,,,,,,,,,,,,,,,,,,,,,,,,,,,,,,,,,,,,,,,,,,,,,,,,,,481.06793289998313,481.0838542999991,481.56904020000366,481.57904489999055,481.6021774999972,481.6021774999972,481.6021774999972,483.860935100005,Objects\181b.jpg,pre,n,2.257340500014834,None,,,,,,,,00032,001,2026-01-16_12h17.18.732,MST_test,2024.2.0,59.919061339942026,2026-01-16 12h17.33.335964 +0530,
148,0,149,n,3.184677599987481,None,149,0,148,483.8774456999963,,,,,,,,,,,,,,,,,,,,,,,,,,,,,,,,,,,,,,,,,,,,,,,,,,483.8610289999924,483.8774456999963,484.36205609998433,484.3728601000039,484.39528890000656,484.39528890000656,484.39528890000656,487.5904384999885,Foils\093b.jpg,none,n,3.184677599987481,None,,,,,,,,00032,001,2026-01-16_12h17.18.732,MST_test,2024.2.0,59.919061339942026,2026-01-16 12h17.33.335964 +0530,
149,0,150,s,1.1740249999857042,None,150,0,149,487.60655759999645,,,,,,,,,,,,,,,,,,,,,,,,,,,,,,,,,,,,,,,,,,,,,,,,,,487.5905314999982,487.60655759999645,488.0917743000027,488.1033269999898,488.1251362999901,488.1251362999901,488.1251362999901,489.3131165000086,Objects\252b.jpg,pre,s,1.1740249999857042,None,,,,,,,,00032,001,2026-01-16_12h17.18.732,MST_test,2024.2.0,59.919061339942026,2026-01-16 12h17.33.335964 +0530,
,,,,,,,,,,,,,,,,,,,,,,,,,,,,,,,,,,,,,,,,,,,,,,,,,,,,,,,,,,,,,,,,,,,,,,,,489.3131822999858,489.3293772999896,489.3293772999896,491.2036309999821,space,1.8661648000124842,None,00032,001,2026-01-16_12h17.18.732,MST_test,2024.2.0,59.919061339942026,2026-01-16 12h17.33.335964 +0530,
