thisN,thisTrialN,thisRepN,key_resp_3.keys,key_resp_3.rt,key_resp_3.duration,trials.thisRepN,trials.thisTrialN,trials.thisN,thisRow.t,notes,intro_page.started,text.started,key_resp.started,intro_page.stopped,key_resp.keys,key_resp.rt,key_resp.duration,instructions.started,text_2.started,key_resp_2.started,instructions.stopped,key_resp_2.keys,key_resp_2.rt,key_resp_2.duration,demo1.started,image_1.started,image_2.started,text_7.started,key_resp_6.started,text_9.started,demo1.stopped,key_resp_6.keys,key_resp_6.rt,key_resp_6.duration,demo3.started,image_5.started,image_6.started,text_11.started,text_12.started,key_resp_8.started,demo3.stopped,key_resp_8.keys,key_resp_8.rt,key_resp_8.duration,demo_conclusion.started,text_13.started,key_resp_9.started,demo_conclusion.stopped,key_resp_9.keys,key_resp_9.rt,key_resp_9.duration,start_test.started,text_6.started,key_resp_5.started,start_test.stopped,key_resp_5.keys,key_resp_5.rt,key_resp_5.duration,ISI.started,text_4.started,text_4.stopped,ISI.stopped,routine_1.started,image.started,text_3.started,key_resp_3.started,routine_1.stopped,image_path,position_of_stimuli,trials.key_resp_3.keys,trials.key_resp_3.rt,trials.key_resp_3.duration,End_page.started,text_5.started,key_resp_4.started,End_page.stopped,key_resp_4.keys,key_resp_4.rt,key_resp_4.duration,participant,session,date,expName,psychopyVersion,frameRate,expStart,
,,,,,,,,,,,0.0015777999999500025,0.0035052999999152235,0.0035052999999152235,2.048858499999824,space,1.982704300000023,None,,,,,,,,,,,,,,,,,,,,,,,,,,,,,,,,,,,,,,,,,,,,,,,,,,,,,,,,,,,,,,,00033,001,2025-11-18_15h10.05.046,MST_test,2024.2.0,60.11887907140667,2025-11-18 15h10.17.328492 +0530,
,,,,,,,,,,,,,,,,,,2.048896300000024,2.0612346999998863,2.0612346999998863,10.153196600000001,space,8.08539350000001,None,,,,,,,,,,,,,,,,,,,,,,,,,,,,,,,,,,,,,,,,,,,,,,,,,,,,,,,,00033,001,2025-11-18_15h10.05.046,MST_test,2024.2.0,60.11887907140667,2025-11-18 15h10.17.328492 +0530,
,,,,,,,,,,,,,,,,,,,,,,,,,10.153305499999988,10.170993899999985,10.170993899999985,10.170993899999985,10.170993899999985,10.170993899999985,15.070359099999905,space,4.887523900000133,None,,,,,,,,,,,,,,,,,,,,,,,,,,,,,,,,,,,,,,,,,,,,,,00033,001,2025-11-18_15h10.05.046,MST_test,2024.2.0,60.11887907140667,2025-11-18 15h10.17.328492 +0530,
,,,,,,,,,,,,,,,,,,,,,,,,,,,,,,,,,,,15.070482200000015,15.085145999999895,15.085145999999895,15.085145999999895,15.085145999999895,15.085145999999895,16.836881100000028,space,1.748897100000022,None,,,,,,,,,,,,,,,,,,,,,,,,,,,,,,,,,,,,00033,001,2025-11-18_15h10.05.046,MST_test,2024.2.0,60.11887907140667,2025-11-18 15h10.17.328492 +0530,
,,,,,,,,,,,,,,,,,,,,,,,,,,,,,,,,,,,,,,,,,,,,,16.836971699999822,16.851106699999946,16.851106699999946,26.986630399999967,space,10.1190445000002,None,,,,,,,,,,,,,,,,,,,,,,,,,,,,,00033,001,2025-11-18_15h10.05.046,MST_test,2024.2.0,60.11887907140667,2025-11-18 15h10.17.328492 +0530,
,,,,,,,,,,,,,,,,,,,,,,,,,,,,,,,,,,,,,,,,,,,,,,,,,,,,26.98679859999993,27.009919399999944,27.009919399999944,44.80162919999998,space,17.776387499999828,None,,,,,,,,,,,,,,,,,,,,,,00033,001,2025-11-18_15h10.05.046,MST_test,2024.2.0,60.11887907140667,2025-11-18 15h10.17.328492 +0530,
0,0,1,o,2.775777000000062,None,1,0,0,44.81740229999991,,,,,,,,,,,,,,,,,,,,,,,,,,,,,,,,,,,,,,,,,,,,,,,,,,44.80614569999989,44.81740229999991,45.33100779999995,45.302051799999845,45.32824979999987,45.33100779999995,45.33100779999995,45.33100779999995,48.12002919999986,Objects\086b.jpg,mid,o,2.775777000000062,None,,,,,,,,00033,001,2025-11-18_15h10.05.046,MST_test,2024.2.0,60.11887907140667,2025-11-18 15h10.17.328492 +0530,
1,0,2,n,4.83617449999997,None,2,0,1,48.134313899999825,,,,,,,,,,,,,,,,,,,,,,,,,,,,,,,,,,,,,,,,,,,,,,,,,,48.120410699999866,48.134313899999825,48.63838329999999,48.61880079999992,48.63564069999984,48.63838329999999,48.63838329999999,48.63838329999999,53.486225200000035,Foils\f6.jpg,none,n,4.83617449999997,None,,,,,,,,00033,001,2025-11-18_15h10.05.046,MST_test,2024.2.0,60.11887907140667,2025-11-18 15h10.17.328492 +0530,
2,0,3,s,2.0792911999999433,None,3,0,2,53.50081349999982,,,,,,,,,,,,,,,,,,,,,,,,,,,,,,,,,,,,,,,,,,,,,,,,,,53.48657709999998,53.50081349999982,54.00431129999993,53.98554259999992,54.00179289999983,54.00431129999993,54.00431129999993,54.00431129999993,56.08652540000003,Objects\212b.jpg,mid,s,2.0792911999999433,None,,,,,,,,00033,001,2025-11-18_15h10.05.046,MST_test,2024.2.0,60.11887907140667,2025-11-18 15h10.17.328492 +0530,
3,0,4,s,2.7593626000000313,None,4,0,3,56.100881800000025,,,,,,,,,,,,,,,,,,,,,,,,,,,,,,,,,,,,,,,,,,,,,,,,,,56.08679089999987,56.100881800000025,56.603387999999995,56.58539189999988,56.60035289999996,56.603387999999995,56.603387999999995,56.603387999999995,59.370447499999955,Objects\233b.jpg,post,s,2.7593626000000313,None,,,,,,,,00033,001,2025-11-18_15h10.05.046,MST_test,2024.2.0,60.11887907140667,2025-11-18 15h10.17.328492 +0530,
4,0,5,s,3.3458914999998797,None,5,0,4,59.38438079999992,,,,,,,,,,,,,,,,,,,,,,,,,,,,,,,,,,,,,,,,,,,,,,,,,,59.37083239999993,59.38438079999992,59.88807750000001,59.868897599999855,59.885737299999846,59.88807750000001,59.88807750000001,59.88807750000001,63.2365499,Objects\155b.jpg,pre,s,3.3458914999998797,None,,,,,,,,00033,001,2025-11-18_15h10.05.046,MST_test,2024.2.0,60.11887907140667,2025-11-18 15h10.17.328492 +0530,
5,0,6,o,1.9534137999999075,None,6,0,5,63.25088659999983,,,,,,,,,,,,,,,,,,,,,,,,,,,,,,,,,,,,,,,,,,,,,,,,,,63.23698319999994,63.25088659999983,63.75322649999998,63.73594359999993,63.75090049999994,63.75322649999998,63.75322649999998,63.75322649999998,65.72041190000004,Objects\122a.jpg,mid,o,1.9534137999999075,None,,,,,,,,00033,001,2025-11-18_15h10.05.046,MST_test,2024.2.0,60.11887907140667,2025-11-18 15h10.17.328492 +0530,
6,0,7,s,1.6861619999999675,None,7,0,6,65.73448869999993,,,,,,,,,,,,,,,,,,,,,,,,,,,,,,,,,,,,,,,,,,,,,,,,,,65.72077190000005,65.73448869999993,66.23626279999985,66.21880480000004,66.23404499999992,66.23626279999985,66.23626279999985,66.23626279999985,67.93651309999996,Objects\314b.jpg,post,s,1.6861619999999675,None,,,,,,,,00033,001,2025-11-18_15h10.05.046,MST_test,2024.2.0,60.11887907140667,2025-11-18 15h10.17.328492 +0530,
7,0,8,o,1.3740270999999211,None,8,0,7,67.9509195999999,,,,,,,,,,,,,,,,,,,,,,,,,,,,,,,,,,,,,,,,,,,,,,,,,,67.93684409999992,67.9509195999999,68.45268179999994,68.43550039999991,68.45002099999988,68.45268179999994,68.45268179999994,68.45268179999994,69.83695999999986,Objects\264a.jpg,mid,o,1.3740270999999211,None,,,,,,,,00033,001,2025-11-18_15h10.05.046,MST_test,2024.2.0,60.11887907140667,2025-11-18 15h10.17.328492 +0530,
8,0,9,n,1.577942099999973,None,9,0,8,69.85087929999986,,,,,,,,,,,,,,,,,,,,,,,,,,,,,,,,,,,,,,,,,,,,,,,,,,69.83731639999996,69.85087929999986,70.3527755,70.33572639999988,70.3501776999999,70.3527755,70.3527755,70.3527755,71.93679959999986,Objects\338a.jpg,mid,n,1.577942099999973,None,,,,,,,,00033,001,2025-11-18_15h10.05.046,MST_test,2024.2.0,60.11887907140667,2025-11-18 15h10.17.328492 +0530,
9,0,10,o,3.5097608000000946,None,10,0,9,71.95080459999986,,,,,,,,,,,,,,,,,,,,,,,,,,,,,,,,,,,,,,,,,,,,,,,,,,71.93716640000002,71.95080459999986,72.45276560000002,72.43570299999988,72.44999540000003,72.45276560000002,72.45276560000002,72.45276560000002,75.96993279999992,Objects\153a.jpg,post,o,3.5097608000000946,None,,,,,,,,00033,001,2025-11-18_15h10.05.046,MST_test,2024.2.0,60.11887907140667,2025-11-18 15h10.17.328492 +0530,
10,0,11,o,1.2671202000001358,None,11,0,10,75.98431819999996,,,,,,,,,,,,,,,,,,,,,,,,,,,,,,,,,,,,,,,,,,,,,,,,,,75.9702835999999,75.98431819999996,76.48779849999983,76.46898910000004,76.48531119999984,76.48779849999983,76.48779849999983,76.48779849999983,77.77018129999988,Objects\076a.jpg,post,o,1.2671202000001358,None,,,,,,,,00033,001,2025-11-18_15h10.05.046,MST_test,2024.2.0,60.11887907140667,2025-11-18 15h10.17.328492 +0530,
11,0,12,n,1.8502831999999216,None,12,0,11,77.78437050000002,,,,,,,,,,,,,,,,,,,,,,,,,,,,,,,,,,,,,,,,,,,,,,,,,,77.77059589999999,77.78437050000002,78.28829580000001,78.26874739999994,78.28595389999987,78.28829580000001,78.28829580000001,78.28829580000001,80.15335099999993,Foils\101b.jpg,none,n,1.8502831999999216,None,,,,,,,,00033,001,2025-11-18_15h10.05.046,MST_test,2024.2.0,60.11887907140667,2025-11-18 15h10.17.328492 +0530,
12,0,13,o,1.1332907999999406,None,13,0,12,80.16780010000002,,,,,,,,,,,,,,,,,,,,,,,,,,,,,,,,,,,,,,,,,,,,,,,,,,80.15373109999996,80.16780010000002,80.66913120000004,80.65198039999996,80.66674859999989,80.66913120000004,80.66913120000004,80.66913120000004,81.81970839999985,Objects\041a.jpg,post,o,1.1332907999999406,None,,,,,,,,00033,001,2025-11-18_15h10.05.046,MST_test,2024.2.0,60.11887907140667,2025-11-18 15h10.17.328492 +0530,
13,0,14,n,1.0648208000000068,None,14,0,13,81.83432640000001,,,,,,,,,,,,,,,,,,,,,,,,,,,,,,,,,,,,,,,,,,,,,,,,,,81.82004699999993,81.83432640000001,82.33831469999996,82.31902549999995,82.33605590000002,82.33831469999996,82.33831469999996,82.33831469999996,83.41955659999985,Foils\081a.jpg,none,n,1.0648208000000068,None,,,,,,,,00033,001,2025-11-18_15h10.05.046,MST_test,2024.2.0,60.11887907140667,2025-11-18 15h10.17.328492 +0530,
14,0,15,n,1.215452599999935,None,15,0,14,83.43440399999986,,,,,,,,,,,,,,,,,,,,,,,,,,,,,,,,,,,,,,,,,,,,,,,,,,83.41985969999996,83.43440399999986,83.93914010000003,83.91885019999995,83.9367863,83.93914010000003,83.93914010000003,83.93914010000003,85.16997649999985,Foils\058a.jpg,none,n,1.215452599999935,None,,,,,,,,00033,001,2025-11-18_15h10.05.046,MST_test,2024.2.0,60.11887907140667,2025-11-18 15h10.17.328492 +0530,
15,0,16,o,1.492963599999939,None,16,0,15,85.18437979999999,,,,,,,,,,,,,,,,,,,,,,,,,,,,,,,,,,,,,,,,,,,,,,,,,,85.17035599999986,85.18437979999999,85.68512480000004,85.66891569999984,85.68266930000004,85.68512480000004,85.68512480000004,85.68512480000004,87.1864564,Objects\129a.jpg,pre,o,1.492963599999939,None,,,,,,,,00033,001,2025-11-18_15h10.05.046,MST_test,2024.2.0,60.11887907140667,2025-11-18 15h10.17.328492 +0530,
16,0,17,s,1.3406819000001633,None,17,0,16,87.20080229999985,,,,,,,,,,,,,,,,,,,,,,,,,,,,,,,,,,,,,,,,,,,,,,,,,,87.18669099999988,87.20080229999985,87.70153729999993,87.68574850000005,87.69905440000002,87.70153729999993,87.70153729999993,87.70153729999993,89.05318160000002,Objects\073a.jpg,pre,s,1.3406819000001633,None,,,,,,,,00033,001,2025-11-18_15h10.05.046,MST_test,2024.2.0,60.11887907140667,2025-11-18 15h10.17.328492 +0530,
17,0,18,s,1.3329561000000467,None,18,0,17,89.06765380000002,,,,,,,,,,,,,,,,,,,,,,,,,,,,,,,,,,,,,,,,,,,,,,,,,,89.05353049999985,89.06765380000002,89.57370649999984,89.5520285,89.57140419999996,89.57370649999984,89.57370649999984,89.57370649999984,90.91993609999986,Objects\235b.jpg,post,s,1.3329561000000467,None,,,,,,,,00033,001,2025-11-18_15h10.05.046,MST_test,2024.2.0,60.11887907140667,2025-11-18 15h10.17.328492 +0530,
18,0,19,o,1.2944392000001699,None,19,0,18,90.93441169999983,,,,,,,,,,,,,,,,,,,,,,,,,,,,,,,,,,,,,,,,,,,,,,,,,,90.92028839999989,90.93441169999983,91.43579379999983,91.41868469999986,91.43349809999995,91.43579379999983,91.43579379999983,91.43579379999983,92.73701779999988,Objects\145a.jpg,pre,o,1.2944392000001699,None,,,,,,,,00033,001,2025-11-18_15h10.05.046,MST_test,2024.2.0,60.11887907140667,2025-11-18 15h10.17.328492 +0530,
19,0,20,n,0.9151158999998188,None,20,0,19,92.75095599999986,,,,,,,,,,,,,,,,,,,,,,,,,,,,,,,,,,,,,,,,,,,,,,,,,,92.73733939999988,92.75095599999986,93.25496049999992,93.23589029999994,93.25248339999985,93.25496049999992,93.25496049999992,93.25496049999992,94.18683639999995,Foils\098a.jpg,none,n,0.9151158999998188,None,,,,,,,,00033,001,2025-11-18_15h10.05.046,MST_test,2024.2.0,60.11887907140667,2025-11-18 15h10.17.328492 +0530,
20,0,21,o,1.9401958999999351,None,21,0,20,94.20092999999997,,,,,,,,,,,,,,,,,,,,,,,,,,,,,,,,,,,,,,,,,,,,,,,,,,94.18715249999991,94.20092999999997,94.70299419999992,94.68535410000004,94.70059019999985,94.70299419999992,94.70299419999992,94.70299419999992,96.65318079999997,Objects\170b.jpg,post,o,1.9401958999999351,None,,,,,,,,00033,001,2025-11-18_15h10.05.046,MST_test,2024.2.0,60.11887907140667,2025-11-18 15h10.17.328492 +0530,
21,0,22,o,0.9547794000000067,None,22,0,21,96.66773439999997,,,,,,,,,,,,,,,,,,,,,,,,,,,,,,,,,,,,,,,,,,,,,,,,,,96.65385779999997,96.66773439999997,97.16790619999983,97.15203419999989,97.16539009999997,97.16790619999983,97.16790619999983,97.16790619999983,98.1367479999999,Objects\003a.jpg,pre,o,0.9547794000000067,None,,,,,,,,00033,001,2025-11-18_15h10.05.046,MST_test,2024.2.0,60.11887907140667,2025-11-18 15h10.17.328492 +0530,
22,0,23,s,1.787231600000041,None,23,0,22,98.15117329999998,,,,,,,,,,,,,,,,,,,,,,,,,,,,,,,,,,,,,,,,,,,,,,,,,,98.13706089999982,98.15117329999998,98.6551821999999,98.63566259999993,98.65240410000001,98.6551821999999,98.6551821999999,98.6551821999999,100.45331309999983,Objects\236b.jpg,post,s,1.787231600000041,None,,,,,,,,00033,001,2025-11-18_15h10.05.046,MST_test,2024.2.0,60.11887907140667,2025-11-18 15h10.17.328492 +0530,
23,0,24,o,2.032660599999872,None,24,0,23,100.46774970000001,,,,,,,,,,,,,,,,,,,,,,,,,,,,,,,,,,,,,,,,,,,,,,,,,,100.4536470999999,100.46774970000001,100.96949539999991,100.95217239999988,100.96676639999987,100.96949539999991,100.96949539999991,100.96949539999991,103.0193913999999,Objects\034a.jpg,pre,o,2.032660599999872,None,,,,,,,,00033,001,2025-11-18_15h10.05.046,MST_test,2024.2.0,60.11887907140667,2025-11-18 15h10.17.328492 +0530,
24,0,25,n,1.097595599999977,None,25,0,24,103.03439349999985,,,,,,,,,,,,,,,,,,,,,,,,,,,,,,,,,,,,,,,,,,,,,,,,,,103.01971079999998,103.03439349999985,103.53690919999985,103.5189527,103.53452989999982,103.53690919999985,103.53690919999985,103.53690919999985,104.63718919999997,Foils\121a.jpg,none,n,1.097595599999977,None,,,,,,,,00033,001,2025-11-18_15h10.05.046,MST_test,2024.2.0,60.11887907140667,2025-11-18 15h10.17.328492 +0530,
25,0,26,s,1.2873912000000018,None,26,0,25,104.65093469999988,,,,,,,,,,,,,,,,,,,,,,,,,,,,,,,,,,,,,,,,,,,,,,,,,,104.63755839999999,104.65093469999988,105.15530839999997,105.13554520000002,105.15292189999991,105.15530839999997,105.15530839999997,105.15530839999997,106.45332559999997,Objects\285b.jpg,post,s,1.2873912000000018,None,,,,,,,,00033,001,2025-11-18_15h10.05.046,MST_test,2024.2.0,60.11887907140667,2025-11-18 15h10.17.328492 +0530,
26,0,27,o,1.1350614000000405,None,27,0,26,106.46790099999998,,,,,,,,,,,,,,,,,,,,,,,,,,,,,,,,,,,,,,,,,,,,,,,,,,106.45369919999985,106.46790099999998,106.97166470000002,106.95237139999995,106.96925620000002,106.97166470000002,106.97166470000002,106.97166470000002,108.12038849999999,Objects\149b.jpg,pre,o,1.1350614000000405,None,,,,,,,,00033,001,2025-11-18_15h10.05.046,MST_test,2024.2.0,60.11887907140667,2025-11-18 15h10.17.328492 +0530,
27,0,28,s,3.256838000000016,None,28,0,27,108.13437329999988,,,,,,,,,,,,,,,,,,,,,,,,,,,,,,,,,,,,,,,,,,,,,,,,,,108.12070749999998,108.13437329999988,108.64141429999995,108.61931409999988,108.63905499999987,108.64141429999995,108.64141429999995,108.64141429999995,111.90344659999982,Objects\141b.jpg,mid,s,3.256838000000016,None,,,,,,,,00033,001,2025-11-18_15h10.05.046,MST_test,2024.2.0,60.11887907140667,2025-11-18 15h10.17.328492 +0530,
28,0,29,n,0.9246605999999247,None,29,0,28,111.91770580000002,,,,,,,,,,,,,,,,,,,,,,,,,,,,,,,,,,,,,,,,,,,,,,,,,,111.90384569999992,111.91770580000002,112.42182460000004,112.40211090000003,112.41948260000004,112.42182460000004,112.42182460000004,112.42182460000004,113.35366580000004,Foils\057a.jpg,none,n,0.9246605999999247,None,,,,,,,,00033,001,2025-11-18_15h10.05.046,MST_test,2024.2.0,60.11887907140667,2025-11-18 15h10.17.328492 +0530,
29,0,30,o,1.2487009999999827,None,30,0,29,113.36775799999987,,,,,,,,,,,,,,,,,,,,,,,,,,,,,,,,,,,,,,,,,,,,,,,,,,113.35405839999999,113.36775799999987,113.87395289999995,113.85236429999986,113.87160399999993,113.87395289999995,113.87395289999995,113.87395289999995,115.13716649999992,Objects\164b.jpg,pre,o,1.2487009999999827,None,,,,,,,,00033,001,2025-11-18_15h10.05.046,MST_test,2024.2.0,60.11887907140667,2025-11-18 15h10.17.328492 +0530,
30,0,31,o,1.4747251999999662,None,31,0,30,115.15096139999991,,,,,,,,,,,,,,,,,,,,,,,,,,,,,,,,,,,,,,,,,,,,,,,,,,115.13755059999994,115.15096139999991,115.65608759999986,115.63563920000001,115.65314390000003,115.65608759999986,115.65608759999986,115.65608759999986,117.13721299999997,Objects\304a.jpg,post,o,1.4747251999999662,None,,,,,,,,00033,001,2025-11-18_15h10.05.046,MST_test,2024.2.0,60.11887907140667,2025-11-18 15h10.17.328492 +0530,
31,0,32,s,2.693529299999909,None,32,0,31,117.1509383,,,,,,,,,,,,,,,,,,,,,,,,,,,,,,,,,,,,,,,,,,,,,,,,,,117.1375931,117.1509383,117.65251220000005,117.63537120000001,117.64991459999987,117.65251220000005,117.65251220000005,117.65251220000005,120.35307749999993,Objects\273b.jpg,mid,s,2.693529299999909,None,,,,,,,,00033,001,2025-11-18_15h10.05.046,MST_test,2024.2.0,60.11887907140667,2025-11-18 15h10.17.328492 +0530,
32,0,33,o,3.0617418000001635,None,33,0,32,120.36780499999986,,,,,,,,,,,,,,,,,,,,,,,,,,,,,,,,,,,,,,,,,,,,,,,,,,120.35346189999996,120.36780499999986,120.86921099999995,120.85206359999984,120.8664882999999,120.86921099999995,120.86921099999995,120.86921099999995,123.93698689999997,Objects\259a.jpg,mid,o,3.0617418000001635,None,,,,,,,,00033,001,2025-11-18_15h10.05.046,MST_test,2024.2.0,60.11887907140667,2025-11-18 15h10.17.328492 +0530,
33,0,34,s,1.4594927000000553,None,34,0,33,123.95093999999995,,,,,,,,,,,,,,,,,,,,,,,,,,,,,,,,,,,,,,,,,,,,,,,,,,123.93732309999996,123.95093999999995,124.45515260000002,124.43546659999993,124.45209799999998,124.45515260000002,124.45515260000002,124.45515260000002,125.91968859999997,Objects\363b.jpg,mid,s,1.4594927000000553,None,,,,,,,,00033,001,2025-11-18_15h10.05.046,MST_test,2024.2.0,60.11887907140667,2025-11-18 15h10.17.328492 +0530,
34,0,35,s,1.1313975999999002,None,35,0,34,125.9342987,,,,,,,,,,,,,,,,,,,,,,,,,,,,,,,,,,,,,,,,,,,,,,,,,,125.91993289999982,125.9342987,126.43934049999984,126.4186279999999,126.43668509999998,126.43934049999984,126.43934049999984,126.43934049999984,127.58647619999988,Objects\229b.jpg,pre,s,1.1313975999999002,None,,,,,,,,00033,001,2025-11-18_15h10.05.046,MST_test,2024.2.0,60.11887907140667,2025-11-18 15h10.17.328492 +0530,
35,0,36,o,2.250766300000123,None,36,0,35,127.60091669999997,,,,,,,,,,,,,,,,,,,,,,,,,,,,,,,,,,,,,,,,,,,,,,,,,,127.58686269999998,127.60091669999997,128.1033149,128.08605609999995,128.10063339999988,128.1033149,128.1033149,128.1033149,130.3700535999999,Objects\211b.jpg,pre,o,2.250766300000123,None,,,,,,,,00033,001,2025-11-18_15h10.05.046,MST_test,2024.2.0,60.11887907140667,2025-11-18 15h10.17.328492 +0530,
36,0,37,o,2.259487199999967,None,37,0,36,130.38442339999983,,,,,,,,,,,,,,,,,,,,,,,,,,,,,,,,,,,,,,,,,,,,,,,,,,130.37041039999986,130.38442339999983,130.88740989999997,130.86877949999985,130.88462909999998,130.88740989999997,130.88740989999997,130.88740989999997,133.15301139999997,Objects\167b.jpg,pre,o,2.259487199999967,None,,,,,,,,00033,001,2025-11-18_15h10.05.046,MST_test,2024.2.0,60.11887907140667,2025-11-18 15h10.17.328492 +0530,
37,0,38,s,1.386879300000146,None,38,0,37,133.16770239999983,,,,,,,,,,,,,,,,,,,,,,,,,,,,,,,,,,,,,,,,,,,,,,,,,,133.1533508,133.16770239999983,133.67160739999986,133.65213659999995,133.66919540000004,133.67160739999986,133.67160739999986,133.67160739999986,135.07019130000003,Foils\018a.jpg,none,s,1.386879300000146,None,,,,,,,,00033,001,2025-11-18_15h10.05.046,MST_test,2024.2.0,60.11887907140667,2025-11-18 15h10.17.328492 +0530,
38,0,39,o,1.5666731999999683,None,39,0,38,135.08435339999983,,,,,,,,,,,,,,,,,,,,,,,,,,,,,,,,,,,,,,,,,,,,,,,,,,135.0705355,135.08435339999983,135.58771189999993,135.56922510000004,135.58521399999995,135.58771189999993,135.58771189999993,135.58771189999993,137.16971449999983,Objects\307b.jpg,mid,o,1.5666731999999683,None,,,,,,,,00033,001,2025-11-18_15h10.05.046,MST_test,2024.2.0,60.11887907140667,2025-11-18 15h10.17.328492 +0530,
39,0,40,o,1.051482999999962,None,40,0,39,137.1843821,,,,,,,,,,,,,,,,,,,,,,,,,,,,,,,,,,,,,,,,,,,,,,,,,,137.1700449,137.1843821,137.68658189999996,137.66908569999987,137.68373329999986,137.68658189999996,137.68658189999996,137.68658189999996,138.75329929999998,Objects\254a.jpg,pre,o,1.051482999999962,None,,,,,,,,00033,001,2025-11-18_15h10.05.046,MST_test,2024.2.0,60.11887907140667,2025-11-18 15h10.17.328492 +0530,
40,0,41,o,0.9330434000000878,None,41,0,40,138.76769849999982,,,,,,,,,,,,,,,,,,,,,,,,,,,,,,,,,,,,,,,,,,,,,,,,,,138.75362240000004,138.76769849999982,139.26898979999987,139.25232159999996,139.26624730000003,139.26898979999987,139.26898979999987,139.26898979999987,140.2039797,Objects\269a.jpg,post,o,0.9330434000000878,None,,,,,,,,00033,001,2025-11-18_15h10.05.046,MST_test,2024.2.0,60.11887907140667,2025-11-18 15h10.17.328492 +0530,
41,0,42,s,1.8806591000000026,None,42,0,41,140.21766779999984,,,,,,,,,,,,,,,,,,,,,,,,,,,,,,,,,,,,,,,,,,,,,,,,,,140.20431050000002,140.21766779999984,140.72203869999998,140.70190049999997,140.7193382999999,140.72203869999998,140.72203869999998,140.72203869999998,142.61978499999987,Objects\275b.jpg,pre,s,1.8806591000000026,None,,,,,,,,00033,001,2025-11-18_15h10.05.046,MST_test,2024.2.0,60.11887907140667,2025-11-18 15h10.17.328492 +0530,
42,0,43,s,1.1365521999998691,None,43,0,42,142.63446350000004,,,,,,,,,,,,,,,,,,,,,,,,,,,,,,,,,,,,,,,,,,,,,,,,,,142.6201160999999,142.63446350000004,143.13831949999985,143.1187147999999,143.13560699999994,143.13831949999985,143.13831949999985,143.13831949999985,144.2869083999999,Objects\322b.jpg,mid,s,1.1365521999998691,None,,,,,,,,00033,001,2025-11-18_15h10.05.046,MST_test,2024.2.0,60.11887907140667,2025-11-18 15h10.17.328492 +0530,
43,0,44,s,3.9131276999999045,None,44,0,43,144.30112009999993,,,,,,,,,,,,,,,,,,,,,,,,,,,,,,,,,,,,,,,,,,,,,,,,,,144.28730039999982,144.30112009999993,144.80157989999998,144.78565089999984,144.79729369999995,144.80157989999998,144.80157989999998,144.80157989999998,148.71989919999987,Objects\238a.jpg,pre,s,3.9131276999999045,None,,,,,,,,00033,001,2025-11-18_15h10.05.046,MST_test,2024.2.0,60.11887907140667,2025-11-18 15h10.17.328492 +0530,
44,0,45,n,1.1307586000000356,None,45,0,44,148.73432089999983,,,,,,,,,,,,,,,,,,,,,,,,,,,,,,,,,,,,,,,,,,,,,,,,,,148.72019379999983,148.73432089999983,149.2394314999999,149.21871379999993,149.2368059999999,149.2394314999999,149.2394314999999,149.2394314999999,150.38693579999995,Foils\090a.jpg,none,n,1.1307586000000356,None,,,,,,,,00033,001,2025-11-18_15h10.05.046,MST_test,2024.2.0,60.11887907140667,2025-11-18 15h10.17.328492 +0530,
45,0,46,o,1.1067622000000483,None,46,0,45,150.401697,,,,,,,,,,,,,,,,,,,,,,,,,,,,,,,,,,,,,,,,,,,,,,,,,,150.3872953,150.401697,150.90378099999998,150.88567869999997,150.90142979999996,150.90378099999998,150.90378099999998,150.90378099999998,152.01949479999985,Objects\051a.jpg,mid,o,1.1067622000000483,None,,,,,,,,00033,001,2025-11-18_15h10.05.046,MST_test,2024.2.0,60.11887907140667,2025-11-18 15h10.17.328492 +0530,
46,0,47,n,1.6118834000001243,None,47,0,46,152.03436979999992,,,,,,,,,,,,,,,,,,,,,,,,,,,,,,,,,,,,,,,,,,,,,,,,,,152.01981030000002,152.03436979999992,152.53455179999992,152.51788629999987,152.53011270000002,152.53455179999992,152.53455179999992,152.53455179999992,154.15337239999985,Objects\223b.jpg,post,n,1.6118834000001243,None,,,,,,,,00033,001,2025-11-18_15h10.05.046,MST_test,2024.2.0,60.11887907140667,2025-11-18 15h10.17.328492 +0530,
47,0,48,n,1.001261999999997,None,48,0,47,154.1676748,,,,,,,,,,,,,,,,,,,,,,,,,,,,,,,,,,,,,,,,,,,,,,,,,,154.153728,154.1676748,154.67311399999994,154.6520751999999,154.67067840000004,154.67311399999994,154.67311399999994,154.67311399999994,155.68630940000003,Foils\020b.jpg,none,n,1.001261999999997,None,,,,,,,,00033,001,2025-11-18_15h10.05.046,MST_test,2024.2.0,60.11887907140667,2025-11-18 15h10.17.328492 +0530,
48,0,49,n,0.8749818999999661,None,49,0,48,155.70087479999984,,,,,,,,,,,,,,,,,,,,,,,,,,,,,,,,,,,,,,,,,,,,,,,,,,155.6866212,155.70087479999984,156.20733440000004,156.18576280000002,156.20488349999982,156.20733440000004,156.20733440000004,156.20733440000004,157.0871176999999,Foils\097a.jpg,none,n,0.8749818999999661,None,,,,,,,,00033,001,2025-11-18_15h10.05.046,MST_test,2024.2.0,60.11887907140667,2025-11-18 15h10.17.328492 +0530,
49,0,50,n,1.9002141999999367,None,50,0,49,157.10109939999984,,,,,,,,,,,,,,,,,,,,,,,,,,,,,,,,,,,,,,,,,,,,,,,,,,157.08744950000005,157.10109939999984,157.60624770000004,157.58570450000002,157.6039664,157.60624770000004,157.60624770000004,157.60624770000004,159.52028380000002,Foils\002a.jpg,none,n,1.9002141999999367,None,,,,,,,,00033,001,2025-11-18_15h10.05.046,MST_test,2024.2.0,60.11887907140667,2025-11-18 15h10.17.328492 +0530,
50,0,51,n,1.0035726999999497,None,51,0,50,159.5346465,,,,,,,,,,,,,,,,,,,,,,,,,,,,,,,,,,,,,,,,,,,,,,,,,,159.52070179999987,159.5346465,160.03936669999985,160.01910989999988,160.03693169999997,160.03936669999985,160.03936669999985,160.03936669999985,161.05290549999995,Objects\108b.jpg,post,n,1.0035726999999497,None,,,,,,,,00033,001,2025-11-18_15h10.05.046,MST_test,2024.2.0,60.11887907140667,2025-11-18 15h10.17.328492 +0530,
51,0,52,n,2.977284399999917,None,52,0,51,161.06770129999995,,,,,,,,,,,,,,,,,,,,,,,,,,,,,,,,,,,,,,,,,,,,,,,,,,161.0532871999999,161.06770129999995,161.5692024,161.5521048999999,161.56661469999995,161.5692024,161.5692024,161.5692024,164.55300799999986,Objects\115a.jpg,pre,n,2.977284399999917,None,,,,,,,,00033,001,2025-11-18_15h10.05.046,MST_test,2024.2.0,60.11887907140667,2025-11-18 15h10.17.328492 +0530,
52,0,53,o,2.51710920000005,None,53,0,52,164.56772969999997,,,,,,,,,,,,,,,,,,,,,,,,,,,,,,,,,,,,,,,,,,,,,,,,,,164.55341279999993,164.56772969999997,165.06967009999994,165.05197380000004,165.06686809999997,165.06967009999994,165.06967009999994,165.06967009999994,167.60288579999997,Objects\207a.jpg,pre,o,2.51710920000005,None,,,,,,,,00033,001,2025-11-18_15h10.05.046,MST_test,2024.2.0,60.11887907140667,2025-11-18 15h10.17.328492 +0530,
53,0,54,o,1.4957736999999725,None,54,0,53,167.61770520000005,,,,,,,,,,,,,,,,,,,,,,,,,,,,,,,,,,,,,,,,,,,,,,,,,,167.60323169999992,167.61770520000005,168.1228842999999,168.10269249999988,168.12021559999994,168.1228842999999,168.1228842999999,168.1228842999999,169.6211882,Objects\237a.jpg,mid,o,1.4957736999999725,None,,,,,,,,00033,001,2025-11-18_15h10.05.046,MST_test,2024.2.0,60.11887907140667,2025-11-18 15h10.17.328492 +0530,
54,0,55,o,1.5569757999999183,None,55,0,54,169.63456939999992,,,,,,,,,,,,,,,,,,,,,,,,,,,,,,,,,,,,,,,,,,,,,,,,,,169.62155889999985,169.63456939999992,170.14134049999984,170.1188634,170.13861659999998,170.14134049999984,170.14134049999984,170.14134049999984,171.70350789999998,Objects\289a.jpg,post,o,1.5569757999999183,None,,,,,,,,00033,001,2025-11-18_15h10.05.046,MST_test,2024.2.0,60.11887907140667,2025-11-18 15h10.17.328492 +0530,
55,0,56,s,1.2323771999999735,None,56,0,55,171.7177208999999,,,,,,,,,,,,,,,,,,,,,,,,,,,,,,,,,,,,,,,,,,,,,,,,,,171.70384390000004,171.7177208999999,172.22578729999987,172.20213279999984,172.22276769999985,172.22578729999987,172.22578729999987,172.22578729999987,173.46981400000004,Objects\140b.jpg,mid,s,1.2323771999999735,None,,,,,,,,00033,001,2025-11-18_15h10.05.046,MST_test,2024.2.0,60.11887907140667,2025-11-18 15h10.17.328492 +0530,
56,0,57,n,1.0170101000001068,None,57,0,56,173.48503849999997,,,,,,,,,,,,,,,,,,,,,,,,,,,,,,,,,,,,,,,,,,,,,,,,,,173.47018329999992,173.48503849999997,173.9855665,173.9690384999999,173.98318159999985,173.9855665,173.9855665,173.9855665,175.01988779999988,Foils\017a.jpg,none,n,1.0170101000001068,None,,,,,,,,00033,001,2025-11-18_15h10.05.046,MST_test,2024.2.0,60.11887907140667,2025-11-18 15h10.17.328492 +0530,
57,0,58,s,1.1871521000000484,None,58,0,57,175.0346113999999,,,,,,,,,,,,,,,,,,,,,,,,,,,,,,,,,,,,,,,,,,,,,,,,,,175.0203036999999,175.0346113999999,175.5350681,175.5189608999999,175.53266429999985,175.5350681,175.5350681,175.5350681,176.73706989999982,Objects\095b.jpg,pre,s,1.1871521000000484,None,,,,,,,,00033,001,2025-11-18_15h10.05.046,MST_test,2024.2.0,60.11887907140667,2025-11-18 15h10.17.328492 +0530,
58,0,59,s,2.0789981000000353,None,59,0,58,176.7509935999999,,,,,,,,,,,,,,,,,,,,,,,,,,,,,,,,,,,,,,,,,,,,,,,,,,176.7374789999999,176.7509935999999,177.25116589999993,177.23475480000002,177.2464293999999,177.25116589999993,177.25116589999993,177.25116589999993,179.33704079999984,Objects\370a.jpg,post,s,2.0789981000000353,None,,,,,,,,00033,001,2025-11-18_15h10.05.046,MST_test,2024.2.0,60.11887907140667,2025-11-18 15h10.17.328492 +0530,
59,0,60,n,1.0186155000001236,None,60,0,59,179.35116119999998,,,,,,,,,,,,,,,,,,,,,,,,,,,,,,,,,,,,,,,,,,,,,,,,,,179.33743679999998,179.35116119999998,179.87202389999993,179.8358905,179.86956080000004,179.87202389999993,179.87202389999993,179.87202389999993,180.90334789999997,Objects\022b.jpg,post,n,1.0186155000001236,None,,,,,,,,00033,001,2025-11-18_15h10.05.046,MST_test,2024.2.0,60.11887907140667,2025-11-18 15h10.17.328492 +0530,
60,0,61,o,1.23102340000014,None,61,0,60,180.91783669999995,,,,,,,,,,,,,,,,,,,,,,,,,,,,,,,,,,,,,,,,,,,,,,,,,,180.90372969999999,180.91783669999995,181.419349,181.4022892999999,181.41680789999987,181.419349,181.419349,181.419349,182.65341620000004,Objects\340a.jpg,mid,o,1.23102340000014,None,,,,,,,,00033,001,2025-11-18_15h10.05.046,MST_test,2024.2.0,60.11887907140667,2025-11-18 15h10.17.328492 +0530,
61,0,62,o,1.1027004000000034,None,62,0,61,182.66774420000002,,,,,,,,,,,,,,,,,,,,,,,,,,,,,,,,,,,,,,,,,,,,,,,,,,182.65374999999995,182.66774420000002,183.17177859999993,183.15203039999983,183.1691570999999,183.17177859999993,183.17177859999993,183.17177859999993,184.28675299999986,Objects\298a.jpg,pre,o,1.1027004000000034,None,,,,,,,,00033,001,2025-11-18_15h10.05.046,MST_test,2024.2.0,60.11887907140667,2025-11-18 15h10.17.328492 +0530,
62,0,63,s,1.8453214999999545,None,63,0,62,184.3009715999999,,,,,,,,,,,,,,,,,,,,,,,,,,,,,,,,,,,,,,,,,,,,,,,,,,184.28713240000002,184.3009715999999,184.80495759999985,184.7855055,184.80265969999982,184.80495759999985,184.80495759999985,184.80495759999985,186.65283520000003,Objects\166b.jpg,post,s,1.8453214999999545,None,,,,,,,,00033,001,2025-11-18_15h10.05.046,MST_test,2024.2.0,60.11887907140667,2025-11-18 15h10.17.328492 +0530,
63,0,64,o,1.1942457999998624,None,64,0,63,186.6677737,,,,,,,,,,,,,,,,,,,,,,,,,,,,,,,,,,,,,,,,,,,,,,,,,,186.65306669999995,186.6677737,187.16864880000003,187.15214100000003,187.16618719999997,187.16864880000003,187.16864880000003,187.16864880000003,188.37007989999984,Objects\001a.jpg,post,o,1.1942457999998624,None,,,,,,,,00033,001,2025-11-18_15h10.05.046,MST_test,2024.2.0,60.11887907140667,2025-11-18 15h10.17.328492 +0530,
64,0,65,o,1.0249943999999687,None,65,0,64,188.38440429999991,,,,,,,,,,,,,,,,,,,,,,,,,,,,,,,,,,,,,,,,,,,,,,,,,,188.37043049999988,188.38440429999991,188.88942099999986,188.86892039999998,188.88667080000005,188.88942099999986,188.88942099999986,188.88942099999986,189.91999020000003,Objects\384b.jpg,mid,o,1.0249943999999687,None,,,,,,,,00033,001,2025-11-18_15h10.05.046,MST_test,2024.2.0,60.11887907140667,2025-11-18 15h10.17.328492 +0530,
65,0,66,s,1.1398454000000129,None,66,0,65,189.93439169999988,,,,,,,,,,,,,,,,,,,,,,,,,,,,,,,,,,,,,,,,,,,,,,,,,,189.92035079999982,189.93439169999988,190.43846099999996,190.41882859999987,190.43573289999995,190.43846099999996,190.43846099999996,190.43846099999996,191.58709409999983,Foils\050a.jpg,none,s,1.1398454000000129,None,,,,,,,,00033,001,2025-11-18_15h10.05.046,MST_test,2024.2.0,60.11887907140667,2025-11-18 15h10.17.328492 +0530,
66,0,67,n,2.545869000000039,None,67,0,66,191.60095419999993,,,,,,,,,,,,,,,,,,,,,,,,,,,,,,,,,,,,,,,,,,,,,,,,,,191.58750220000002,191.60095419999993,192.10462800000005,192.08567479999988,192.10228869999992,192.10462800000005,192.10462800000005,192.10462800000005,194.6533634,Foils\093b.jpg,none,n,2.545869000000039,None,,,,,,,,00033,001,2025-11-18_15h10.05.046,MST_test,2024.2.0,60.11887907140667,2025-11-18 15h10.17.328492 +0530,
67,0,68,n,0.8174404000001232,None,68,0,67,194.6677158,,,,,,,,,,,,,,,,,,,,,,,,,,,,,,,,,,,,,,,,,,,,,,,,,,194.65378339999984,194.6677158,195.16908079999985,195.15213569999992,195.16654040000003,195.16908079999985,195.16908079999985,195.16908079999985,196.0032374,Foils\033a.jpg,none,n,0.8174404000001232,None,,,,,,,,00033,001,2025-11-18_15h10.05.046,MST_test,2024.2.0,60.11887907140667,2025-11-18 15h10.17.328492 +0530,
68,0,69,n,0.8488886000000093,None,69,0,68,196.017744,,,,,,,,,,,,,,,,,,,,,,,,,,,,,,,,,,,,,,,,,,,,,,,,,,196.00361629999998,196.017744,196.52173199999993,196.50221699999997,196.51917809999986,196.52173199999993,196.52173199999993,196.52173199999993,197.38700870000002,Foils\f7.jpg,none,n,0.8488886000000093,None,,,,,,,,00033,001,2025-11-18_15h10.05.046,MST_test,2024.2.0,60.11887907140667,2025-11-18 15h10.17.328492 +0530,
69,0,70,s,1.013133899999957,None,70,0,69,197.40152549999993,,,,,,,,,,,,,,,,,,,,,,,,,,,,,,,,,,,,,,,,,,,,,,,,,,197.38741600000003,197.40152549999993,197.90133259999993,197.88548479999986,197.89826779999999,197.90133259999993,197.90133259999993,197.90133259999993,198.91995829999996,Objects\222b.jpg,mid,s,1.013133899999957,None,,,,,,,,00033,001,2025-11-18_15h10.05.046,MST_test,2024.2.0,60.11887907140667,2025-11-18 15h10.17.328492 +0530,
70,0,71,n,1.4445640999999796,None,71,0,70,198.93449959999998,,,,,,,,,,,,,,,,,,,,,,,,,,,,,,,,,,,,,,,,,,,,,,,,,,198.9202682,198.93449959999998,199.4379371,199.4189139,199.4351228999999,199.4379371,199.4379371,199.4379371,200.88692429999992,Objects\134a.jpg,mid,n,1.4445640999999796,None,,,,,,,,00033,001,2025-11-18_15h10.05.046,MST_test,2024.2.0,60.11887907140667,2025-11-18 15h10.17.328492 +0530,
71,0,72,s,2.566599100000076,None,72,0,71,200.90096679999988,,,,,,,,,,,,,,,,,,,,,,,,,,,,,,,,,,,,,,,,,,,,,,,,,,200.88727299999982,200.90096679999988,201.4035907,201.38529519999997,201.40115760000003,201.4035907,201.4035907,201.4035907,203.98633689999997,Objects\061a.jpg,post,s,2.566599100000076,None,,,,,,,,00033,001,2025-11-18_15h10.05.046,MST_test,2024.2.0,60.11887907140667,2025-11-18 15h10.17.328492 +0530,
72,0,73,n,1.0356674999998177,None,73,0,72,204.00098839999987,,,,,,,,,,,,,,,,,,,,,,,,,,,,,,,,,,,,,,,,,,,,,,,,,,203.98661589999983,204.00098839999987,204.50361580000003,204.48590219999983,204.50128459999996,204.50361580000003,204.50361580000003,204.50361580000003,205.55290160000004,Foils\082a.jpg,none,n,1.0356674999998177,None,,,,,,,,00033,001,2025-11-18_15h10.05.046,MST_test,2024.2.0,60.11887907140667,2025-11-18 15h10.17.328492 +0530,
73,0,74,n,0.7925688999998783,None,74,0,73,205.5677186999999,,,,,,,,,,,,,,,,,,,,,,,,,,,,,,,,,,,,,,,,,,,,,,,,,,205.55321000000004,205.5677186999999,206.07549189999986,206.0523986999999,206.07305459999998,206.07549189999986,206.07549189999986,206.07549189999986,206.87016959999983,Foils\105a.jpg,none,n,0.7925688999998783,None,,,,,,,,00033,001,2025-11-18_15h10.05.046,MST_test,2024.2.0,60.11887907140667,2025-11-18 15h10.17.328492 +0530,
74,0,75,o,1.0304441999999199,None,75,0,74,206.8843930999999,,,,,,,,,,,,,,,,,,,,,,,,,,,,,,,,,,,,,,,,,,,,,,,,,,206.87047099999995,206.8843930999999,207.3880638999999,207.36899099999982,207.38560859999984,207.3880638999999,207.3880638999999,207.3880638999999,208.42046519999985,Objects\100a.jpg,post,o,1.0304441999999199,None,,,,,,,,00033,001,2025-11-18_15h10.05.046,MST_test,2024.2.0,60.11887907140667,2025-11-18 15h10.17.328492 +0530,
75,0,76,o,1.7365872000000309,None,76,0,75,208.43433989999994,,,,,,,,,,,,,,,,,,,,,,,,,,,,,,,,,,,,,,,,,,,,,,,,,,208.4208458999999,208.43433989999994,208.9381022,208.9190283999999,208.93561720000002,208.9381022,208.9381022,208.9381022,210.68634769999994,Objects\379a.jpg,pre,o,1.7365872000000309,None,,,,,,,,00033,001,2025-11-18_15h10.05.046,MST_test,2024.2.0,60.11887907140667,2025-11-18 15h10.17.328492 +0530,
76,0,77,o,2.689790799999855,None,77,0,76,210.70092109999996,,,,,,,,,,,,,,,,,,,,,,,,,,,,,,,,,,,,,,,,,,,,,,,,,,210.68664509999985,210.70092109999996,211.20164509999995,211.18591259999994,211.19898869999997,211.20164509999995,211.20164509999995,211.20164509999995,213.9030725,Objects\336a.jpg,pre,o,2.689790799999855,None,,,,,,,,00033,001,2025-11-18_15h10.05.046,MST_test,2024.2.0,60.11887907140667,2025-11-18 15h10.17.328492 +0530,
77,0,78,n,0.8385439999999562,None,78,0,77,213.91785589999995,,,,,,,,,,,,,,,,,,,,,,,,,,,,,,,,,,,,,,,,,,,,,,,,,,213.90336460000003,213.91785589999995,214.41978500000005,214.4024354999999,214.41713379999987,214.41978500000005,214.41978500000005,214.41978500000005,215.27041499999996,Foils\f5.jpg,none,n,0.8385439999999562,None,,,,,,,,00033,001,2025-11-18_15h10.05.046,MST_test,2024.2.0,60.11887907140667,2025-11-18 15h10.17.328492 +0530,
78,0,79,n,2.4612297000001035,None,79,0,78,215.28459589999989,,,,,,,,,,,,,,,,,,,,,,,,,,,,,,,,,,,,,,,,,,,,,,,,,,215.27075130000003,215.28459589999989,215.78955789999986,215.7689762,215.7869243,215.78955789999986,215.78955789999986,215.78955789999986,218.2536333999999,Foils\034a.jpg,none,n,2.4612297000001035,None,,,,,,,,00033,001,2025-11-18_15h10.05.046,MST_test,2024.2.0,60.11887907140667,2025-11-18 15h10.17.328492 +0530,
79,0,80,n,1.000398099999984,None,80,0,79,218.26795659999993,,,,,,,,,,,,,,,,,,,,,,,,,,,,,,,,,,,,,,,,,,,,,,,,,,218.254003,218.26795659999993,218.77056700000003,218.75222999999983,218.76806279999983,218.77056700000003,218.77056700000003,218.77056700000003,219.78703629999995,Foils\074a.jpg,none,n,1.000398099999984,None,,,,,,,,00033,001,2025-11-18_15h10.05.046,MST_test,2024.2.0,60.11887907140667,2025-11-18 15h10.17.328492 +0530,
80,0,81,o,2.3951145000000906,None,81,0,80,219.80115439999986,,,,,,,,,,,,,,,,,,,,,,,,,,,,,,,,,,,,,,,,,,,,,,,,,,219.78744659999984,219.80115439999986,220.30358460000002,220.28576329999987,220.30113629999983,220.30358460000002,220.30358460000002,220.30358460000002,222.70366249999984,Objects\098a.jpg,post,o,2.3951145000000906,None,,,,,,,,00033,001,2025-11-18_15h10.05.046,MST_test,2024.2.0,60.11887907140667,2025-11-18 15h10.17.328492 +0530,
81,0,82,n,1.120936699999902,None,82,0,81,222.71774029999983,,,,,,,,,,,,,,,,,,,,,,,,,,,,,,,,,,,,,,,,,,,,,,,,,,222.70396729999993,222.71774029999983,223.21868619999987,223.20243919999984,223.21631949999983,223.21868619999987,223.21868619999987,223.21868619999987,224.35328179999988,Objects\050a.jpg,pre,n,1.120936699999902,None,,,,,,,,00033,001,2025-11-18_15h10.05.046,MST_test,2024.2.0,60.11887907140667,2025-11-18 15h10.17.328492 +0530,
82,0,83,s,1.5791214000000764,None,83,0,82,224.36790180000003,,,,,,,,,,,,,,,,,,,,,,,,,,,,,,,,,,,,,,,,,,,,,,,,,,224.35367659999997,224.36790180000003,224.8715193999999,224.85225419999983,224.86902109999983,224.8715193999999,224.8715193999999,224.8715193999999,226.45310069999982,Objects\301b.jpg,mid,s,1.5791214000000764,None,,,,,,,,00033,001,2025-11-18_15h10.05.046,MST_test,2024.2.0,60.11887907140667,2025-11-18 15h10.17.328492 +0530,
83,0,84,s,2.883205599999883,None,84,0,83,226.46787099999983,,,,,,,,,,,,,,,,,,,,,,,,,,,,,,,,,,,,,,,,,,,,,,,,,,226.45340029999988,226.46787099999983,226.97487309999997,226.95236490000002,226.97169689999987,226.97487309999997,226.97487309999997,226.97487309999997,229.8703266,Objects\256a.jpg,pre,s,2.883205599999883,None,,,,,,,,00033,001,2025-11-18_15h10.05.046,MST_test,2024.2.0,60.11887907140667,2025-11-18 15h10.17.328492 +0530,
84,0,85,n,1.9124217000000954,None,85,0,84,229.88455649999992,,,,,,,,,,,,,,,,,,,,,,,,,,,,,,,,,,,,,,,,,,,,,,,,,,229.87073759999998,229.88455649999992,230.38600870000005,230.36819560000004,230.3832941999999,230.38600870000005,230.38600870000005,230.38600870000005,232.30321319999985,Objects\204b.jpg,post,n,1.9124217000000954,None,,,,,,,,00033,001,2025-11-18_15h10.05.046,MST_test,2024.2.0,60.11887907140667,2025-11-18 15h10.17.328492 +0530,
85,0,86,o,1.210071699999844,None,86,0,85,232.31787740000004,,,,,,,,,,,,,,,,,,,,,,,,,,,,,,,,,,,,,,,,,,,,,,,,,,232.3035878999999,232.31787740000004,232.82457249999993,232.80240389999994,232.82186349999984,232.82457249999993,232.82457249999993,232.82457249999993,234.03732949999994,Objects\038a.jpg,mid,o,1.210071699999844,None,,,,,,,,00033,001,2025-11-18_15h10.05.046,MST_test,2024.2.0,60.11887907140667,2025-11-18 15h10.17.328492 +0530,
86,0,87,o,1.186132999999927,None,87,0,86,234.05110089999994,,,,,,,,,,,,,,,,,,,,,,,,,,,,,,,,,,,,,,,,,,,,,,,,,,234.03771849999998,234.05110089999994,234.55196969999997,234.5355007999999,234.54956100000004,234.55196969999997,234.55196969999997,234.55196969999997,235.75350319999984,Objects\143a.jpg,post,o,1.186132999999927,None,,,,,,,,00033,001,2025-11-18_15h10.05.046,MST_test,2024.2.0,60.11887907140667,2025-11-18 15h10.17.328492 +0530,
87,0,88,o,1.4138084999999592,None,88,0,87,235.76788199999987,,,,,,,,,,,,,,,,,,,,,,,,,,,,,,,,,,,,,,,,,,,,,,,,,,235.7537866,235.76788199999987,236.2689034,236.25239669999996,236.26600080000003,236.2689034,236.2689034,236.2689034,237.68709679999984,Objects\367a.jpg,post,o,1.4138084999999592,None,,,,,,,,00033,001,2025-11-18_15h10.05.046,MST_test,2024.2.0,60.11887907140667,2025-11-18 15h10.17.328492 +0530,
88,0,89,s,1.6240218000000368,None,89,0,88,237.70104330000004,,,,,,,,,,,,,,,,,,,,,,,,,,,,,,,,,,,,,,,,,,,,,,,,,,237.6874464,237.70104330000004,238.20285579999995,238.18631579999987,238.20011869999985,238.20285579999995,238.20285579999995,238.20285579999995,239.83702099999982,Objects\064a.jpg,mid,s,1.6240218000000368,None,,,,,,,,00033,001,2025-11-18_15h10.05.046,MST_test,2024.2.0,60.11887907140667,2025-11-18 15h10.17.328492 +0530,
89,0,90,n,0.9492718999999852,None,90,0,89,239.85119379999992,,,,,,,,,,,,,,,,,,,,,,,,,,,,,,,,,,,,,,,,,,,,,,,,,,239.83739979999996,239.85119379999992,240.36475840000003,240.33480769999983,240.36239039999987,240.36475840000003,240.36475840000003,240.36475840000003,241.3200612999999,Foils\113a.jpg,none,n,0.9492718999999852,None,,,,,,,,00033,001,2025-11-18_15h10.05.046,MST_test,2024.2.0,60.11887907140667,2025-11-18 15h10.17.328492 +0530,
90,0,91,s,1.132612999999992,None,91,0,90,241.33453499999996,,,,,,,,,,,,,,,,,,,,,,,,,,,,,,,,,,,,,,,,,,,,,,,,,,241.32042979999983,241.33453499999996,241.8383242,241.81919979999998,241.83540789999984,241.8383242,241.8383242,241.8383242,242.987073,Objects\221b.jpg,mid,s,1.132612999999992,None,,,,,,,,00033,001,2025-11-18_15h10.05.046,MST_test,2024.2.0,60.11887907140667,2025-11-18 15h10.17.328492 +0530,
91,0,92,n,1.1310686000001624,None,92,0,91,243.00115119999987,,,,,,,,,,,,,,,,,,,,,,,,,,,,,,,,,,,,,,,,,,,,,,,,,,242.98745740000004,243.00115119999987,243.50308559999985,243.4857245999999,243.50020270000005,243.50308559999985,243.50308559999985,243.50308559999985,244.63695859999984,Foils\009a.jpg,none,n,1.1310686000001624,None,,,,,,,,00033,001,2025-11-18_15h10.05.046,MST_test,2024.2.0,60.11887907140667,2025-11-18 15h10.17.328492 +0530,
92,0,93,o,2.7214516000001368,None,93,0,92,244.65109129999996,,,,,,,,,,,,,,,,,,,,,,,,,,,,,,,,,,,,,,,,,,,,,,,,,,244.63730929999997,244.65109129999996,245.1531571999999,245.1358760999999,245.1504081999999,245.1531571999999,245.1531571999999,245.1531571999999,247.88624049999999,Objects\247b.jpg,post,o,2.7214516000001368,None,,,,,,,,00033,001,2025-11-18_15h10.05.046,MST_test,2024.2.0,60.11887907140667,2025-11-18 15h10.17.328492 +0530,
93,0,94,o,0.989611400000058,None,94,0,93,247.90107039999998,,,,,,,,,,,,,,,,,,,,,,,,,,,,,,,,,,,,,,,,,,,,,,,,,,247.88658020000003,247.90107039999998,248.404493,248.3854374,248.40204159999985,248.404493,248.404493,248.404493,249.40282030000003,Objects\327b.jpg,mid,o,0.989611400000058,None,,,,,,,,00033,001,2025-11-18_15h10.05.046,MST_test,2024.2.0,60.11887907140667,2025-11-18 15h10.17.328492 +0530,
94,0,95,o,0.9802506999999423,None,95,0,94,249.41771519999998,,,,,,,,,,,,,,,,,,,,,,,,,,,,,,,,,,,,,,,,,,,,,,,,,,249.4031611999999,249.41771519999998,249.9181653999999,249.9015041,249.9119607,249.9181653999999,249.9181653999999,249.9181653999999,250.90302309999993,Objects\241a.jpg,pre,o,0.9802506999999423,None,,,,,,,,00033,001,2025-11-18_15h10.05.046,MST_test,2024.2.0,60.11887907140667,2025-11-18 15h10.17.328492 +0530,
95,0,96,s,1.1431942000001527,None,96,0,95,250.91786460000003,,,,,,,,,,,,,,,,,,,,,,,,,,,,,,,,,,,,,,,,,,,,,,,,,,250.90340019999985,250.91786460000003,251.42026620000001,251.4025408,251.41788659999997,251.42026620000001,251.42026620000001,251.42026620000001,252.57014189999995,Objects\331b.jpg,mid,s,1.1431942000001527,None,,,,,,,,00033,001,2025-11-18_15h10.05.046,MST_test,2024.2.0,60.11887907140667,2025-11-18 15h10.17.328492 +0530,
96,0,97,o,1.085408900000175,None,97,0,96,252.58452549999993,,,,,,,,,,,,,,,,,,,,,,,,,,,,,,,,,,,,,,,,,,,,,,,,,,252.5704533999999,252.58452549999993,253.08519669999987,253.06898290000004,253.08255269999995,253.08519669999987,253.08519669999987,253.08519669999987,254.18696569999997,Objects\082a.jpg,pre,o,1.085408900000175,None,,,,,,,,00033,001,2025-11-18_15h10.05.046,MST_test,2024.2.0,60.11887907140667,2025-11-18 15h10.17.328492 +0530,
97,0,98,n,0.6909590000000208,None,98,0,97,254.20111780000002,,,,,,,,,,,,,,,,,,,,,,,,,,,,,,,,,,,,,,,,,,,,,,,,,,254.18735070000002,254.20111780000002,254.70376439999995,254.68534419999992,254.70129769999994,254.70376439999995,254.70376439999995,254.70376439999995,255.40355920000002,Foils\065a.jpg,none,n,0.6909590000000208,None,,,,,,,,00033,001,2025-11-18_15h10.05.046,MST_test,2024.2.0,60.11887907140667,2025-11-18 15h10.17.328492 +0530,
98,0,99,s,1.5682332999999744,None,99,0,98,255.41785889999983,,,,,,,,,,,,,,,,,,,,,,,,,,,,,,,,,,,,,,,,,,,,,,,,,,255.40394530000003,255.41785889999983,255.9222069,255.90225629999986,255.91966060000004,255.9222069,255.9222069,255.9222069,257.5032137999999,Objects\070b.jpg,pre,s,1.5682332999999744,None,,,,,,,,00033,001,2025-11-18_15h10.05.046,MST_test,2024.2.0,60.11887907140667,2025-11-18 15h10.17.328492 +0530,
99,0,100,n,0.9279437000000144,None,100,0,99,257.51784169999996,,,,,,,,,,,,,,,,,,,,,,,,,,,,,,,,,,,,,,,,,,,,,,,,,,257.50359019999996,257.51784169999996,258.01897199999985,258.00244610000004,258.01674379999986,258.01897199999985,258.01897199999985,258.01897199999985,258.95310129999984,Foils\010a.jpg,none,n,0.9279437000000144,None,,,,,,,,00033,001,2025-11-18_15h10.05.046,MST_test,2024.2.0,60.11887907140667,2025-11-18 15h10.17.328492 +0530,
100,0,101,n,0.9344693000000461,None,101,0,100,258.96777769999994,,,,,,,,,,,,,,,,,,,,,,,,,,,,,,,,,,,,,,,,,,,,,,,,,,258.9534842999999,258.96777769999994,259.46845970000004,259.4520448999999,259.4658350999998,259.46845970000004,259.46845970000004,259.46845970000004,260.4200598,Objects\262a.jpg,pre,n,0.9344693000000461,None,,,,,,,,00033,001,2025-11-18_15h10.05.046,MST_test,2024.2.0,60.11887907140667,2025-11-18 15h10.17.328492 +0530,
101,0,102,s,1.0155637000000297,None,102,0,101,260.43464959999983,,,,,,,,,,,,,,,,,,,,,,,,,,,,,,,,,,,,,,,,,,,,,,,,,,260.42041529999983,260.43464959999983,260.9385302999999,260.91907259999994,260.93582249999986,260.9385302999999,260.9385302999999,260.9385302999999,261.9700413999999,Objects\323b.jpg,pre,s,1.0155637000000297,None,,,,,,,,00033,001,2025-11-18_15h10.05.046,MST_test,2024.2.0,60.11887907140667,2025-11-18 15h10.17.328492 +0530,
102,0,103,o,1.0982053000000178,None,103,0,102,261.9844212999999,,,,,,,,,,,,,,,,,,,,,,,,,,,,,,,,,,,,,,,,,,,,,,,,,,261.9704483999999,261.9844212999999,262.48824479999985,262.46916399999986,262.4855889999999,262.48824479999985,262.48824479999985,262.48824479999985,263.6034199999999,Objects\053b.jpg,post,o,1.0982053000000178,None,,,,,,,,00033,001,2025-11-18_15h10.05.046,MST_test,2024.2.0,60.11887907140667,2025-11-18 15h10.17.328492 +0530,
103,0,104,s,1.958764100000053,None,104,0,103,263.6177616,,,,,,,,,,,,,,,,,,,,,,,,,,,,,,,,,,,,,,,,,,,,,,,,,,263.6037982999999,263.6177616,264.12339610000004,264.10204139999996,264.1210131999999,264.12339610000004,264.12339610000004,264.12339610000004,266.08711129999983,Objects\060b.jpg,post,s,1.958764100000053,None,,,,,,,,00033,001,2025-11-18_15h10.05.046,MST_test,2024.2.0,60.11887907140667,2025-11-18 15h10.17.328492 +0530,
104,0,105,s,1.0413392000000385,None,105,0,104,266.1009546,,,,,,,,,,,,,,,,,,,,,,,,,,,,,,,,,,,,,,,,,,,,,,,,,,266.08748509999987,266.1009546,266.6011656999999,266.58548640000004,266.5970878999999,266.6011656999999,266.6011656999999,266.6011656999999,267.6528080999999,Objects\002b.jpg,post,s,1.0413392000000385,None,,,,,,,,00033,001,2025-11-18_15h10.05.046,MST_test,2024.2.0,60.11887907140667,2025-11-18 15h10.17.328492 +0530,
105,0,106,s,1.351743899999974,None,106,0,105,267.6677459,,,,,,,,,,,,,,,,,,,,,,,,,,,,,,,,,,,,,,,,,,,,,,,,,,267.65314639999997,267.6677459,268.17036529999996,268.1519957999999,268.16818109999986,268.17036529999996,268.17036529999996,268.17036529999996,269.536928,Foils\086a.jpg,none,s,1.351743899999974,None,,,,,,,,00033,001,2025-11-18_15h10.05.046,MST_test,2024.2.0,60.11887907140667,2025-11-18 15h10.17.328492 +0530,
106,0,107,s,1.1583180999998604,None,107,0,106,269.55099139999993,,,,,,,,,,,,,,,,,,,,,,,,,,,,,,,,,,,,,,,,,,,,,,,,,,269.5372562,269.55099139999993,270.0523745999999,270.03561609999997,270.04990399999997,270.0523745999999,270.0523745999999,270.0523745999999,271.22022289999995,Objects\183b.jpg,pre,s,1.1583180999998604,None,,,,,,,,00033,001,2025-11-18_15h10.05.046,MST_test,2024.2.0,60.11887907140667,2025-11-18 15h10.17.328492 +0530,
107,0,108,s,1.5693209999999453,None,108,0,107,271.23437319999994,,,,,,,,,,,,,,,,,,,,,,,,,,,,,,,,,,,,,,,,,,,,,,,,,,271.2205924,271.23437319999994,271.73717139999985,271.71889899999996,271.7346915999999,271.73717139999985,271.73717139999985,271.73717139999985,273.31847489999996,Objects\025b.jpg,pre,s,1.5693209999999453,None,,,,,,,,00033,001,2025-11-18_15h10.05.046,MST_test,2024.2.0,60.11887907140667,2025-11-18 15h10.17.328492 +0530,
108,0,109,o,3.164202099999784,None,109,0,108,273.33429649999994,,,,,,,,,,,,,,,,,,,,,,,,,,,,,,,,,,,,,,,,,,,,,,,,,,273.3185682999999,273.33429649999994,273.8385914999999,273.8189849999999,273.83560209999996,273.8385914999999,273.8385914999999,273.8385914999999,277.02035469999987,Objects\265a.jpg,mid,o,3.164202099999784,None,,,,,,,,00033,001,2025-11-18_15h10.05.046,MST_test,2024.2.0,60.11887907140667,2025-11-18 15h10.17.328492 +0530,
109,0,110,s,2.4493827000001147,None,110,0,109,277.03447659999983,,,,,,,,,,,,,,,,,,,,,,,,,,,,,,,,,,,,,,,,,,,,,,,,,,277.02072529999987,277.03447659999983,277.53767659999994,277.51911029999997,277.53520289999983,277.53767659999994,277.53767659999994,277.53767659999994,280.0036562999999,Objects\242b.jpg,post,s,2.4493827000001147,None,,,,,,,,00033,001,2025-11-18_15h10.05.046,MST_test,2024.2.0,60.11887907140667,2025-11-18 15h10.17.328492 +0530,
110,0,111,n,1.1266066000000592,None,111,0,110,280.01778969999987,,,,,,,,,,,,,,,,,,,,,,,,,,,,,,,,,,,,,,,,,,,,,,,,,,280.0040683,280.01778969999987,280.5236751,280.50228389999984,280.52113869999994,280.5236751,280.5236751,280.5236751,281.65385760000004,Objects\258b.jpg,post,n,1.1266066000000592,None,,,,,,,,00033,001,2025-11-18_15h10.05.046,MST_test,2024.2.0,60.11887907140667,2025-11-18 15h10.17.328492 +0530,
111,0,112,o,2.0300419999998667,None,112,0,111,281.66775289999987,,,,,,,,,,,,,,,,,,,,,,,,,,,,,,,,,,,,,,,,,,,,,,,,,,281.654231,281.66775289999987,282.17394149999996,282.1521109,282.1712278,282.17394149999996,282.17394149999996,282.17394149999996,284.21985559999985,Objects\138b.jpg,pre,o,2.0300419999998667,None,,,,,,,,00033,001,2025-11-18_15h10.05.046,MST_test,2024.2.0,60.11887907140667,2025-11-18 15h10.17.328492 +0530,
112,0,113,n,0.8981983000001037,None,113,0,112,284.2343937999999,,,,,,,,,,,,,,,,,,,,,,,,,,,,,,,,,,,,,,,,,,,,,,,,,,284.22022979999997,284.2343937999999,284.7361971,284.7195216,284.73355549999997,284.7361971,284.7361971,284.7361971,285.6363838999998,Objects\192b.jpg,mid,n,0.8981983000001037,None,,,,,,,,00033,001,2025-11-18_15h10.05.046,MST_test,2024.2.0,60.11887907140667,2025-11-18 15h10.17.328492 +0530,
113,0,114,o,1.1029670000000351,None,114,0,113,285.6510920999999,,,,,,,,,,,,,,,,,,,,,,,,,,,,,,,,,,,,,,,,,,,,,,,,,,285.6366478,285.6510920999999,286.15532140000005,286.1358229,286.1523362999999,286.15532140000005,286.15532140000005,286.15532140000005,287.27020289999996,Objects\383a.jpg,mid,o,1.1029670000000351,None,,,,,,,,00033,001,2025-11-18_15h10.05.046,MST_test,2024.2.0,60.11887907140667,2025-11-18 15h10.17.328492 +0530,
114,0,115,o,0.9598716000000422,None,115,0,114,287.2844187999999,,,,,,,,,,,,,,,,,,,,,,,,,,,,,,,,,,,,,,,,,,,,,,,,,,287.2705859,287.2844187999999,287.78624119999995,287.7692402,287.78360369999996,287.78624119999995,287.78624119999995,287.78624119999995,288.75273449999986,Objects\148a.jpg,mid,o,0.9598716000000422,None,,,,,,,,00033,001,2025-11-18_15h10.05.046,MST_test,2024.2.0,60.11887907140667,2025-11-18 15h10.17.328492 +0530,
115,0,116,o,0.8342136000001119,None,116,0,115,288.7678228999998,,,,,,,,,,,,,,,,,,,,,,,,,,,,,,,,,,,,,,,,,,,,,,,,,,288.7530703,288.7678228999998,289.27210509999986,289.25212379999994,289.26962219999996,289.27210509999986,289.27210509999986,289.27210509999986,290.1202871999999,Objects\005b.jpg,pre,o,0.8342136000001119,None,,,,,,,,00033,001,2025-11-18_15h10.05.046,MST_test,2024.2.0,60.11887907140667,2025-11-18 15h10.17.328492 +0530,
116,0,117,o,1.020984799999951,None,117,0,116,290.13434140000004,,,,,,,,,,,,,,,,,,,,,,,,,,,,,,,,,,,,,,,,,,,,,,,,,,290.12067419999994,290.13434140000004,290.6373229999999,290.61895259999983,290.6349006999999,290.6373229999999,290.6373229999999,290.6373229999999,291.67049129999987,Objects\357a.jpg,mid,o,1.020984799999951,None,,,,,,,,00033,001,2025-11-18_15h10.05.046,MST_test,2024.2.0,60.11887907140667,2025-11-18 15h10.17.328492 +0530,
117,0,118,s,1.0304541999998946,None,118,0,117,291.68450469999993,,,,,,,,,,,,,,,,,,,,,,,,,,,,,,,,,,,,,,,,,,,,,,,,,,291.67088139999987,291.68450469999993,292.18799939999985,292.1689094999999,292.1856806999999,292.18799939999985,292.18799939999985,292.18799939999985,293.22046019999993,Objects\181a.jpg,post,s,1.0304541999998946,None,,,,,,,,00033,001,2025-11-18_15h10.05.046,MST_test,2024.2.0,60.11887907140667,2025-11-18 15h10.17.328492 +0530,
118,0,119,o,1.1955929000000651,None,119,0,118,293.2344315999999,,,,,,,,,,,,,,,,,,,,,,,,,,,,,,,,,,,,,,,,,,,,,,,,,,293.2207510999999,293.2344315999999,293.7355783999999,293.71910519999983,293.7334000999999,293.7355783999999,293.7355783999999,293.7355783999999,294.9366745,Objects\089a.jpg,post,o,1.1955929000000651,None,,,,,,,,00033,001,2025-11-18_15h10.05.046,MST_test,2024.2.0,60.11887907140667,2025-11-18 15h10.17.328492 +0530,
119,0,120,o,0.8799088999999185,None,120,0,119,294.95093139999994,,,,,,,,,,,,,,,,,,,,,,,,,,,,,,,,,,,,,,,,,,,,,,,,,,294.93704839999987,294.95093139999994,295.45160020000003,295.4353672999998,295.44930269999986,295.45160020000003,295.45160020000003,295.45160020000003,296.3372497999999,Objects\014a.jpg,mid,o,0.8799088999999185,None,,,,,,,,00033,001,2025-11-18_15h10.05.046,MST_test,2024.2.0,60.11887907140667,2025-11-18 15h10.17.328492 +0530,
120,0,121,o,0.9176879000001463,None,121,0,120,296.3510042999999,,,,,,,,,,,,,,,,,,,,,,,,,,,,,,,,,,,,,,,,,,,,,,,,,,296.3376077999999,296.3510042999999,296.8528982999999,296.8358450999999,296.8505642,296.8528982999999,296.8528982999999,296.8528982999999,297.78683379999984,Objects\276a.jpg,mid,o,0.9176879000001463,None,,,,,,,,00033,001,2025-11-18_15h10.05.046,MST_test,2024.2.0,60.11887907140667,2025-11-18 15h10.17.328492 +0530,
121,0,122,s,0.8919229000000541,None,122,0,121,297.8010698999999,,,,,,,,,,,,,,,,,,,,,,,,,,,,,,,,,,,,,,,,,,,,,,,,,,297.7871806999999,297.8010698999999,298.3023739999999,298.2854052,298.29994309999984,298.3023739999999,298.3023739999999,298.3023739999999,299.20323770000005,Objects\152a.jpg,mid,s,0.8919229000000541,None,,,,,,,,00033,001,2025-11-18_15h10.05.046,MST_test,2024.2.0,60.11887907140667,2025-11-18 15h10.17.328492 +0530,
122,0,123,o,1.1704752999999073,None,123,0,122,299.2177492999999,,,,,,,,,,,,,,,,,,,,,,,,,,,,,,,,,,,,,,,,,,,,,,,,,,299.2035314,299.2177492999999,299.7203050999999,299.70199209999987,299.7177337999999,299.7203050999999,299.7203050999999,299.7203050999999,300.9033909,Objects\023a.jpg,post,o,1.1704752999999073,None,,,,,,,,00033,001,2025-11-18_15h10.05.046,MST_test,2024.2.0,60.11887907140667,2025-11-18 15h10.17.328492 +0530,
123,0,124,s,1.2527483000001212,None,124,0,123,300.91774169999985,,,,,,,,,,,,,,,,,,,,,,,,,,,,,,,,,,,,,,,,,,,,,,,,,,300.9037716,300.91774169999985,301.4219797999999,301.4022422999999,301.4192791999999,301.4219797999999,301.4219797999999,301.4219797999999,302.6868514999999,Objects\227b.jpg,pre,s,1.2527483000001212,None,,,,,,,,00033,001,2025-11-18_15h10.05.046,MST_test,2024.2.0,60.11887907140667,2025-11-18 15h10.17.328492 +0530,
124,0,125,n,0.9436232000000473,None,125,0,124,302.7011104999999,,,,,,,,,,,,,,,,,,,,,,,,,,,,,,,,,,,,,,,,,,,,,,,,,,302.6871965,302.7011104999999,303.20275049999987,303.1860320999999,303.20002569999997,303.20275049999987,303.20275049999987,303.20275049999987,304.15292580000005,Objects\239a.jpg,mid,n,0.9436232000000473,None,,,,,,,,00033,001,2025-11-18_15h10.05.046,MST_test,2024.2.0,60.11887907140667,2025-11-18 15h10.17.328492 +0530,
125,0,126,s,1.0118181999998797,None,126,0,125,304.1678778999999,,,,,,,,,,,,,,,,,,,,,,,,,,,,,,,,,,,,,,,,,,,,,,,,,,304.15331279999987,304.1678778999999,304.6714850999999,304.65223259999993,304.66876720000005,304.6714850999999,304.6714850999999,304.6714850999999,305.68668549999984,Objects\078b.jpg,pre,s,1.0118181999998797,None,,,,,,,,00033,001,2025-11-18_15h10.05.046,MST_test,2024.2.0,60.11887907140667,2025-11-18 15h10.17.328492 +0530,
126,0,127,o,0.9520832999999129,None,127,0,126,305.7009132999999,,,,,,,,,,,,,,,,,,,,,,,,,,,,,,,,,,,,,,,,,,,,,,,,,,305.6870592,305.7009132999999,306.2027378,306.18561350000004,306.20009349999987,306.2027378,306.2027378,306.2027378,307.1701304999999,Objects\350a.jpg,pre,o,0.9520832999999129,None,,,,,,,,00033,001,2025-11-18_15h10.05.046,MST_test,2024.2.0,60.11887907140667,2025-11-18 15h10.17.328492 +0530,
127,0,128,o,2.1599716000000626,None,128,0,127,307.18440869999995,,,,,,,,,,,,,,,,,,,,,,,,,,,,,,,,,,,,,,,,,,,,,,,,,,307.1704989,307.18440869999995,307.6901619999999,307.66917820000003,307.68748959999994,307.6901619999999,307.6901619999999,307.6901619999999,309.853519,Objects\102b.jpg,mid,o,2.1599716000000626,None,,,,,,,,00033,001,2025-11-18_15h10.05.046,MST_test,2024.2.0,60.11887907140667,2025-11-18 15h10.17.328492 +0530,
128,0,129,n,0.8157263000000512,None,129,0,128,309.8677424,,,,,,,,,,,,,,,,,,,,,,,,,,,,,,,,,,,,,,,,,,,,,,,,,,309.8538953,309.8677424,310.3704716999998,310.3522596999999,310.36781999999994,310.3704716999998,310.3704716999998,310.3704716999998,311.20361149999985,Foils\106a.jpg,none,n,0.8157263000000512,None,,,,,,,,00033,001,2025-11-18_15h10.05.046,MST_test,2024.2.0,60.11887907140667,2025-11-18 15h10.17.328492 +0530,
129,0,130,n,1.5838195999999698,None,130,0,129,311.2177300999999,,,,,,,,,,,,,,,,,,,,,,,,,,,,,,,,,,,,,,,,,,,,,,,,,,311.20395889999986,311.2177300999999,311.72294539999984,311.7025068999999,311.72003010000003,311.72294539999984,311.72294539999984,311.72294539999984,313.3202317999999,Objects\290b.jpg,pre,n,1.5838195999999698,None,,,,,,,,00033,001,2025-11-18_15h10.05.046,MST_test,2024.2.0,60.11887907140667,2025-11-18 15h10.17.328492 +0530,
130,0,131,o,2.4914232000000993,None,131,0,130,313.33462299999997,,,,,,,,,,,,,,,,,,,,,,,,,,,,,,,,,,,,,,,,,,,,,,,,,,313.3206353999999,313.33462299999997,313.8393523999998,313.8186258999999,313.8366914999999,313.8393523999998,313.8393523999998,313.8393523999998,316.33765229999995,Objects\380b.jpg,mid,o,2.4914232000000993,None,,,,,,,,00033,001,2025-11-18_15h10.05.046,MST_test,2024.2.0,60.11887907140667,2025-11-18 15h10.17.328492 +0530,
131,0,132,s,1.1471696000000975,None,132,0,131,316.35112849999996,,,,,,,,,,,,,,,,,,,,,,,,,,,,,,,,,,,,,,,,,,,,,,,,,,316.3380818999999,316.35112849999996,316.8553846,316.83541360000004,316.8523226,316.8553846,316.8553846,316.8553846,318.02015929999993,Objects\293b.jpg,mid,s,1.1471696000000975,None,,,,,,,,00033,001,2025-11-18_15h10.05.046,MST_test,2024.2.0,60.11887907140667,2025-11-18 15h10.17.328492 +0530,
132,0,133,n,0.8869634000000133,None,133,0,132,318.03452229999994,,,,,,,,,,,,,,,,,,,,,,,,,,,,,,,,,,,,,,,,,,,,,,,,,,318.02055989999985,318.03452229999994,318.6913050999999,318.51892599999996,318.6882275999999,318.6913050999999,318.6913050999999,318.6913050999999,319.5866827,Objects\316b.jpg,pre,n,0.8869634000000133,None,,,,,,,,00033,001,2025-11-18_15h10.05.046,MST_test,2024.2.0,60.11887907140667,2025-11-18 15h10.17.328492 +0530,
133,0,134,o,1.1456630000000132,None,134,0,133,319.60113090000004,,,,,,,,,,,,,,,,,,,,,,,,,,,,,,,,,,,,,,,,,,,,,,,,,,319.5870634999999,319.60113090000004,320.10468219999984,320.0854844999999,320.1016743,320.10468219999984,320.10468219999984,320.10468219999984,321.25359949999984,Objects\130a.jpg,mid,o,1.1456630000000132,None,,,,,,,,00033,001,2025-11-18_15h10.05.046,MST_test,2024.2.0,60.11887907140667,2025-11-18 15h10.17.328492 +0530,
134,0,135,o,1.2074599999998554,None,135,0,134,321.2680152999999,,,,,,,,,,,,,,,,,,,,,,,,,,,,,,,,,,,,,,,,,,,,,,,,,,321.25398870000004,321.2680152999999,321.77140199999985,321.7521921,321.76920229999996,321.77140199999985,321.77140199999985,321.77140199999985,322.9867555999999,Objects\305b.jpg,post,o,1.2074599999998554,None,,,,,,,,00033,001,2025-11-18_15h10.05.046,MST_test,2024.2.0,60.11887907140667,2025-11-18 15h10.17.328492 +0530,
135,0,136,s,1.3056237999999212,None,136,0,135,323.001352,,,,,,,,,,,,,,,,,,,,,,,,,,,,,,,,,,,,,,,,,,,,,,,,,,322.98711449999996,323.001352,323.5051463,323.4855613,323.5027903,323.5051463,323.5051463,323.5051463,324.8199093999999,Objects\114b.jpg,mid,s,1.3056237999999212,None,,,,,,,,00033,001,2025-11-18_15h10.05.046,MST_test,2024.2.0,60.11887907140667,2025-11-18 15h10.17.328492 +0530,
136,0,137,o,1.5544255999998313,None,137,0,136,324.83431029999997,,,,,,,,,,,,,,,,,,,,,,,,,,,,,,,,,,,,,,,,,,,,,,,,,,324.8203105,324.83431029999997,325.3366592,325.31917729999986,325.33396749999997,325.3366592,325.3366592,325.3366592,326.90306050000004,Objects\337a.jpg,pre,o,1.5544255999998313,None,,,,,,,,00033,001,2025-11-18_15h10.05.046,MST_test,2024.2.0,60.11887907140667,2025-11-18 15h10.17.328492 +0530,
137,0,138,o,0.9922788000001219,None,138,0,137,326.91773620000004,,,,,,,,,,,,,,,,,,,,,,,,,,,,,,,,,,,,,,,,,,,,,,,,,,326.90339389999986,326.91773620000004,327.41828699999996,327.4012705,327.4114838999999,327.41828699999996,327.41828699999996,327.41828699999996,328.4200447999999,Objects\193a.jpg,post,o,0.9922788000001219,None,,,,,,,,00033,001,2025-11-18_15h10.05.046,MST_test,2024.2.0,60.11887907140667,2025-11-18 15h10.17.328492 +0530,
138,0,139,n,0.9452728000001116,None,139,0,138,328.43427999999994,,,,,,,,,,,,,,,,,,,,,,,,,,,,,,,,,,,,,,,,,,,,,,,,,,328.42047779999984,328.43427999999994,328.9375075999999,328.9190804,328.9350956999999,328.9375075999999,328.9375075999999,328.9375075999999,329.8870144,Foils\073a.jpg,none,n,0.9452728000001116,None,,,,,,,,00033,001,2025-11-18_15h10.05.046,MST_test,2024.2.0,60.11887907140667,2025-11-18 15h10.17.328492 +0530,
139,0,140,s,1.3577333000000635,None,140,0,139,329.90123559999984,,,,,,,,,,,,,,,,,,,,,,,,,,,,,,,,,,,,,,,,,,,,,,,,,,329.887342,329.90123559999984,330.40486009999995,330.3852038,330.4025583,330.40486009999995,330.40486009999995,330.40486009999995,331.7698091,Objects\308b.jpg,pre,s,1.3577333000000635,None,,,,,,,,00033,001,2025-11-18_15h10.05.046,MST_test,2024.2.0,60.11887907140667,2025-11-18 15h10.17.328492 +0530,
140,0,141,s,2.9260643999998592,None,141,0,140,331.7842536999999,,,,,,,,,,,,,,,,,,,,,,,,,,,,,,,,,,,,,,,,,,,,,,,,,,331.77019629999995,331.7842536999999,332.28499799999986,332.26894659999994,332.2825264999999,332.28499799999986,332.28499799999986,332.28499799999986,335.21984469999984,Objects\282a.jpg,post,s,2.9260643999998592,None,,,,,,,,00033,001,2025-11-18_15h10.05.046,MST_test,2024.2.0,60.11887907140667,2025-11-18 15h10.17.328492 +0530,
141,0,142,s,1.0216107999999622,None,142,0,141,335.2344734999999,,,,,,,,,,,,,,,,,,,,,,,,,,,,,,,,,,,,,,,,,,,,,,,,,,335.22017099999994,335.2344734999999,335.7412125999999,335.7190836999998,335.7386896999999,335.7412125999999,335.7412125999999,335.7412125999999,336.7697719,Objects\056b.jpg,mid,s,1.0216107999999622,None,,,,,,,,00033,001,2025-11-18_15h10.05.046,MST_test,2024.2.0,60.11887907140667,2025-11-18 15h10.17.328492 +0530,
142,0,143,o,1.2120133000000806,None,143,0,142,336.7844519,,,,,,,,,,,,,,,,,,,,,,,,,,,,,,,,,,,,,,,,,,,,,,,,,,336.7700608,336.7844519,337.2862221999999,337.26932769999985,337.2838485999998,337.2862221999999,337.2862221999999,337.2862221999999,338.50358519999986,Objects\189a.jpg,post,o,1.2120133000000806,None,,,,,,,,00033,001,2025-11-18_15h10.05.046,MST_test,2024.2.0,60.11887907140667,2025-11-18 15h10.17.328492 +0530,
143,0,144,o,2.6194863000000623,None,144,0,143,338.5179151,,,,,,,,,,,,,,,,,,,,,,,,,,,,,,,,,,,,,,,,,,,,,,,,,,338.5039583999999,338.5179151,339.02296449999994,339.0025478,339.02050299999996,339.02296449999994,339.02296449999994,339.02296449999994,341.65341190000004,Objects\059b.jpg,post,o,2.6194863000000623,None,,,,,,,,00033,001,2025-11-18_15h10.05.046,MST_test,2024.2.0,60.11887907140667,2025-11-18 15h10.17.328492 +0530,
144,0,145,o,1.0478236000001289,None,145,0,144,341.66800609999996,,,,,,,,,,,,,,,,,,,,,,,,,,,,,,,,,,,,,,,,,,,,,,,,,,341.65378629999987,341.66800609999996,342.17052949999993,342.1525113,342.1677812999999,342.17052949999993,342.17052949999993,342.17052949999993,343.2206796999999,Objects\325a.jpg,post,o,1.0478236000001289,None,,,,,,,,00033,001,2025-11-18_15h10.05.046,MST_test,2024.2.0,60.11887907140667,2025-11-18 15h10.17.328492 +0530,
145,0,146,n,1.5230387999999948,None,146,0,145,343.2345966999999,,,,,,,,,,,,,,,,,,,,,,,,,,,,,,,,,,,,,,,,,,,,,,,,,,343.22100539999997,343.2345966999999,343.7432145999999,343.71905949999996,343.74038169999994,343.7432145999999,343.7432145999999,343.7432145999999,345.27022309999984,Objects\017b.jpg,pre,n,1.5230387999999948,None,,,,,,,,00033,001,2025-11-18_15h10.05.046,MST_test,2024.2.0,60.11887907140667,2025-11-18 15h10.17.328492 +0530,
146,0,147,o,0.7998149000000012,None,147,0,146,345.2845241,,,,,,,,,,,,,,,,,,,,,,,,,,,,,,,,,,,,,,,,,,,,,,,,,,345.27060719999986,345.2845241,345.7866228999999,345.769129,345.78370599999994,345.7866228999999,345.7866228999999,345.7866228999999,346.6031937,Objects\299a.jpg,mid,o,0.7998149000000012,None,,,,,,,,00033,001,2025-11-18_15h10.05.046,MST_test,2024.2.0,60.11887907140667,2025-11-18 15h10.17.328492 +0530,
147,0,148,o,2.431554799999958,None,148,0,147,346.6180153,,,,,,,,,,,,,,,,,,,,,,,,,,,,,,,,,,,,,,,,,,,,,,,,,,346.60358659999997,346.6180153,347.1227993,347.10239119999983,347.1200265,347.1227993,347.1227993,347.1227993,349.5702724,Objects\123b.jpg,post,o,2.431554799999958,None,,,,,,,,00033,001,2025-11-18_15h10.05.046,MST_test,2024.2.0,60.11887907140667,2025-11-18 15h10.17.328492 +0530,
148,0,149,o,0.8921447000000171,None,149,0,148,349.5844875999999,,,,,,,,,,,,,,,,,,,,,,,,,,,,,,,,,,,,,,,,,,,,,,,,,,349.5707705,349.5844875999999,350.0859518,350.0690476,350.08354199999985,350.0859518,350.0859518,350.0859518,350.9867145999999,Objects\187a.jpg,pre,o,0.8921447000000171,None,,,,,,,,00033,001,2025-11-18_15h10.05.046,MST_test,2024.2.0,60.11887907140667,2025-11-18 15h10.17.328492 +0530,
149,0,150,s,1.0976812999999765,None,150,0,149,351.00122969999984,,,,,,,,,,,,,,,,,,,,,,,,,,,,,,,,,,,,,,,,,,,,,,,,,,350.98703879999994,351.00122969999984,351.50489489999995,351.48547959999996,351.5023254,351.50489489999995,351.50489489999995,351.50489489999995,352.6202559999999,Foils\066a.jpg,none,s,1.0976812999999765,None,,,,,,,,00033,001,2025-11-18_15h10.05.046,MST_test,2024.2.0,60.11887907140667,2025-11-18 15h10.17.328492 +0530,
,,,,,,,,,,,,,,,,,,,,,,,,,,,,,,,,,,,,,,,,,,,,,,,,,,,,,,,,,,,,,,,,,,,,,,,,,352.62052300000005,352.63458419999984,352.63458419999984,353.8698821999999,space,1.224226599999838,None,00033,001,2025-11-18_15h10.05.046,MST_test,2024.2.0,60.11887907140667,2025-11-18 15h10.17.328492 +0530,
