thisN,thisTrialN,thisRepN,key_resp_3.keys,key_resp_3.rt,key_resp_3.duration,trials.thisRepN,trials.thisTrialN,trials.thisN,thisRow.t,notes,intro_page.started,text.started,key_resp.started,intro_page.stopped,key_resp.keys,key_resp.rt,key_resp.duration,instructions.started,text_2.started,key_resp_2.started,instructions.stopped,key_resp_2.keys,key_resp_2.rt,key_resp_2.duration,demo1.started,image_1.started,image_2.started,text_7.started,key_resp_6.started,text_9.started,demo1.stopped,key_resp_6.keys,key_resp_6.rt,key_resp_6.duration,demo3.started,image_5.started,image_6.started,text_11.started,text_12.started,key_resp_8.started,demo3.stopped,key_resp_8.keys,key_resp_8.rt,key_resp_8.duration,demo_conclusion.started,text_13.started,key_resp_9.started,demo_conclusion.stopped,key_resp_9.keys,key_resp_9.rt,key_resp_9.duration,start_test.started,text_6.started,key_resp_5.started,start_test.stopped,key_resp_5.keys,key_resp_5.rt,key_resp_5.duration,ISI.started,text_4.started,text_4.stopped,ISI.stopped,routine_1.started,image.started,text_3.started,key_resp_3.started,routine_1.stopped,image_path,position_of_stimuli,trials.key_resp_3.keys,trials.key_resp_3.rt,trials.key_resp_3.duration,End_page.started,text_5.started,key_resp_4.started,End_page.stopped,key_resp_4.keys,key_resp_4.rt,key_resp_4.duration,participant,session,date,expName,psychopyVersion,frameRate,expStart,
,,,,,,,,,,,0.001686600000539329,0.003853299996990245,0.003853299996990245,4.421231499996793,space,4.397316800001136,None,,,,,,,,,,,,,,,,,,,,,,,,,,,,,,,,,,,,,,,,,,,,,,,,,,,,,,,,,,,,,,,00038,001,2026-01-17_11h39.48.495,MST_test,2024.2.0,59.89487252111673,2026-01-17 11h40.09.256325 +0530,
,,,,,,,,,,,,,,,,,,4.421282700001029,4.437929599997005,4.437929599997005,26.215576199996576,space,21.770523500003037,None,,,,,,,,,,,,,,,,,,,,,,,,,,,,,,,,,,,,,,,,,,,,,,,,,,,,,,,,00038,001,2026-01-17_11h39.48.495,MST_test,2024.2.0,59.89487252111673,2026-01-17 11h40.09.256325 +0530,
,,,,,,,,,,,,,,,,,,,,,,,,,26.21566029999667,26.2517366999964,26.2517366999964,26.2517366999964,26.2517366999964,26.2517366999964,37.13256700000056,space,10.867883699997037,None,,,,,,,,,,,,,,,,,,,,,,,,,,,,,,,,,,,,,,,,,,,,,,00038,001,2026-01-17_11h39.48.495,MST_test,2024.2.0,59.89487252111673,2026-01-17 11h40.09.256325 +0530,
,,,,,,,,,,,,,,,,,,,,,,,,,,,,,,,,,,,37.13269330000185,37.147804799998994,37.147804799998994,37.147804799998994,37.147804799998994,37.147804799998994,52.08248469999671,space,14.924436099994637,None,,,,,,,,,,,,,,,,,,,,,,,,,,,,,,,,,,,,00038,001,2026-01-17_11h39.48.495,MST_test,2024.2.0,59.89487252111673,2026-01-17 11h40.09.256325 +0530,
,,,,,,,,,,,,,,,,,,,,,,,,,,,,,,,,,,,,,,,,,,,,,52.08260789999622,52.09725500000059,52.09725500000059,173.4832161000013,space,121.37498780000169,None,,,,,,,,,,,,,,,,,,,,,,,,,,,,,00038,001,2026-01-17_11h39.48.495,MST_test,2024.2.0,59.89487252111673,2026-01-17 11h40.09.256325 +0530,
,,,,,,,,,,,,,,,,,,,,,,,,,,,,,,,,,,,,,,,,,,,,,,,,,,,,173.48341470000014,173.5109706000003,173.5109706000003,251.9495648000011,space,78.43247390000033,None,,,,,,,,,,,,,,,,,,,,,,00038,001,2026-01-17_11h39.48.495,MST_test,2024.2.0,59.89487252111673,2026-01-17 11h40.09.256325 +0530,
0,0,1,o,8.957960899999307,None,1,0,0,251.96357980000175,,,,,,,,,,,,,,,,,,,,,,,,,,,,,,,,,,,,,,,,,,,,,,,,,,251.95854639999743,251.96357980000175,252.46482690000266,252.4486173999976,252.46225240000058,252.46482690000266,252.46482690000266,252.46482690000266,261.43255710000085,Objects\204a.jpg,pre,o,8.957960899999307,None,,,,,,,,00038,001,2026-01-17_11h39.48.495,MST_test,2024.2.0,59.89487252111673,2026-01-17 11h40.09.256325 +0530,
1,0,2,o,6.277642200002447,None,2,0,1,261.4471319000004,,,,,,,,,,,,,,,,,,,,,,,,,,,,,,,,,,,,,,,,,,,,,,,,,,261.4329809999981,261.4471319000004,261.9772277000011,261.93160940000234,261.9737432999973,261.9772277000011,261.9772277000011,261.9772277000011,268.2661913999982,Foils\065a.jpg,none,o,6.277642200002447,None,,,,,,,,00038,001,2026-01-17_11h39.48.495,MST_test,2024.2.0,59.89487252111673,2026-01-17 11h40.09.256325 +0530,
2,0,3,o,4.5634302999969805,None,3,0,2,268.28046149999864,,,,,,,,,,,,,,,,,,,,,,,,,,,,,,,,,,,,,,,,,,,,,,,,,,268.26640329999645,268.28046149999864,268.7805941999977,268.7648310000004,268.77241810000123,268.7805941999977,268.7805941999977,268.7805941999977,273.3487785999969,Objects\040a.jpg,pre,o,4.5634302999969805,None,,,,,,,,00038,001,2026-01-17_11h39.48.495,MST_test,2024.2.0,59.89487252111673,2026-01-17 11h40.09.256325 +0530,
3,0,4,o,6.045796799997333,None,4,0,3,273.36396570000215,,,,,,,,,,,,,,,,,,,,,,,,,,,,,,,,,,,,,,,,,,,,,,,,,,273.3490252999982,273.36396570000215,273.9062246999965,273.84848590000183,273.903830999996,273.9062246999965,273.9062246999965,273.9062246999965,279.965435099999,Objects\357b.jpg,pre,o,6.045796799997333,None,,,,,,,,00038,001,2026-01-17_11h39.48.495,MST_test,2024.2.0,59.89487252111673,2026-01-17 11h40.09.256325 +0530,
4,0,5,o,8.622206000000006,None,5,0,4,279.98047580000275,,,,,,,,,,,,,,,,,,,,,,,,,,,,,,,,,,,,,,,,,,,,,,,,,,279.9656751000002,279.98047580000275,280.48128729999735,280.4650085999965,280.47356220000074,280.48128729999735,280.48128729999735,280.48128729999735,289.1157454999993,Objects\039a.jpg,pre,o,8.622206000000006,None,,,,,,,,00038,001,2026-01-17_11h39.48.495,MST_test,2024.2.0,59.89487252111673,2026-01-17 11h40.09.256325 +0530,
5,0,6,o,8.497195800002373,None,6,0,5,289.13043209999887,,,,,,,,,,,,,,,,,,,,,,,,,,,,,,,,,,,,,,,,,,,,,,,,,,289.1160588999992,289.13043209999887,289.6307078999962,289.6150009999983,289.6214891999989,289.6307078999962,289.6307078999962,289.6307078999962,298.13235559999885,Objects\184a.jpg,post,o,8.497195800002373,None,,,,,,,,00038,001,2026-01-17_11h39.48.495,MST_test,2024.2.0,59.89487252111673,2026-01-17 11h40.09.256325 +0530,
6,0,7,o,10.991851300001144,None,7,0,6,298.14725929999986,,,,,,,,,,,,,,,,,,,,,,,,,,,,,,,,,,,,,,,,,,,,,,,,,,298.1326590999961,298.14725929999986,298.64738789999683,298.63191650000226,298.64026329999615,298.64738789999683,298.64738789999683,298.64738789999683,309.64895799999795,Objects\053a.jpg,mid,o,10.991851300001144,None,,,,,,,,00038,001,2026-01-17_11h39.48.495,MST_test,2024.2.0,59.89487252111673,2026-01-17 11h40.09.256325 +0530,
7,0,8,n,8.318295800003398,None,8,0,7,309.66393589999643,,,,,,,,,,,,,,,,,,,,,,,,,,,,,,,,,,,,,,,,,,,,,,,,,,309.6492416999972,309.66393589999643,310.2811959000028,310.1479517999978,310.27825360000134,310.2811959000028,310.2811959000028,310.2811959000028,318.61577699999907,Foils\082a.jpg,none,n,8.318295800003398,None,,,,,,,,00038,001,2026-01-17_11h39.48.495,MST_test,2024.2.0,59.89487252111673,2026-01-17 11h40.09.256325 +0530,
8,0,9,s,19.290331099997275,None,9,0,8,318.63051489999634,,,,,,,,,,,,,,,,,,,,,,,,,,,,,,,,,,,,,,,,,,,,,,,,,,318.6161792999992,318.63051489999634,319.1735473000008,319.11496649999754,319.1707979999992,319.1735473000008,319.1735473000008,319.1735473000008,338.4662215999997,Objects\024b.jpg,post,s,19.290331099997275,None,,,,,,,,00038,001,2026-01-17_11h39.48.495,MST_test,2024.2.0,59.89487252111673,2026-01-17 11h40.09.256325 +0530,
9,0,10,o,4.356216100000893,None,10,0,9,338.4807116000011,,,,,,,,,,,,,,,,,,,,,,,,,,,,,,,,,,,,,,,,,,,,,,,,,,338.4665476000009,338.4807116000011,339.01859140000306,338.96493239999836,339.0151063000012,339.01859140000306,339.01859140000306,339.01859140000306,343.3828152999995,Objects\080b.jpg,post,o,4.356216100000893,None,,,,,,,,00038,001,2026-01-17_11h39.48.495,MST_test,2024.2.0,59.89487252111673,2026-01-17 11h40.09.256325 +0530,
10,0,11,s,5.237147400002868,None,11,0,10,343.3971808999995,,,,,,,,,,,,,,,,,,,,,,,,,,,,,,,,,,,,,,,,,,,,,,,,,,343.3831489000004,343.3971808999995,343.97786530000303,343.8816888000001,343.9747148000024,343.97786530000303,343.97786530000303,343.97786530000303,349.2324843000024,Objects\136b.jpg,post,s,5.237147400002868,None,,,,,,,,00038,001,2026-01-17_11h39.48.495,MST_test,2024.2.0,59.89487252111673,2026-01-17 11h40.09.256325 +0530,
11,0,12,s,8.987970499998482,None,12,0,11,349.24738909999724,,,,,,,,,,,,,,,,,,,,,,,,,,,,,,,,,,,,,,,,,,,,,,,,,,349.2328667999973,349.24738909999724,349.7475293000025,349.73229100000026,349.74198059999617,349.7475293000025,349.7475293000025,349.7475293000025,358.7494678000003,Objects\367a.jpg,post,s,8.987970499998482,None,,,,,,,,00038,001,2026-01-17_11h39.48.495,MST_test,2024.2.0,59.89487252111673,2026-01-17 11h40.09.256325 +0530,
12,0,13,o,2.0163513000006787,None,13,0,12,358.7639171999981,,,,,,,,,,,,,,,,,,,,,,,,,,,,,,,,,,,,,,,,,,,,,,,,,,358.74981149999803,358.7639171999981,359.2641990999982,359.2485091999988,359.25405129999854,359.2641990999982,359.2641990999982,359.2641990999982,361.2830396999998,Objects\344a.jpg,post,o,2.0163513000006787,None,,,,,,,,00038,001,2026-01-17_11h39.48.495,MST_test,2024.2.0,59.89487252111673,2026-01-17 11h40.09.256325 +0530,
13,0,14,o,2.241977300000144,None,14,0,13,361.29707519999647,,,,,,,,,,,,,,,,,,,,,,,,,,,,,,,,,,,,,,,,,,,,,,,,,,361.28338039999653,361.29707519999647,361.8208908000015,361.7804896000016,361.81752840000263,361.8208908000015,361.8208908000015,361.8208908000015,364.06546640000306,Objects\179b.jpg,pre,o,2.241977300000144,None,,,,,,,,00038,001,2026-01-17_11h39.48.495,MST_test,2024.2.0,59.89487252111673,2026-01-17 11h40.09.256325 +0530,
14,0,15,o,1.7628212999989046,None,15,0,14,364.0805162999968,,,,,,,,,,,,,,,,,,,,,,,,,,,,,,,,,,,,,,,,,,,,,,,,,,364.06569950000267,364.0805162999968,364.5810369000028,364.5653499999971,364.5716081999999,364.5810369000028,364.5810369000028,364.5810369000028,366.3489186000006,Objects\261a.jpg,post,o,1.7628212999989046,None,,,,,,,,00038,001,2026-01-17_11h39.48.495,MST_test,2024.2.0,59.89487252111673,2026-01-17 11h40.09.256325 +0530,
15,0,16,o,2.937309399996593,None,16,0,15,366.36382669999875,,,,,,,,,,,,,,,,,,,,,,,,,,,,,,,,,,,,,,,,,,,,,,,,,,366.3493148999987,366.36382669999875,366.9428459999981,366.84831850000046,366.94004049999785,366.9428459999981,366.9428459999981,366.9428459999981,369.8826201999982,Objects\085b.jpg,mid,o,2.937309399996593,None,,,,,,,,00038,001,2026-01-17_11h39.48.495,MST_test,2024.2.0,59.89487252111673,2026-01-17 11h40.09.256325 +0530,
16,0,17,s,3.065883000002941,None,17,0,16,369.8972130999973,,,,,,,,,,,,,,,,,,,,,,,,,,,,,,,,,,,,,,,,,,,,,,,,,,369.8830089999974,369.8972130999973,370.430180000003,370.38142569999764,370.4272140999965,370.430180000003,370.430180000003,370.430180000003,373.4989657999977,Objects\273b.jpg,pre,s,3.065883000002941,None,,,,,,,,00038,001,2026-01-17_11h39.48.495,MST_test,2024.2.0,59.89487252111673,2026-01-17 11h40.09.256325 +0530,
17,0,18,o,6.393153199998778,None,18,0,17,373.51381160000165,,,,,,,,,,,,,,,,,,,,,,,,,,,,,,,,,,,,,,,,,,,,,,,,,,373.49917339999956,373.51381160000165,374.01419090000127,373.9982497000019,374.0107540999961,374.01419090000127,374.01419090000127,374.01419090000127,380.4155954000016,Objects\227a.jpg,post,o,6.393153199998778,None,,,,,,,,00038,001,2026-01-17_11h39.48.495,MST_test,2024.2.0,59.89487252111673,2026-01-17 11h40.09.256325 +0530,
18,0,19,s,6.981574099998397,None,19,0,18,380.4306402000002,,,,,,,,,,,,,,,,,,,,,,,,,,,,,,,,,,,,,,,,,,,,,,,,,,380.41582899999776,380.4306402000002,380.9934753999987,380.91526870000234,380.99099240000214,380.9934753999987,380.9934753999987,380.9934753999987,387.9830010000005,Objects\005b.jpg,post,s,6.981574099998397,None,,,,,,,,00038,001,2026-01-17_11h39.48.495,MST_test,2024.2.0,59.89487252111673,2026-01-17 11h40.09.256325 +0530,
19,0,20,o,2.269437300004938,None,20,0,19,387.997268799998,,,,,,,,,,,,,,,,,,,,,,,,,,,,,,,,,,,,,,,,,,,,,,,,,,387.9832860999959,387.997268799998,388.49739620000037,388.4814234000005,388.49047679999785,388.49739620000037,388.49739620000037,388.49739620000037,390.78305309999996,Objects\366a.jpg,pre,o,2.269437300004938,None,,,,,,,,00038,001,2026-01-17_11h39.48.495,MST_test,2024.2.0,59.89487252111673,2026-01-17 11h40.09.256325 +0530,
20,0,21,n,4.606484199997794,None,21,0,20,390.79719959999784,,,,,,,,,,,,,,,,,,,,,,,,,,,,,,,,,,,,,,,,,,,,,,,,,,390.7834621000002,390.79719959999784,391.29742129999795,391.2815136999998,391.28905320000194,391.29742129999795,391.29742129999795,391.29742129999795,395.9160026000027,Objects\171a.jpg,pre,n,4.606484199997794,None,,,,,,,,00038,001,2026-01-17_11h39.48.495,MST_test,2024.2.0,59.89487252111673,2026-01-17 11h40.09.256325 +0530,
21,0,22,s,3.6371466999989934,None,22,0,21,395.9304321000018,,,,,,,,,,,,,,,,,,,,,,,,,,,,,,,,,,,,,,,,,,,,,,,,,,395.9164101999995,395.9304321000018,396.4661618999962,396.4150152000002,396.4636019999962,396.4661618999962,396.4661618999962,396.4661618999962,400.1158110999968,Objects\180b.jpg,post,s,3.6371466999989934,None,,,,,,,,00038,001,2026-01-17_11h39.48.495,MST_test,2024.2.0,59.89487252111673,2026-01-17 11h40.09.256325 +0530,
22,0,23,o,5.6643220000041765,None,23,0,22,400.1307052999982,,,,,,,,,,,,,,,,,,,,,,,,,,,,,,,,,,,,,,,,,,,,,,,,,,400.1161326000001,400.1307052999982,400.6311792999986,400.61513710000145,400.6214378000004,400.6311792999986,400.6311792999986,400.6311792999986,406.2989441999962,Objects\289a.jpg,pre,o,5.6643220000041765,None,,,,,,,,00038,001,2026-01-17_11h39.48.495,MST_test,2024.2.0,59.89487252111673,2026-01-17 11h40.09.256325 +0530,
23,0,24,s,5.622941400004493,None,24,0,23,406.3138372999965,,,,,,,,,,,,,,,,,,,,,,,,,,,,,,,,,,,,,,,,,,,,,,,,,,406.29935300000216,406.3138372999965,406.84059759999946,406.79818030000024,406.83774789999734,406.84059759999946,406.84059759999946,406.84059759999946,412.4657437999995,Objects\384b.jpg,post,s,5.622941400004493,None,,,,,,,,00038,001,2026-01-17_11h39.48.495,MST_test,2024.2.0,59.89487252111673,2026-01-17 11h40.09.256325 +0530,
24,0,25,o,1.5468014999933075,None,25,0,24,412.48064229999727,,,,,,,,,,,,,,,,,,,,,,,,,,,,,,,,,,,,,,,,,,,,,,,,,,412.4659911999988,412.48064229999727,412.9809314000013,412.9650722000006,412.97147669999686,412.9809314000013,412.9809314000013,412.9809314000013,414.5325107000026,Objects\027a.jpg,post,o,1.5468014999933075,None,,,,,,,,00038,001,2026-01-17_11h39.48.495,MST_test,2024.2.0,59.89487252111673,2026-01-17 11h40.09.256325 +0530,
25,0,26,o,1.9280232000019168,None,26,0,25,414.5470800999974,,,,,,,,,,,,,,,,,,,,,,,,,,,,,,,,,,,,,,,,,,,,,,,,,,414.53277929999604,414.5470800999974,415.0474036000014,415.0316213999977,415.0375700000004,415.0474036000014,415.0474036000014,415.0474036000014,416.98251110000274,Objects\177a.jpg,pre,o,1.9280232000019168,None,,,,,,,,00038,001,2026-01-17_11h39.48.495,MST_test,2024.2.0,59.89487252111673,2026-01-17 11h40.09.256325 +0530,
26,0,27,n,4.776836499993806,None,27,0,26,416.99710400000185,,,,,,,,,,,,,,,,,,,,,,,,,,,,,,,,,,,,,,,,,,,,,,,,,,416.9828164999999,416.99710400000185,417.51121469999634,417.4813374000005,417.50842540000303,417.51121469999634,417.51121469999634,417.51121469999634,422.2987962999978,Foils\058a.jpg,none,n,4.776836499993806,None,,,,,,,,00038,001,2026-01-17_11h39.48.495,MST_test,2024.2.0,59.89487252111673,2026-01-17 11h40.09.256325 +0530,
27,0,28,o,2.3530631000030553,None,28,0,27,422.31384969999635,,,,,,,,,,,,,,,,,,,,,,,,,,,,,,,,,,,,,,,,,,,,,,,,,,422.2991273000007,422.31384969999635,422.81485290000273,422.798572599997,422.8040946999972,422.81485290000273,422.81485290000273,422.81485290000273,425.18270949999715,Objects\325a.jpg,pre,o,2.3530631000030553,None,,,,,,,,00038,001,2026-01-17_11h39.48.495,MST_test,2024.2.0,59.89487252111673,2026-01-17 11h40.09.256325 +0530,
28,0,29,s,5.877967600004922,None,29,0,28,425.197222099996,,,,,,,,,,,,,,,,,,,,,,,,,,,,,,,,,,,,,,,,,,,,,,,,,,425.1831239000021,425.197222099996,425.6976988999959,425.68151979999675,425.69070649999776,425.6976988999959,425.6976988999959,425.6976988999959,431.58221369999956,Objects\302a.jpg,mid,s,5.877967600004922,None,,,,,,,,00038,001,2026-01-17_11h39.48.495,MST_test,2024.2.0,59.89487252111673,2026-01-17 11h40.09.256325 +0530,
29,0,30,o,3.392728699996951,None,30,0,29,431.59739940000145,,,,,,,,,,,,,,,,,,,,,,,,,,,,,,,,,,,,,,,,,,,,,,,,,,431.5824552999984,431.59739940000145,432.16639399999985,432.08144280000124,432.163638799997,432.16639399999985,432.16639399999985,432.16639399999985,435.566330499998,Objects\002b.jpg,pre,o,3.392728699996951,None,,,,,,,,00038,001,2026-01-17_11h39.48.495,MST_test,2024.2.0,59.89487252111673,2026-01-17 11h40.09.256325 +0530,
30,0,31,o,1.7044021999972756,None,31,0,30,435.5806079000031,,,,,,,,,,,,,,,,,,,,,,,,,,,,,,,,,,,,,,,,,,,,,,,,,,435.5667201999968,435.5806079000031,436.1196076999986,436.0647762000008,436.1169783000005,436.1196076999986,436.1196076999986,436.1196076999986,437.8327466999981,Objects\115b.jpg,mid,o,1.7044021999972756,None,,,,,,,,00038,001,2026-01-17_11h39.48.495,MST_test,2024.2.0,59.89487252111673,2026-01-17 11h40.09.256325 +0530,
31,0,32,o,1.4118365999966045,None,32,0,31,437.8473765000017,,,,,,,,,,,,,,,,,,,,,,,,,,,,,,,,,,,,,,,,,,,,,,,,,,437.83309200000076,437.8473765000017,438.3475449999969,438.33172670000204,438.34001590000116,438.3475449999969,438.3475449999969,438.3475449999969,439.7663539999994,Objects\022a.jpg,post,o,1.4118365999966045,None,,,,,,,,00038,001,2026-01-17_11h39.48.495,MST_test,2024.2.0,59.89487252111673,2026-01-17 11h40.09.256325 +0530,
32,0,33,o,3.471059999996214,None,33,0,32,439.7804627000005,,,,,,,,,,,,,,,,,,,,,,,,,,,,,,,,,,,,,,,,,,,,,,,,,,439.7666753000012,439.7804627000005,440.2807201999967,440.2646496000016,440.2731096999996,440.2807201999967,440.2807201999967,440.2807201999967,443.7658412000019,Objects\378a.jpg,pre,o,3.471059999996214,None,,,,,,,,00038,001,2026-01-17_11h39.48.495,MST_test,2024.2.0,59.89487252111673,2026-01-17 11h40.09.256325 +0530,
33,0,34,n,2.9551086999999825,None,34,0,33,443.78084719999606,,,,,,,,,,,,,,,,,,,,,,,,,,,,,,,,,,,,,,,,,,,,,,,,,,443.7661109999972,443.78084719999606,444.34817889999977,444.26498410000204,444.3454722000024,444.34817889999977,444.34817889999977,444.34817889999977,447.3155082000012,Foils\033a.jpg,none,n,2.9551086999999825,None,,,,,,,,00038,001,2026-01-17_11h39.48.495,MST_test,2024.2.0,59.89487252111673,2026-01-17 11h40.09.256325 +0530,
34,0,35,o,2.272641899995506,None,35,0,34,447.330498299998,,,,,,,,,,,,,,,,,,,,,,,,,,,,,,,,,,,,,,,,,,,,,,,,,,447.3157691000015,447.330498299998,447.8306831000009,447.8147807999994,447.82299429999694,447.8306831000009,447.8306831000009,447.8306831000009,450.1158691000019,Objects\234a.jpg,mid,o,2.272641899995506,None,,,,,,,,00038,001,2026-01-17_11h39.48.495,MST_test,2024.2.0,59.89487252111673,2026-01-17 11h40.09.256325 +0530,
35,0,36,o,3.5840606999990996,None,36,0,35,450.1310830000002,,,,,,,,,,,,,,,,,,,,,,,,,,,,,,,,,,,,,,,,,,,,,,,,,,450.1162758999999,450.1310830000002,450.6309706000029,450.6145338999995,450.61972460000106,450.6309706000029,450.6309706000029,450.6309706000029,454.23249419999775,Objects\381a.jpg,mid,o,3.5840606999990996,None,,,,,,,,00038,001,2026-01-17_11h39.48.495,MST_test,2024.2.0,59.89487252111673,2026-01-17 11h40.09.256325 +0530,
36,0,37,s,3.300560499999847,None,37,0,36,454.2472138000012,,,,,,,,,,,,,,,,,,,,,,,,,,,,,,,,,,,,,,,,,,,,,,,,,,454.23289430000295,454.2472138000012,454.82690379999985,454.7313340999972,454.82419669999945,454.82690379999985,454.82690379999985,454.82690379999985,458.13222269999824,Objects\322b.jpg,post,s,3.300560499999847,None,,,,,,,,00038,001,2026-01-17_11h39.48.495,MST_test,2024.2.0,59.89487252111673,2026-01-17 11h40.09.256325 +0530,
37,0,38,s,3.630107800003316,None,38,0,37,458.1472893999962,,,,,,,,,,,,,,,,,,,,,,,,,,,,,,,,,,,,,,,,,,,,,,,,,,458.1325680000009,458.1472893999962,458.72057140000106,458.63153469999816,458.71624619999784,458.72057140000106,458.72057140000106,458.72057140000106,462.36581199999637,Objects\363b.jpg,mid,s,3.630107800003316,None,,,,,,,,00038,001,2026-01-17_11h39.48.495,MST_test,2024.2.0,59.89487252111673,2026-01-17 11h40.09.256325 +0530,
38,0,39,o,3.670115499997337,None,39,0,38,462.3806007000021,,,,,,,,,,,,,,,,,,,,,,,,,,,,,,,,,,,,,,,,,,,,,,,,,,462.3661973999988,462.3806007000021,462.8810945000005,462.8647048999992,462.8703669999959,462.8810945000005,462.8810945000005,462.8810945000005,466.5658433999997,Objects\155a.jpg,post,o,3.670115499997337,None,,,,,,,,00038,001,2026-01-17_11h39.48.495,MST_test,2024.2.0,59.89487252111673,2026-01-17 11h40.09.256325 +0530,
39,0,40,s,4.561264400006621,None,40,0,39,466.5806158999985,,,,,,,,,,,,,,,,,,,,,,,,,,,,,,,,,,,,,,,,,,,,,,,,,,466.5662397999986,466.5806158999985,467.12535950000165,467.06526779999695,467.1225359000018,467.12535950000165,467.12535950000165,467.12535950000165,471.69899460000306,Objects\152b.jpg,mid,s,4.561264400006621,None,,,,,,,,00038,001,2026-01-17_11h39.48.495,MST_test,2024.2.0,59.89487252111673,2026-01-17 11h40.09.256325 +0530,
40,0,41,o,2.5680992000052356,None,41,0,40,471.71398079999926,,,,,,,,,,,,,,,,,,,,,,,,,,,,,,,,,,,,,,,,,,,,,,,,,,471.6992390000014,471.71398079999926,472.2145700999972,472.19904710000264,472.20743409999704,472.2145700999972,472.2145700999972,472.2145700999972,474.7990381999989,Objects\335a.jpg,post,o,2.5680992000052356,None,,,,,,,,00038,001,2026-01-17_11h39.48.495,MST_test,2024.2.0,59.89487252111673,2026-01-17 11h40.09.256325 +0530,
41,0,42,n,2.16586140000436,None,42,0,41,474.8140104999984,,,,,,,,,,,,,,,,,,,,,,,,,,,,,,,,,,,,,,,,,,,,,,,,,,474.7992704999997,474.8140104999984,475.4011548999988,475.2982602999982,475.39815480000107,475.4011548999988,475.4011548999988,475.4011548999988,477.58246599999984,Foils\f6.jpg,none,n,2.16586140000436,None,,,,,,,,00038,001,2026-01-17_11h39.48.495,MST_test,2024.2.0,59.89487252111673,2026-01-17 11h40.09.256325 +0530,
42,0,43,o,4.204715100000612,None,43,0,42,477.59711999999854,,,,,,,,,,,,,,,,,,,,,,,,,,,,,,,,,,,,,,,,,,,,,,,,,,477.5827378999966,477.59711999999854,478.1142116999981,478.0817296000023,478.11180310000054,478.1142116999981,478.1142116999981,478.1142116999981,482.33249239999714,Objects\373b.jpg,mid,o,4.204715100000612,None,,,,,,,,00038,001,2026-01-17_11h39.48.495,MST_test,2024.2.0,59.89487252111673,2026-01-17 11h40.09.256325 +0530,
43,0,44,s,3.503426399998716,None,44,0,43,482.34774430000107,,,,,,,,,,,,,,,,,,,,,,,,,,,,,,,,,,,,,,,,,,,,,,,,,,482.332840199997,482.34774430000107,482.87965260000055,482.83173910000187,482.876021899996,482.87965260000055,482.87965260000055,482.87965260000055,486.39921189999586,Objects\203b.jpg,pre,s,3.503426399998716,None,,,,,,,,00038,001,2026-01-17_11h39.48.495,MST_test,2024.2.0,59.89487252111673,2026-01-17 11h40.09.256325 +0530,
44,0,45,s,7.862679500001832,None,45,0,44,486.41382290000183,,,,,,,,,,,,,,,,,,,,,,,,,,,,,,,,,,,,,,,,,,,,,,,,,,486.3994664999991,486.41382290000183,486.94532379999873,486.89844340000127,486.9422657999967,486.94532379999873,486.94532379999873,486.94532379999873,494.81583580000006,Objects\280b.jpg,mid,s,7.862679500001832,None,,,,,,,,00038,001,2026-01-17_11h39.48.495,MST_test,2024.2.0,59.89487252111673,2026-01-17 11h40.09.256325 +0530,
45,0,46,o,2.1614555999985896,None,46,0,45,494.830855799999,,,,,,,,,,,,,,,,,,,,,,,,,,,,,,,,,,,,,,,,,,,,,,,,,,494.8162029000014,494.830855799999,495.3419739000019,495.31506829999853,495.33885100000043,495.3419739000019,495.3419739000019,495.3419739000019,497.51613660000294,Objects\120b.jpg,pre,o,2.1614555999985896,None,,,,,,,,00038,001,2026-01-17_11h39.48.495,MST_test,2024.2.0,59.89487252111673,2026-01-17 11h40.09.256325 +0530,
46,0,47,s,5.950119099994481,None,47,0,46,497.53047730000253,,,,,,,,,,,,,,,,,,,,,,,,,,,,,,,,,,,,,,,,,,,,,,,,,,497.51644079999824,497.53047730000253,498.06478739999875,498.01458090000233,498.0618433999989,498.06478739999875,498.06478739999875,498.06478739999875,504.03214540000045,Objects\277b.jpg,mid,s,5.950119099994481,None,,,,,,,,00038,001,2026-01-17_11h39.48.495,MST_test,2024.2.0,59.89487252111673,2026-01-17 11h40.09.256325 +0530,
47,0,48,o,1.5372787000014796,None,48,0,47,504.04764720000094,,,,,,,,,,,,,,,,,,,,,,,,,,,,,,,,,,,,,,,,,,,,,,,,,,504.03245230000175,504.04764720000094,504.58169759999873,504.5318477999972,504.57882860000245,504.58169759999873,504.58169759999873,504.58169759999873,506.1330181000012,Objects\083b.jpg,pre,o,1.5372787000014796,None,,,,,,,,00038,001,2026-01-17_11h39.48.495,MST_test,2024.2.0,59.89487252111673,2026-01-17 11h40.09.256325 +0530,
48,0,49,s,2.8404453999974066,None,49,0,48,506.1472261000017,,,,,,,,,,,,,,,,,,,,,,,,,,,,,,,,,,,,,,,,,,,,,,,,,,506.1333178999994,506.1472261000017,506.7035049999977,506.63157389999833,506.7003463000001,506.7035049999977,506.7035049999977,506.7035049999977,509.5489525000012,Objects\281b.jpg,pre,s,2.8404453999974066,None,,,,,,,,00038,001,2026-01-17_11h39.48.495,MST_test,2024.2.0,59.89487252111673,2026-01-17 11h40.09.256325 +0530,
49,0,50,o,3.9662351999941166,None,50,0,49,509.56397480000305,,,,,,,,,,,,,,,,,,,,,,,,,,,,,,,,,,,,,,,,,,,,,,,,,,509.5492626999985,509.56397480000305,510.06524640000134,510.04823190000025,510.05623619999824,510.06524640000134,510.06524640000134,510.06524640000134,514.0333812000026,Objects\036a.jpg,post,o,3.9662351999941166,None,,,,,,,,00038,001,2026-01-17_11h39.48.495,MST_test,2024.2.0,59.89487252111673,2026-01-17 11h40.09.256325 +0530,
50,0,51,o,2.14154370000324,None,51,0,50,514.0474981000007,,,,,,,,,,,,,,,,,,,,,,,,,,,,,,,,,,,,,,,,,,,,,,,,,,514.0337670000008,514.0474981000007,514.601039299996,514.5313564000026,514.5981284000009,514.601039299996,514.601039299996,514.601039299996,516.7492207999967,Objects\008b.jpg,mid,o,2.14154370000324,None,,,,,,,,00038,001,2026-01-17_11h39.48.495,MST_test,2024.2.0,59.89487252111673,2026-01-17 11h40.09.256325 +0530,
51,0,52,s,10.148867500000051,None,52,0,51,516.7636593999996,,,,,,,,,,,,,,,,,,,,,,,,,,,,,,,,,,,,,,,,,,,,,,,,,,516.7495952999961,516.7636593999996,517.3069955999963,517.2484629999963,517.3033071000027,517.3069955999963,517.3069955999963,517.3069955999963,527.4656858000017,Objects\370b.jpg,post,s,10.148867500000051,None,,,,,,,,00038,001,2026-01-17_11h39.48.495,MST_test,2024.2.0,59.89487252111673,2026-01-17 11h40.09.256325 +0530,
52,0,53,n,2.1137390000003506,None,53,0,52,527.480859999996,,,,,,,,,,,,,,,,,,,,,,,,,,,,,,,,,,,,,,,,,,,,,,,,,,527.4660624000026,527.480859999996,527.9981746999983,527.9661390999972,527.9954683999968,527.9981746999983,527.9981746999983,527.9981746999983,530.1158786000015,Foils\018a.jpg,none,n,2.1137390000003506,None,,,,,,,,00038,001,2026-01-17_11h39.48.495,MST_test,2024.2.0,59.89487252111673,2026-01-17 11h40.09.256325 +0530,
53,0,54,n,6.089356299999054,None,54,0,53,530.1304133000012,,,,,,,,,,,,,,,,,,,,,,,,,,,,,,,,,,,,,,,,,,,,,,,,,,530.1161350999973,530.1304133000012,530.7500643000021,530.6148224999997,530.7471979999973,530.7500643000021,530.7500643000021,530.7500643000021,536.849149499998,Foils\101b.jpg,none,n,6.089356299999054,None,,,,,,,,00038,001,2026-01-17_11h39.48.495,MST_test,2024.2.0,59.89487252111673,2026-01-17 11h40.09.256325 +0530,
54,0,55,n,3.1759230000025127,None,55,0,54,536.8638697999995,,,,,,,,,,,,,,,,,,,,,,,,,,,,,,,,,,,,,,,,,,,,,,,,,,536.8500942999963,536.8638697999995,537.3995540999967,537.3483574999991,537.3968123000013,537.3995540999967,537.3995540999967,537.3995540999967,540.5829671000029,Foils\121a.jpg,none,n,3.1759230000025127,None,,,,,,,,00038,001,2026-01-17_11h39.48.495,MST_test,2024.2.0,59.89487252111673,2026-01-17 11h40.09.256325 +0530,
55,0,56,n,6.607678799999121,None,56,0,55,540.5973407999991,,,,,,,,,,,,,,,,,,,,,,,,,,,,,,,,,,,,,,,,,,,,,,,,,,540.5832731999981,540.5973407999991,541.1270416999978,541.0814096999966,541.1243375999984,541.1270416999978,541.1270416999978,541.1270416999978,547.7485059999963,Objects\056b.jpg,post,n,6.607678799999121,None,,,,,,,,00038,001,2026-01-17_11h39.48.495,MST_test,2024.2.0,59.89487252111673,2026-01-17 11h40.09.256325 +0530,
56,0,57,n,5.1521173000001,None,57,0,56,547.7636955999988,,,,,,,,,,,,,,,,,,,,,,,,,,,,,,,,,,,,,,,,,,,,,,,,,,547.7486648999984,547.7636955999988,548.342353400003,548.2485508000027,548.3392191000021,548.342353400003,548.342353400003,548.342353400003,553.4988961999989,Foils\097a.jpg,none,n,5.1521173000001,None,,,,,,,,00038,001,2026-01-17_11h39.48.495,MST_test,2024.2.0,59.89487252111673,2026-01-17 11h40.09.256325 +0530,
57,0,58,o,2.873666999999841,None,58,0,57,553.5144901000021,,,,,,,,,,,,,,,,,,,,,,,,,,,,,,,,,,,,,,,,,,,,,,,,,,553.4991702999978,553.5144901000021,554.0141005999976,553.9987523000018,554.0075931000029,554.0141005999976,554.0141005999976,554.0141005999976,556.8991529999985,Objects\125a.jpg,post,o,2.873666999999841,None,,,,,,,,00038,001,2026-01-17_11h39.48.495,MST_test,2024.2.0,59.89487252111673,2026-01-17 11h40.09.256325 +0530,
58,0,59,o,1.4648048000017297,None,59,0,58,556.9140102000019,,,,,,,,,,,,,,,,,,,,,,,,,,,,,,,,,,,,,,,,,,,,,,,,,,556.8994122000004,556.9140102000019,557.4143977999993,557.3982810000016,557.4062794999991,557.4143977999993,557.4143977999993,557.4143977999993,558.8827689000027,Objects\067a.jpg,mid,o,1.4648048000017297,None,,,,,,,,00038,001,2026-01-17_11h39.48.495,MST_test,2024.2.0,59.89487252111673,2026-01-17 11h40.09.256325 +0530,
59,0,60,n,3.489220800001931,None,60,0,59,558.8971149999998,,,,,,,,,,,,,,,,,,,,,,,,,,,,,,,,,,,,,,,,,,,,,,,,,,558.8831172999999,558.8971149999998,559.4701467999985,559.3822300999964,559.4673307999983,559.4701467999985,559.4701467999985,559.4701467999985,562.9658014000015,Foils\f7.jpg,none,n,3.489220800001931,None,,,,,,,,00038,001,2026-01-17_11h39.48.495,MST_test,2024.2.0,59.89487252111673,2026-01-17 11h40.09.256325 +0530,
60,0,61,o,14.79824809999991,None,61,0,60,562.9808018999975,,,,,,,,,,,,,,,,,,,,,,,,,,,,,,,,,,,,,,,,,,,,,,,,,,562.9660529999965,562.9808018999975,563.4812682999982,563.4650099999999,563.472165500003,563.4812682999982,563.4812682999982,563.4812682999982,578.2829137000008,Objects\219a.jpg,post,o,14.79824809999991,None,,,,,,,,00038,001,2026-01-17_11h39.48.495,MST_test,2024.2.0,59.89487252111673,2026-01-17 11h40.09.256325 +0530,
61,0,62,o,2.2097051000018837,None,62,0,61,578.297198399996,,,,,,,,,,,,,,,,,,,,,,,,,,,,,,,,,,,,,,,,,,,,,,,,,,578.2833007000008,578.297198399996,578.8300911999977,578.781637,578.8275087000002,578.8300911999977,578.8300911999977,578.8300911999977,581.0491175999996,Objects\380b.jpg,post,o,2.2097051000018837,None,,,,,,,,00038,001,2026-01-17_11h39.48.495,MST_test,2024.2.0,59.89487252111673,2026-01-17 11h40.09.256325 +0530,
62,0,63,n,2.365995499996643,None,63,0,62,581.0640686999977,,,,,,,,,,,,,,,,,,,,,,,,,,,,,,,,,,,,,,,,,,,,,,,,,,581.0493788000022,581.0640686999977,581.609341299998,581.5482206000015,581.6060097000009,581.609341299998,581.609341299998,581.609341299998,583.9822884000023,Foils\081a.jpg,none,n,2.365995499996643,None,,,,,,,,00038,001,2026-01-17_11h39.48.495,MST_test,2024.2.0,59.89487252111673,2026-01-17 11h40.09.256325 +0530,
63,0,64,o,2.9227234999998473,None,64,0,63,583.9973520999993,,,,,,,,,,,,,,,,,,,,,,,,,,,,,,,,,,,,,,,,,,,,,,,,,,583.9825482000015,583.9973520999993,584.5255686000019,584.4816503999973,584.5221840000013,584.5255686000019,584.5255686000019,584.5255686000019,587.4498103000005,Objects\306b.jpg,post,o,2.9227234999998473,None,,,,,,,,00038,001,2026-01-17_11h39.48.495,MST_test,2024.2.0,59.89487252111673,2026-01-17 11h40.09.256325 +0530,
64,0,65,s,2.9299190000019735,None,65,0,64,587.4639900999973,,,,,,,,,,,,,,,,,,,,,,,,,,,,,,,,,,,,,,,,,,,,,,,,,,587.4500801999966,587.4639900999973,588.0055989999964,587.9488067999991,588.0028116999965,588.0055989999964,588.0055989999964,588.0055989999964,590.9495362000016,Objects\061b.jpg,pre,s,2.9299190000019735,None,,,,,,,,00038,001,2026-01-17_11h39.48.495,MST_test,2024.2.0,59.89487252111673,2026-01-17 11h40.09.256325 +0530,
65,0,66,o,6.617540999999619,None,66,0,65,590.9641695000028,,,,,,,,,,,,,,,,,,,,,,,,,,,,,,,,,,,,,,,,,,,,,,,,,,590.949838200002,590.9641695000028,591.5017824999959,591.448049300001,591.4982870000022,591.5017824999959,591.5017824999959,591.5017824999959,598.132937800001,Objects\240b.jpg,pre,o,6.617540999999619,None,,,,,,,,00038,001,2026-01-17_11h39.48.495,MST_test,2024.2.0,59.89487252111673,2026-01-17 11h40.09.256325 +0530,
66,0,67,o,6.116141200000129,None,67,0,66,598.1471362000011,,,,,,,,,,,,,,,,,,,,,,,,,,,,,,,,,,,,,,,,,,,,,,,,,,598.1333239000014,598.1471362000011,598.6593390999988,598.6319584000012,598.6558140999987,598.6593390999988,598.6593390999988,598.6593390999988,604.7826543999981,Objects\130b.jpg,mid,o,6.116141200000129,None,,,,,,,,00038,001,2026-01-17_11h39.48.495,MST_test,2024.2.0,59.89487252111673,2026-01-17 11h40.09.256325 +0530,
67,0,68,s,4.333053899994411,None,68,0,67,604.7974188000007,,,,,,,,,,,,,,,,,,,,,,,,,,,,,,,,,,,,,,,,,,,,,,,,,,604.7830019999965,604.7974188000007,605.3306484999994,605.2816440999959,605.3281487999993,605.3306484999994,605.3306484999994,605.3306484999994,609.6660045000026,Objects\146b.jpg,mid,s,4.333053899994411,None,,,,,,,,00038,001,2026-01-17_11h39.48.495,MST_test,2024.2.0,59.89487252111673,2026-01-17 11h40.09.256325 +0530,
68,0,69,o,3.258556900000258,None,69,0,68,609.6807138000004,,,,,,,,,,,,,,,,,,,,,,,,,,,,,,,,,,,,,,,,,,,,,,,,,,609.666449999997,609.6807138000004,610.1809252000021,610.1649573999966,610.176026000001,610.1809252000021,610.1809252000021,610.1809252000021,613.4490778999971,Objects\291a.jpg,post,o,3.258556900000258,None,,,,,,,,00038,001,2026-01-17_11h39.48.495,MST_test,2024.2.0,59.89487252111673,2026-01-17 11h40.09.256325 +0530,
69,0,70,s,4.275284100003773,None,70,0,69,613.4639511999994,,,,,,,,,,,,,,,,,,,,,,,,,,,,,,,,,,,,,,,,,,,,,,,,,,613.4494024000014,613.4639511999994,614.0127861000001,613.9483825999996,614.0100753000006,614.0127861000001,614.0127861000001,614.0127861000001,618.2995682999972,Objects\238b.jpg,mid,s,4.275284100003773,None,,,,,,,,00038,001,2026-01-17_11h39.48.495,MST_test,2024.2.0,59.89487252111673,2026-01-17 11h40.09.256325 +0530,
70,0,71,o,2.168299199998728,None,71,0,70,618.3137970000025,,,,,,,,,,,,,,,,,,,,,,,,,,,,,,,,,,,,,,,,,,,,,,,,,,618.2999290000007,618.3137970000025,618.8142902999971,618.798363599999,618.8051244000017,618.8142902999971,618.8142902999971,618.8142902999971,620.999241700003,Objects\160a.jpg,mid,o,2.168299199998728,None,,,,,,,,00038,001,2026-01-17_11h39.48.495,MST_test,2024.2.0,59.89487252111673,2026-01-17 11h40.09.256325 +0530,
71,0,72,o,7.082278900001256,None,72,0,71,621.0138062999977,,,,,,,,,,,,,,,,,,,,,,,,,,,,,,,,,,,,,,,,,,,,,,,,,,620.999656400003,621.0138062999977,621.5412080000024,621.4986634000015,621.538530699996,621.5412080000024,621.5412080000024,621.5412080000024,628.6330548999977,Foils\057a.jpg,none,o,7.082278900001256,None,,,,,,,,00038,001,2026-01-17_11h39.48.495,MST_test,2024.2.0,59.89487252111673,2026-01-17 11h40.09.256325 +0530,
72,0,73,n,2.3917742000048747,None,73,0,72,628.6473633999994,,,,,,,,,,,,,,,,,,,,,,,,,,,,,,,,,,,,,,,,,,,,,,,,,,628.633328099997,628.6473633999994,629.255522499996,629.1316894999982,629.2524741000016,629.255522499996,629.255522499996,629.255522499996,631.6492266999994,Foils\098a.jpg,none,n,2.3917742000048747,None,,,,,,,,00038,001,2026-01-17_11h39.48.495,MST_test,2024.2.0,59.89487252111673,2026-01-17 11h40.09.256325 +0530,
73,0,74,s,3.2351333999977214,None,74,0,73,631.6639606000026,,,,,,,,,,,,,,,,,,,,,,,,,,,,,,,,,,,,,,,,,,,,,,,,,,631.6496240999986,631.6639606000026,632.2037515999982,632.1482531000001,632.201032799996,632.2037515999982,632.2037515999982,632.2037515999982,635.4500023,Objects\372b.jpg,mid,s,3.2351333999977214,None,,,,,,,,00038,001,2026-01-17_11h39.48.495,MST_test,2024.2.0,59.89487252111673,2026-01-17 11h40.09.256325 +0530,
74,0,75,n,5.321036800000002,None,75,0,74,635.4638268999988,,,,,,,,,,,,,,,,,,,,,,,,,,,,,,,,,,,,,,,,,,,,,,,,,,635.4503218999962,635.4638268999988,635.9986289000008,635.9481678000011,635.9956487000018,635.9986289000008,635.9986289000008,635.9986289000008,641.3324776000009,Foils\066a.jpg,none,n,5.321036800000002,None,,,,,,,,00038,001,2026-01-17_11h39.48.495,MST_test,2024.2.0,59.89487252111673,2026-01-17 11h40.09.256325 +0530,
75,0,76,n,2.234860900003696,None,76,0,75,641.3472323000024,,,,,,,,,,,,,,,,,,,,,,,,,,,,,,,,,,,,,,,,,,,,,,,,,,641.3328790000014,641.3472323000024,641.8928044999993,641.8316313999967,641.8899756999963,641.8928044999993,641.8928044999993,641.8928044999993,644.1327459000022,Foils\009a.jpg,none,n,2.234860900003696,None,,,,,,,,00038,001,2026-01-17_11h39.48.495,MST_test,2024.2.0,59.89487252111673,2026-01-17 11h40.09.256325 +0530,
76,0,77,s,6.8243468000000576,None,77,0,76,644.1472059000007,,,,,,,,,,,,,,,,,,,,,,,,,,,,,,,,,,,,,,,,,,,,,,,,,,644.1330747000029,644.1472059000007,644.7351130999959,644.6315105999965,644.7325005000021,644.7351130999959,644.7351130999959,644.7351130999959,651.5662892999972,Objects\332b.jpg,pre,s,6.8243468000000576,None,,,,,,,,00038,001,2026-01-17_11h39.48.495,MST_test,2024.2.0,59.89487252111673,2026-01-17 11h40.09.256325 +0530,
77,0,78,n,2.2890467999968678,None,78,0,77,651.5805564999973,,,,,,,,,,,,,,,,,,,,,,,,,,,,,,,,,,,,,,,,,,,,,,,,,,651.5666410999984,651.5805564999973,652.1026405000011,652.0649265999964,652.099876799999,652.1026405000011,652.1026405000011,652.1026405000011,654.3992303999985,Objects\122b.jpg,pre,n,2.2890467999968678,None,,,,,,,,00038,001,2026-01-17_11h39.48.495,MST_test,2024.2.0,59.89487252111673,2026-01-17 11h40.09.256325 +0530,
78,0,79,n,3.9070055000047432,None,79,0,78,654.4138934000002,,,,,,,,,,,,,,,,,,,,,,,,,,,,,,,,,,,,,,,,,,,,,,,,,,654.3995374000006,654.4138934000002,654.9399438999972,654.8982395999992,654.9373908999987,654.9399438999972,654.9399438999972,654.9399438999972,658.8495995999983,Objects\127b.jpg,post,n,3.9070055000047432,None,,,,,,,,00038,001,2026-01-17_11h39.48.495,MST_test,2024.2.0,59.89487252111673,2026-01-17 11h40.09.256325 +0530,
79,0,80,o,1.3148316000006162,None,80,0,79,658.8637713999997,,,,,,,,,,,,,,,,,,,,,,,,,,,,,,,,,,,,,,,,,,,,,,,,,,658.8500153999994,658.8637713999997,659.3646411000009,659.3486233000003,659.3550405999995,659.3646411000009,659.3646411000009,659.3646411000009,660.6822018000021,Objects\003a.jpg,mid,o,1.3148316000006162,None,,,,,,,,00038,001,2026-01-17_11h39.48.495,MST_test,2024.2.0,59.89487252111673,2026-01-17 11h40.09.256325 +0530,
80,0,81,o,1.6902428999965196,None,81,0,80,660.6971517999991,,,,,,,,,,,,,,,,,,,,,,,,,,,,,,,,,,,,,,,,,,,,,,,,,,660.6824441999997,660.6971517999991,661.1973800999986,661.1819325999968,661.1881444999963,661.1973800999986,661.1973800999986,661.1973800999986,662.8994212999969,Objects\043a.jpg,mid,o,1.6902428999965196,None,,,,,,,,00038,001,2026-01-17_11h39.48.495,MST_test,2024.2.0,59.89487252111673,2026-01-17 11h40.09.256325 +0530,
81,0,82,n,5.690613899998425,None,82,0,81,662.9138423999975,,,,,,,,,,,,,,,,,,,,,,,,,,,,,,,,,,,,,,,,,,,,,,,,,,662.8998266999988,662.9138423999975,663.4685911999986,663.3980378999986,663.4656376999992,663.4685911999986,663.4685911999986,663.4685911999986,669.1661105000021,Foils\026a.jpg,none,n,5.690613899998425,None,,,,,,,,00038,001,2026-01-17_11h39.48.495,MST_test,2024.2.0,59.89487252111673,2026-01-17 11h40.09.256325 +0530,
82,0,83,s,3.87840519999736,None,83,0,82,669.1813512000008,,,,,,,,,,,,,,,,,,,,,,,,,,,,,,,,,,,,,,,,,,,,,,,,,,669.1664642999967,669.1813512000008,669.6810794999983,669.6649305000028,669.6731789999976,669.6810794999983,669.6810794999983,669.6810794999983,673.5656242999976,Objects\195a.jpg,mid,s,3.87840519999736,None,,,,,,,,00038,001,2026-01-17_11h39.48.495,MST_test,2024.2.0,59.89487252111673,2026-01-17 11h40.09.256325 +0530,
83,0,84,o,9.309533999999985,None,84,0,83,673.581127999998,,,,,,,,,,,,,,,,,,,,,,,,,,,,,,,,,,,,,,,,,,,,,,,,,,673.5659336000026,673.581127999998,674.0811136999982,674.0653079999975,674.0735128000015,674.0811136999982,674.0811136999982,674.0811136999982,683.3992758000022,Objects\308a.jpg,mid,o,9.309533999999985,None,,,,,,,,00038,001,2026-01-17_11h39.48.495,MST_test,2024.2.0,59.89487252111673,2026-01-17 11h40.09.256325 +0530,
84,0,85,o,2.8763433000058285,None,85,0,84,683.4137985999987,,,,,,,,,,,,,,,,,,,,,,,,,,,,,,,,,,,,,,,,,,,,,,,,,,683.3996729999999,683.4137985999987,683.9144801000002,683.8983039000013,683.9040719999975,683.9144801000002,683.9144801000002,683.9144801000002,686.798928199998,Objects\274a.jpg,mid,o,2.8763433000058285,None,,,,,,,,00038,001,2026-01-17_11h39.48.495,MST_test,2024.2.0,59.89487252111673,2026-01-17 11h40.09.256325 +0530,
85,0,86,s,3.8324683000028017,None,86,0,85,686.8139279000025,,,,,,,,,,,,,,,,,,,,,,,,,,,,,,,,,,,,,,,,,,,,,,,,,,686.7991823999982,686.8139279000025,687.3673350999961,687.2981514999992,687.3645842999977,687.3673350999961,687.3673350999961,687.3673350999961,691.2158379999964,Objects\023b.jpg,post,s,3.8324683000028017,None,,,,,,,,00038,001,2026-01-17_11h39.48.495,MST_test,2024.2.0,59.89487252111673,2026-01-17 11h40.09.256325 +0530,
86,0,87,s,2.931922299998405,None,87,0,86,691.2304882999961,,,,,,,,,,,,,,,,,,,,,,,,,,,,,,,,,,,,,,,,,,,,,,,,,,691.2160987000025,691.2304882999961,691.7551897000012,691.7151766999959,691.7524028999978,691.7551897000012,691.7551897000012,691.7551897000012,694.6989212999979,Objects\107b.jpg,mid,s,2.931922299998405,None,,,,,,,,00038,001,2026-01-17_11h39.48.495,MST_test,2024.2.0,59.89487252111673,2026-01-17 11h40.09.256325 +0530,
87,0,88,o,1.6570597999962047,None,88,0,87,694.7138349000015,,,,,,,,,,,,,,,,,,,,,,,,,,,,,,,,,,,,,,,,,,,,,,,,,,694.6991344999988,694.7138349000015,695.2145170000003,695.1984092999992,695.2065471000024,695.2145170000003,695.2145170000003,695.2145170000003,696.882380199997,Objects\020a.jpg,mid,o,1.6570597999962047,None,,,,,,,,00038,001,2026-01-17_11h39.48.495,MST_test,2024.2.0,59.89487252111673,2026-01-17 11h40.09.256325 +0530,
88,0,89,s,6.256878999993205,None,89,0,88,696.897349400002,,,,,,,,,,,,,,,,,,,,,,,,,,,,,,,,,,,,,,,,,,,,,,,,,,696.8826690999995,696.897349400002,697.4298885000026,697.3815936999963,697.4272299000004,697.4298885000026,697.4298885000026,697.4298885000026,703.6992727999968,Objects\345b.jpg,pre,s,6.256878999993205,None,,,,,,,,00038,001,2026-01-17_11h39.48.495,MST_test,2024.2.0,59.89487252111673,2026-01-17 11h40.09.256325 +0530,
89,0,90,s,5.285742899999605,None,90,0,89,703.7138360999961,,,,,,,,,,,,,,,,,,,,,,,,,,,,,,,,,,,,,,,,,,,,,,,,,,703.6995796999981,703.7138360999961,704.249438699997,704.1987499000024,704.246522100002,704.249438699997,704.249438699997,704.249438699997,709.5491177000004,Objects\169b.jpg,mid,s,5.285742899999605,None,,,,,,,,00038,001,2026-01-17_11h39.48.495,MST_test,2024.2.0,59.89487252111673,2026-01-17 11h40.09.256325 +0530,
90,0,91,n,2.0227260000028764,None,91,0,90,709.5639461000028,,,,,,,,,,,,,,,,,,,,,,,,,,,,,,,,,,,,,,,,,,,,,,,,,,709.5495205999978,709.5639461000028,710.0962882000022,710.0481944999992,710.093332299999,710.0962882000022,710.0962882000022,710.0962882000022,712.1322403000013,Foils\002a.jpg,none,n,2.0227260000028764,None,,,,,,,,00038,001,2026-01-17_11h39.48.495,MST_test,2024.2.0,59.89487252111673,2026-01-17 11h40.09.256325 +0530,
91,0,92,n,4.477365599996119,None,92,0,91,712.1479785999982,,,,,,,,,,,,,,,,,,,,,,,,,,,,,,,,,,,,,,,,,,,,,,,,,,712.1324787999984,712.1479785999982,712.6739069999967,712.6314950000015,712.6711893000029,712.6739069999967,712.6739069999967,712.6739069999967,717.1659175000023,Objects\331b.jpg,pre,n,4.477365599996119,None,,,,,,,,00038,001,2026-01-17_11h39.48.495,MST_test,2024.2.0,59.89487252111673,2026-01-17 11h40.09.256325 +0530,
92,0,93,s,4.911414200003492,None,93,0,92,717.1805050999974,,,,,,,,,,,,,,,,,,,,,,,,,,,,,,,,,,,,,,,,,,,,,,,,,,717.166229800001,717.1805050999974,717.7120017999987,717.6652101,717.709311999999,717.7120017999987,717.7120017999987,717.7120017999987,722.6328084999986,Objects\013b.jpg,post,s,4.911414200003492,None,,,,,,,,00038,001,2026-01-17_11h39.48.495,MST_test,2024.2.0,59.89487252111673,2026-01-17 11h40.09.256325 +0530,
93,0,94,o,5.452000500001304,None,94,0,93,722.6472301000031,,,,,,,,,,,,,,,,,,,,,,,,,,,,,,,,,,,,,,,,,,,,,,,,,,722.6331266999987,722.6472301000031,723.1476139000006,723.1315252999993,723.1393511999995,723.1476139000006,723.1476139000006,723.1476139000006,728.6158359999972,Objects\011a.jpg,pre,o,5.452000500001304,None,,,,,,,,00038,001,2026-01-17_11h39.48.495,MST_test,2024.2.0,59.89487252111673,2026-01-17 11h40.09.256325 +0530,
94,0,95,o,1.988074000000779,None,95,0,94,728.6305361999985,,,,,,,,,,,,,,,,,,,,,,,,,,,,,,,,,,,,,,,,,,,,,,,,,,728.6160632000028,728.6305361999985,729.1309855,729.1148968999987,729.1241235999987,729.1309855,729.1309855,729.1309855,731.1323938999994,Objects\045a.jpg,post,o,1.988074000000779,None,,,,,,,,00038,001,2026-01-17_11h39.48.495,MST_test,2024.2.0,59.89487252111673,2026-01-17 11h40.09.256325 +0530,
95,0,96,o,1.6241829000064172,None,96,0,95,731.1478162999992,,,,,,,,,,,,,,,,,,,,,,,,,,,,,,,,,,,,,,,,,,,,,,,,,,731.1326600000029,731.1478162999992,731.6475224000023,731.6312793999969,731.6405050999965,731.6475224000023,731.6475224000023,731.6475224000023,733.2821658999965,Objects\050a.jpg,post,o,1.6241829000064172,None,,,,,,,,00038,001,2026-01-17_11h39.48.495,MST_test,2024.2.0,59.89487252111673,2026-01-17 11h40.09.256325 +0530,
96,0,97,o,3.4501205000051414,None,97,0,96,733.2972398999991,,,,,,,,,,,,,,,,,,,,,,,,,,,,,,,,,,,,,,,,,,,,,,,,,,733.2823683000024,733.2972398999991,733.7974533000015,733.781891300001,733.7882262999992,733.7974533000015,733.7974533000015,733.7974533000015,737.249565099999,Objects\049a.jpg,mid,o,3.4501205000051414,None,,,,,,,,00038,001,2026-01-17_11h39.48.495,MST_test,2024.2.0,59.89487252111673,2026-01-17 11h40.09.256325 +0530,
97,0,98,s,5.778695900000457,None,98,0,97,737.264027199999,,,,,,,,,,,,,,,,,,,,,,,,,,,,,,,,,,,,,,,,,,,,,,,,,,737.2498175000001,737.264027199999,737.7642803999988,737.7482586999977,737.7537340999988,737.7642803999988,737.7642803999988,737.7642803999988,743.5496397999959,Objects\006a.jpg,post,s,5.778695900000457,None,,,,,,,,00038,001,2026-01-17_11h39.48.495,MST_test,2024.2.0,59.89487252111673,2026-01-17 11h40.09.256325 +0530,
98,0,99,o,1.5752959999954328,None,99,0,98,743.5639193000025,,,,,,,,,,,,,,,,,,,,,,,,,,,,,,,,,,,,,,,,,,,,,,,,,,743.5499004000012,743.5639193000025,744.0642138999974,744.0483768999984,744.0593072999982,744.0642138999974,744.0642138999974,744.0642138999974,745.6491427000001,Objects\211a.jpg,pre,o,1.5752959999954328,None,,,,,,,,00038,001,2026-01-17_11h39.48.495,MST_test,2024.2.0,59.89487252111673,2026-01-17 11h40.09.256325 +0530,
99,0,100,s,6.299401900003431,None,100,0,99,745.6642467999991,,,,,,,,,,,,,,,,,,,,,,,,,,,,,,,,,,,,,,,,,,,,,,,,,,745.649530900002,745.6642467999991,746.1643662999995,746.1481953999973,746.1566861999963,746.1643662999995,746.1643662999995,746.1643662999995,752.4663784000004,Objects\030a.jpg,pre,s,6.299401900003431,None,,,,,,,,00038,001,2026-01-17_11h39.48.495,MST_test,2024.2.0,59.89487252111673,2026-01-17 11h40.09.256325 +0530,
100,0,101,n,8.029085100002703,None,101,0,100,752.4808946999983,,,,,,,,,,,,,,,,,,,,,,,,,,,,,,,,,,,,,,,,,,,,,,,,,,752.4666897999996,752.4808946999983,753.0254934999975,752.9649677999987,753.0228267999992,753.0254934999975,753.0254934999975,753.0254934999975,761.0658126999988,Objects\076b.jpg,mid,n,8.029085100002703,None,,,,,,,,00038,001,2026-01-17_11h39.48.495,MST_test,2024.2.0,59.89487252111673,2026-01-17 11h40.09.256325 +0530,
101,0,102,n,3.427797299998929,None,102,0,101,761.0807041000007,,,,,,,,,,,,,,,,,,,,,,,,,,,,,,,,,,,,,,,,,,,,,,,,,,761.0660508000001,761.0807041000007,761.6116748999993,761.5652821999975,761.6085908000023,761.6116748999993,761.6116748999993,761.6116748999993,765.0487481000018,Objects\079b.jpg,mid,n,3.427797299998929,None,,,,,,,,00038,001,2026-01-17_11h39.48.495,MST_test,2024.2.0,59.89487252111673,2026-01-17 11h40.09.256325 +0530,
102,0,103,o,5.250715199996193,None,103,0,102,765.0638940999997,,,,,,,,,,,,,,,,,,,,,,,,,,,,,,,,,,,,,,,,,,,,,,,,,,765.0489757999967,765.0638940999997,765.564111599997,765.5492597999983,765.5554267999978,765.564111599997,765.564111599997,765.564111599997,770.8173454999996,Objects\113a.jpg,mid,o,5.250715199996193,None,,,,,,,,00038,001,2026-01-17_11h39.48.495,MST_test,2024.2.0,59.89487252111673,2026-01-17 11h40.09.256325 +0530,
103,0,104,n,2.7509028000058606,None,104,0,103,770.8304713999969,,,,,,,,,,,,,,,,,,,,,,,,,,,,,,,,,,,,,,,,,,,,,,,,,,770.8177342999988,770.8304713999969,771.3765694000031,771.3150864999989,771.3737470999986,771.3765694000031,771.3765694000031,771.3765694000031,774.1323287999985,Foils\090a.jpg,none,n,2.7509028000058606,None,,,,,,,,00038,001,2026-01-17_11h39.48.495,MST_test,2024.2.0,59.89487252111673,2026-01-17 11h40.09.256325 +0530,
104,0,105,s,2.3495370999953593,None,105,0,104,774.1478837999966,,,,,,,,,,,,,,,,,,,,,,,,,,,,,,,,,,,,,,,,,,,,,,,,,,774.1325557000018,774.1478837999966,774.7530180000031,774.6318334000025,774.7497508000015,774.7530180000031,774.7530180000031,774.7530180000031,777.1162993999969,Objects\217b.jpg,pre,s,2.3495370999953593,None,,,,,,,,00038,001,2026-01-17_11h39.48.495,MST_test,2024.2.0,59.89487252111673,2026-01-17 11h40.09.256325 +0530,
105,0,106,s,3.551432600004773,None,106,0,105,777.1305101999969,,,,,,,,,,,,,,,,,,,,,,,,,,,,,,,,,,,,,,,,,,,,,,,,,,777.1165610000025,777.1305101999969,777.6309794999979,777.6151020999969,777.6238115000015,777.6309794999979,777.6309794999979,777.6309794999979,781.1992275000011,Objects\356a.jpg,mid,s,3.551432600004773,None,,,,,,,,00038,001,2026-01-17_11h39.48.495,MST_test,2024.2.0,59.89487252111673,2026-01-17 11h40.09.256325 +0530,
106,0,107,o,1.3335278000013204,None,107,0,106,781.2137992999997,,,,,,,,,,,,,,,,,,,,,,,,,,,,,,,,,,,,,,,,,,,,,,,,,,781.1994348000007,781.2137992999997,781.7142189000006,781.6983309999996,781.7041633999979,781.7142189000006,781.7142189000006,781.7142189000006,783.0498674999981,Objects\246a.jpg,post,o,1.3335278000013204,None,,,,,,,,00038,001,2026-01-17_11h39.48.495,MST_test,2024.2.0,59.89487252111673,2026-01-17 11h40.09.256325 +0530,
107,0,108,o,1.8667772000044351,None,108,0,107,783.0639157999976,,,,,,,,,,,,,,,,,,,,,,,,,,,,,,,,,,,,,,,,,,,,,,,,,,783.0502504999968,783.0639157999976,783.564314700001,783.5492056000003,783.5558766999966,783.564314700001,783.564314700001,783.564314700001,785.4332399999985,Objects\292a.jpg,pre,o,1.8667772000044351,None,,,,,,,,00038,001,2026-01-17_11h39.48.495,MST_test,2024.2.0,59.89487252111673,2026-01-17 11h40.09.256325 +0530,
108,0,109,n,1.4855411000025924,None,109,0,108,785.4472657000006,,,,,,,,,,,,,,,,,,,,,,,,,,,,,,,,,,,,,,,,,,,,,,,,,,785.4335330999966,785.4472657000006,785.9936687000009,785.9315515999988,785.990765399998,785.9936687000009,785.9936687000009,785.9936687000009,787.482090700003,Foils\034a.jpg,none,n,1.4855411000025924,None,,,,,,,,00038,001,2026-01-17_11h39.48.495,MST_test,2024.2.0,59.89487252111673,2026-01-17 11h40.09.256325 +0530,
109,0,110,n,6.956287599998177,None,110,0,109,787.4974211000008,,,,,,,,,,,,,,,,,,,,,,,,,,,,,,,,,,,,,,,,,,,,,,,,,,787.4823347999991,787.4974211000008,788.059402699997,787.981541299996,788.0560294000024,788.059402699997,788.059402699997,788.059402699997,795.0320378999968,Foils\049a.jpg,none,n,6.956287599998177,None,,,,,,,,00038,001,2026-01-17_11h39.48.495,MST_test,2024.2.0,59.89487252111673,2026-01-17 11h40.09.256325 +0530,
110,0,111,o,1.2748435999965295,None,111,0,110,795.0474460999976,,,,,,,,,,,,,,,,,,,,,,,,,,,,,,,,,,,,,,,,,,,,,,,,,,795.0323094999985,795.0474460999976,795.5476391999982,795.5318635000003,795.5379374999975,795.5476391999982,795.5476391999982,795.5476391999982,796.8327499000006,Objects\188a.jpg,mid,o,1.2748435999965295,None,,,,,,,,00038,001,2026-01-17_11h39.48.495,MST_test,2024.2.0,59.89487252111673,2026-01-17 11h40.09.256325 +0530,
111,0,112,s,1.924490199999127,None,112,0,111,796.847236499998,,,,,,,,,,,,,,,,,,,,,,,,,,,,,,,,,,,,,,,,,,,,,,,,,,796.8330915999977,796.847236499998,797.3701214999965,797.3316034000018,797.3675291999971,797.3701214999965,797.3701214999965,797.3701214999965,799.2993808000028,Objects\026b.jpg,pre,s,1.924490199999127,None,,,,,,,,00038,001,2026-01-17_11h39.48.495,MST_test,2024.2.0,59.89487252111673,2026-01-17 11h40.09.256325 +0530,
112,0,113,s,3.135650700001861,None,113,0,112,799.3139630000005,,,,,,,,,,,,,,,,,,,,,,,,,,,,,,,,,,,,,,,,,,,,,,,,,,799.2996525999988,799.3139630000005,799.8153093000001,799.7980155999976,799.8032119999989,799.8153093000001,799.8153093000001,799.8153093000001,802.9658305999983,Objects\272a.jpg,pre,s,3.135650700001861,None,,,,,,,,00038,001,2026-01-17_11h39.48.495,MST_test,2024.2.0,59.89487252111673,2026-01-17 11h40.09.256325 +0530,
113,0,114,n,1.3872181999977329,None,114,0,113,802.9802801999977,,,,,,,,,,,,,,,,,,,,,,,,,,,,,,,,,,,,,,,,,,,,,,,,,,802.9660863999961,802.9802801999977,803.5075485999987,803.4642239000023,803.5045690999978,803.5075485999987,803.5075485999987,803.5075485999987,804.8990886999964,Foils\010a.jpg,none,n,1.3872181999977329,None,,,,,,,,00038,001,2026-01-17_11h39.48.495,MST_test,2024.2.0,59.89487252111673,2026-01-17 11h40.09.256325 +0530,
114,0,115,n,3.6703780999960145,None,115,0,114,804.9138007000001,,,,,,,,,,,,,,,,,,,,,,,,,,,,,,,,,,,,,,,,,,,,,,,,,,804.8993953999961,804.9138007000001,805.449492300002,805.397848200002,805.4461415999976,805.449492300002,805.449492300002,805.449492300002,809.1323341000025,Foils\106a.jpg,none,n,3.6703780999960145,None,,,,,,,,00038,001,2026-01-17_11h39.48.495,MST_test,2024.2.0,59.89487252111673,2026-01-17 11h40.09.256325 +0530,
115,0,116,n,3.1280723999952897,None,116,0,115,809.1474260999967,,,,,,,,,,,,,,,,,,,,,,,,,,,,,,,,,,,,,,,,,,,,,,,,,,809.1325792999996,809.1474260999967,809.6633416999975,809.6317398999963,809.661025100002,809.6633416999975,809.6633416999975,809.6633416999975,812.7992814000027,Foils\042a.jpg,none,n,3.1280723999952897,None,,,,,,,,00038,001,2026-01-17_11h39.48.495,MST_test,2024.2.0,59.89487252111673,2026-01-17 11h40.09.256325 +0530,
116,0,117,n,2.451000599998224,None,117,0,116,812.813788499996,,,,,,,,,,,,,,,,,,,,,,,,,,,,,,,,,,,,,,,,,,,,,,,,,,812.7995503999991,812.813788499996,813.347506099999,813.2984739000021,813.3448269,813.347506099999,813.347506099999,813.347506099999,815.8162489000024,Objects\086b.jpg,post,n,2.451000599998224,None,,,,,,,,00038,001,2026-01-17_11h39.48.495,MST_test,2024.2.0,59.89487252111673,2026-01-17 11h40.09.256325 +0530,
117,0,118,o,2.212709299994458,None,118,0,117,815.8304451000004,,,,,,,,,,,,,,,,,,,,,,,,,,,,,,,,,,,,,,,,,,,,,,,,,,815.8164999,815.8304451000004,816.3307540999958,816.3149677999972,816.3230269999985,816.3307540999958,816.3307540999958,816.3307540999958,818.5494057999967,Objects\353a.jpg,mid,o,2.212709299994458,None,,,,,,,,00038,001,2026-01-17_11h39.48.495,MST_test,2024.2.0,59.89487252111673,2026-01-17 11h40.09.256325 +0530,
118,0,119,o,1.494218899999396,None,119,0,118,818.5638974999965,,,,,,,,,,,,,,,,,,,,,,,,,,,,,,,,,,,,,,,,,,,,,,,,,,818.5497885000004,818.5638974999965,819.0643102999966,819.0485838000022,819.0572628000009,819.0643102999966,819.0643102999966,819.0643102999966,820.5664586999992,Objects\170a.jpg,post,o,1.494218899999396,None,,,,,,,,00038,001,2026-01-17_11h39.48.495,MST_test,2024.2.0,59.89487252111673,2026-01-17 11h40.09.256325 +0530,
119,0,120,o,2.498601100000087,None,120,0,119,820.580467300002,,,,,,,,,,,,,,,,,,,,,,,,,,,,,,,,,,,,,,,,,,,,,,,,,,820.5667506999962,820.580467300002,821.1326853999999,821.0649446000025,821.1298677000013,821.1326853999999,821.1326853999999,821.1326853999999,823.6333913999988,Objects\078b.jpg,pre,o,2.498601100000087,None,,,,,,,,00038,001,2026-01-17_11h39.48.495,MST_test,2024.2.0,59.89487252111673,2026-01-17 11h40.09.256325 +0530,
120,0,121,n,1.5627135000031558,None,121,0,120,823.6472028999997,,,,,,,,,,,,,,,,,,,,,,,,,,,,,,,,,,,,,,,,,,,,,,,,,,823.6336378999986,823.6472028999997,824.1887618999972,824.1319356000022,824.1863002999962,824.1887618999972,824.1887618999972,824.1887618999972,825.7660391000027,Foils\017a.jpg,none,n,1.5627135000031558,None,,,,,,,,00038,001,2026-01-17_11h39.48.495,MST_test,2024.2.0,59.89487252111673,2026-01-17 11h40.09.256325 +0530,
121,0,122,n,3.1338957999978447,None,122,0,121,825.780414599998,,,,,,,,,,,,,,,,,,,,,,,,,,,,,,,,,,,,,,,,,,,,,,,,,,825.7664268000008,825.780414599998,826.2971336999981,826.2649965000019,826.2943460999959,826.2971336999981,826.2971336999981,826.2971336999981,829.4335105999999,Foils\074a.jpg,none,n,3.1338957999978447,None,,,,,,,,00038,001,2026-01-17_11h39.48.495,MST_test,2024.2.0,59.89487252111673,2026-01-17 11h40.09.256325 +0530,
122,0,123,s,3.9173825000034412,None,123,0,122,829.4473520000029,,,,,,,,,,,,,,,,,,,,,,,,,,,,,,,,,,,,,,,,,,,,,,,,,,829.4337958999968,829.4473520000029,829.9941498999979,829.9316666000013,829.9914819999976,829.9941498999979,829.9941498999979,829.9941498999979,833.9158335999964,Objects\328b.jpg,post,s,3.9173825000034412,None,,,,,,,,00038,001,2026-01-17_11h39.48.495,MST_test,2024.2.0,59.89487252111673,2026-01-17 11h40.09.256325 +0530,
123,0,124,n,4.754688600005466,None,124,0,123,833.9304995999992,,,,,,,,,,,,,,,,,,,,,,,,,,,,,,,,,,,,,,,,,,,,,,,,,,833.9160762000029,833.9304995999992,834.5004428999964,834.4154264999961,834.4979480999973,834.5004428999964,834.5004428999964,834.5004428999964,839.265793999999,Foils\086a.jpg,none,n,4.754688600005466,None,,,,,,,,00038,001,2026-01-17_11h39.48.495,MST_test,2024.2.0,59.89487252111673,2026-01-17 11h40.09.256325 +0530,
124,0,125,o,3.0023495000059484,None,125,0,124,839.2805695999996,,,,,,,,,,,,,,,,,,,,,,,,,,,,,,,,,,,,,,,,,,,,,,,,,,839.2660496000026,839.2805695999996,839.7809594999999,839.7649450999961,839.7737390999973,839.7809594999999,839.7809594999999,839.7809594999999,842.7992949999971,Objects\257a.jpg,post,o,3.0023495000059484,None,,,,,,,,00038,001,2026-01-17_11h39.48.495,MST_test,2024.2.0,59.89487252111673,2026-01-17 11h40.09.256325 +0530,
125,0,126,n,3.274979499998153,None,126,0,125,842.8138975999973,,,,,,,,,,,,,,,,,,,,,,,,,,,,,,,,,,,,,,,,,,,,,,,,,,842.7995249000014,842.8138975999973,843.3488652000015,843.2982542000027,843.3449393999981,843.3488652000015,843.3488652000015,843.3488652000015,846.6326952000018,Foils\050a.jpg,none,n,3.274979499998153,None,,,,,,,,00038,001,2026-01-17_11h39.48.495,MST_test,2024.2.0,59.89487252111673,2026-01-17 11h40.09.256325 +0530,
126,0,127,o,1.6145325000034063,None,127,0,126,846.6475793999998,,,,,,,,,,,,,,,,,,,,,,,,,,,,,,,,,,,,,,,,,,,,,,,,,,846.6329832999982,846.6475793999998,847.1762479999961,847.131796200003,847.1737314999991,847.1762479999961,847.1762479999961,847.1762479999961,848.7989135000025,Objects\161b.jpg,pre,o,1.6145325000034063,None,,,,,,,,00038,001,2026-01-17_11h39.48.495,MST_test,2024.2.0,59.89487252111673,2026-01-17 11h40.09.256325 +0530,
127,0,128,o,1.2530382000040845,None,128,0,127,848.8138746999975,,,,,,,,,,,,,,,,,,,,,,,,,,,,,,,,,,,,,,,,,,,,,,,,,,848.7991323000024,848.8138746999975,849.3142474999986,849.298298499998,849.3066313000018,849.3142474999986,849.3142474999986,849.3142474999986,850.5825488999981,Objects\226a.jpg,pre,o,1.2530382000040845,None,,,,,,,,00038,001,2026-01-17_11h39.48.495,MST_test,2024.2.0,59.89487252111673,2026-01-17 11h40.09.256325 +0530,
128,0,129,o,2.5479433000000427,None,129,0,128,850.5971366000012,,,,,,,,,,,,,,,,,,,,,,,,,,,,,,,,,,,,,,,,,,,,,,,,,,850.5828038999971,850.5971366000012,851.1226859000017,851.0817221999969,851.1197038000028,851.1226859000017,851.1226859000017,851.1226859000017,853.6828886000003,Objects\001b.jpg,mid,o,2.5479433000000427,None,,,,,,,,00038,001,2026-01-17_11h39.48.495,MST_test,2024.2.0,59.89487252111673,2026-01-17 11h40.09.256325 +0530,
129,0,130,n,5.123149099999864,None,130,0,129,853.6971502000015,,,,,,,,,,,,,,,,,,,,,,,,,,,,,,,,,,,,,,,,,,,,,,,,,,853.6831753000006,853.6971502000015,854.2275459000011,854.1816746999975,854.2246876999998,854.2275459000011,854.2275459000011,854.2275459000011,859.365845399996,Objects\241b.jpg,mid,n,5.123149099999864,None,,,,,,,,00038,001,2026-01-17_11h39.48.495,MST_test,2024.2.0,59.89487252111673,2026-01-17 11h40.09.256325 +0530,
130,0,131,n,11.194082300004084,None,131,0,130,859.3806666000019,,,,,,,,,,,,,,,,,,,,,,,,,,,,,,,,,,,,,,,,,,,,,,,,,,859.3661807999961,859.3806666000019,859.9243807000021,859.8648019000029,859.921608800003,859.9243807000021,859.9243807000021,859.9243807000021,871.1323149000018,Objects\154b.jpg,post,n,11.194082300004084,None,,,,,,,,00038,001,2026-01-17_11h39.48.495,MST_test,2024.2.0,59.89487252111673,2026-01-17 11h40.09.256325 +0530,
131,0,132,o,3.5273345000023255,None,132,0,131,871.1472614000013,,,,,,,,,,,,,,,,,,,,,,,,,,,,,,,,,,,,,,,,,,,,,,,,,,871.1327075000008,871.1472614000013,871.6482606999998,871.6318889999966,871.6376531999995,871.6482606999998,871.6482606999998,871.6482606999998,875.1829339999967,Objects\223a.jpg,pre,o,3.5273345000023255,None,,,,,,,,00038,001,2026-01-17_11h39.48.495,MST_test,2024.2.0,59.89487252111673,2026-01-17 11h40.09.256325 +0530,
132,0,133,o,1.3569300000017392,None,133,0,132,875.1975891999973,,,,,,,,,,,,,,,,,,,,,,,,,,,,,,,,,,,,,,,,,,,,,,,,,,875.1833627000015,875.1975891999973,875.6974467999971,875.6817967000025,875.687505599999,875.6974467999971,875.6974467999971,875.6974467999971,877.0657294999983,Objects\135a.jpg,mid,o,1.3569300000017392,None,,,,,,,,00038,001,2026-01-17_11h39.48.495,MST_test,2024.2.0,59.89487252111673,2026-01-17 11h40.09.256325 +0530,
133,0,134,s,6.176346899999771,None,134,0,133,877.0804897999988,,,,,,,,,,,,,,,,,,,,,,,,,,,,,,,,,,,,,,,,,,,,,,,,,,877.0659685999999,877.0804897999988,877.6219093999971,877.5652131000024,877.6188970000003,877.6219093999971,877.6219093999971,877.6219093999971,883.8158225000006,Objects\202b.jpg,pre,s,6.176346899999771,None,,,,,,,,00038,001,2026-01-17_11h39.48.495,MST_test,2024.2.0,59.89487252111673,2026-01-17 11h40.09.256325 +0530,
134,0,135,o,1.97173190000467,None,135,0,134,883.8316546999995,,,,,,,,,,,,,,,,,,,,,,,,,,,,,,,,,,,,,,,,,,,,,,,,,,883.8161433999994,883.8316546999995,,884.3306633999964,884.3389186999993,884.3475214999999,884.3475214999999,884.3475214999999,886.3323699999964,Objects\151a.jpg,pre,o,1.97173190000467,None,,,,,,,,00038,001,2026-01-17_11h39.48.495,MST_test,2024.2.0,59.89487252111673,2026-01-17 11h40.09.256325 +0530,
135,0,136,n,1.3815194999988307,None,136,0,135,886.3471694999971,,,,,,,,,,,,,,,,,,,,,,,,,,,,,,,,,,,,,,,,,,,,,,,,,,886.3327361999982,886.3471694999971,886.9135414999982,886.8316500000001,886.9105030999999,886.9135414999982,886.9135414999982,886.9135414999982,888.2989510999978,Foils\093b.jpg,none,n,1.3815194999988307,None,,,,,,,,00038,001,2026-01-17_11h39.48.495,MST_test,2024.2.0,59.89487252111673,2026-01-17 11h40.09.256325 +0530,
136,0,137,o,2.8261086999991676,None,137,0,136,888.3139561999997,,,,,,,,,,,,,,,,,,,,,,,,,,,,,,,,,,,,,,,,,,,,,,,,,,888.2992004999978,888.3139561999997,888.9012071999969,888.7984122999987,888.898660699997,888.9012071999969,888.9012071999969,888.9012071999969,891.7323307999977,Objects\057b.jpg,post,o,2.8261086999991676,None,,,,,,,,00038,001,2026-01-17_11h39.48.495,MST_test,2024.2.0,59.89487252111673,2026-01-17 11h40.09.256325 +0530,
137,0,138,o,1.663781499999459,None,138,0,137,891.7473413999978,,,,,,,,,,,,,,,,,,,,,,,,,,,,,,,,,,,,,,,,,,,,,,,,,,891.7326557999986,891.7473413999978,892.2475076999981,892.2316337000011,892.2389863999997,892.2475076999981,892.2475076999981,892.2475076999981,893.915820000002,Objects\100a.jpg,mid,o,1.663781499999459,None,,,,,,,,00038,001,2026-01-17_11h39.48.495,MST_test,2024.2.0,59.89487252111673,2026-01-17 11h40.09.256325 +0530,
138,0,139,o,2.1840347000033944,None,139,0,138,893.9305727000028,,,,,,,,,,,,,,,,,,,,,,,,,,,,,,,,,,,,,,,,,,,,,,,,,,893.9162456999984,893.9305727000028,894.4308634999979,894.4149933000008,894.4231566000017,894.4308634999979,894.4308634999979,894.4308634999979,896.632772099998,Objects\313a.jpg,post,o,2.1840347000033944,None,,,,,,,,00038,001,2026-01-17_11h39.48.495,MST_test,2024.2.0,59.89487252111673,2026-01-17 11h40.09.256325 +0530,
139,0,140,o,3.132010799999989,None,140,0,139,896.647278299999,,,,,,,,,,,,,,,,,,,,,,,,,,,,,,,,,,,,,,,,,,,,,,,,,,896.6330004999982,896.647278299999,897.1474678000013,897.1313987999965,897.1359608999992,897.1474678000013,897.1474678000013,897.1474678000013,900.2824961000006,Objects\064a.jpg,pre,o,3.132010799999989,None,,,,,,,,00038,001,2026-01-17_11h39.48.495,MST_test,2024.2.0,59.89487252111673,2026-01-17 11h40.09.256325 +0530,
140,0,141,o,7.962428200000431,None,141,0,140,900.2972187999985,,,,,,,,,,,,,,,,,,,,,,,,,,,,,,,,,,,,,,,,,,,,,,,,,,900.2829001999999,900.2972187999985,900.7975377999974,900.7817568999963,900.7885739999983,900.7975377999974,900.7975377999974,900.7975377999974,908.7654584999982,Objects\237a.jpg,pre,o,7.962428200000431,None,,,,,,,,00038,001,2026-01-17_11h39.48.495,MST_test,2024.2.0,59.89487252111673,2026-01-17 11h40.09.256325 +0530,
141,0,142,o,4.066346799998428,None,142,0,141,908.7812268999987,,,,,,,,,,,,,,,,,,,,,,,,,,,,,,,,,,,,,,,,,,,,,,,,,,908.7658054999993,908.7812268999987,909.3324366000015,909.2650289000012,909.3296401999978,909.3324366000015,909.3324366000015,909.3324366000015,913.4159311999974,Objects\310b.jpg,post,o,4.066346799998428,None,,,,,,,,00038,001,2026-01-17_11h39.48.495,MST_test,2024.2.0,59.89487252111673,2026-01-17 11h40.09.256325 +0530,
142,0,143,n,3.1801410999978543,None,143,0,142,913.4305651999966,,,,,,,,,,,,,,,,,,,,,,,,,,,,,,,,,,,,,,,,,,,,,,,,,,913.4162901000018,913.4305651999966,913.9702201999971,913.9151551999967,913.9675053999963,913.9702201999971,913.9702201999971,913.9702201999971,917.1659351999988,Foils\073a.jpg,none,n,3.1801410999978543,None,,,,,,,,00038,001,2026-01-17_11h39.48.495,MST_test,2024.2.0,59.89487252111673,2026-01-17 11h40.09.256325 +0530,
143,0,144,n,2.6871450999969966,None,144,0,143,917.1813620999965,,,,,,,,,,,,,,,,,,,,,,,,,,,,,,,,,,,,,,,,,,,,,,,,,,917.1662553999995,917.1813620999965,917.7043657999966,917.6650035999992,917.7016154000012,917.7043657999966,917.7043657999966,917.7043657999966,920.3993582999974,Objects\168b.jpg,mid,n,2.6871450999969966,None,,,,,,,,00038,001,2026-01-17_11h39.48.495,MST_test,2024.2.0,59.89487252111673,2026-01-17 11h40.09.256325 +0530,
144,0,145,o,2.8202993999948376,None,145,0,144,920.4141539999982,,,,,,,,,,,,,,,,,,,,,,,,,,,,,,,,,,,,,,,,,,,,,,,,,,920.3997603000025,920.4141539999982,920.9144384999963,920.8985689999972,920.9041323999991,920.9144384999963,920.9144384999963,920.9144384999963,923.7492725999982,Objects\185a.jpg,pre,o,2.8202993999948376,None,,,,,,,,00038,001,2026-01-17_11h39.48.495,MST_test,2024.2.0,59.89487252111673,2026-01-17 11h40.09.256325 +0530,
145,0,146,n,2.6097918000014033,None,146,0,145,923.7638120999982,,,,,,,,,,,,,,,,,,,,,,,,,,,,,,,,,,,,,,,,,,,,,,,,,,923.7496778999994,923.7638120999982,924.3089741000003,924.2483399999983,924.3059031000012,924.3089741000003,924.3089741000003,924.3089741000003,926.9324538000001,Objects\004b.jpg,post,n,2.6097918000014033,None,,,,,,,,00038,001,2026-01-17_11h39.48.495,MST_test,2024.2.0,59.89487252111673,2026-01-17 11h40.09.256325 +0530,
146,0,147,n,1.9061387999972794,None,147,0,146,926.9472406999994,,,,,,,,,,,,,,,,,,,,,,,,,,,,,,,,,,,,,,,,,,,,,,,,,,926.9328252999985,926.9472406999994,927.4602230000019,927.4317413000026,927.457994299999,927.4602230000019,927.4602230000019,927.4602230000019,929.3826921,Foils\113a.jpg,none,n,1.9061387999972794,None,,,,,,,,00038,001,2026-01-17_11h39.48.495,MST_test,2024.2.0,59.89487252111673,2026-01-17 11h40.09.256325 +0530,
147,0,148,s,2.87919089999923,None,148,0,147,929.3972020000001,,,,,,,,,,,,,,,,,,,,,,,,,,,,,,,,,,,,,,,,,,,,,,,,,,929.3830613999962,929.3972020000001,929.9839367000022,929.8818688000028,929.9807951999974,929.9839367000022,929.9839367000022,929.9839367000022,932.8661032000018,Objects\245b.jpg,mid,s,2.87919089999923,None,,,,,,,,00038,001,2026-01-17_11h39.48.495,MST_test,2024.2.0,59.89487252111673,2026-01-17 11h40.09.256325 +0530,
148,0,149,o,3.8739009000055376,None,149,0,148,932.8804804999963,,,,,,,,,,,,,,,,,,,,,,,,,,,,,,,,,,,,,,,,,,,,,,,,,,932.8663264999996,932.8804804999963,933.3812133999963,933.365335399998,933.3721927000006,933.3812133999963,933.3812133999963,933.3812133999963,937.2659034000026,Objects\267a.jpg,mid,o,3.8739009000055376,None,,,,,,,,00038,001,2026-01-17_11h39.48.495,MST_test,2024.2.0,59.89487252111673,2026-01-17 11h40.09.256325 +0530,
149,0,150,s,5.80672400000185,None,150,0,149,937.2804860999968,,,,,,,,,,,,,,,,,,,,,,,,,,,,,,,,,,,,,,,,,,,,,,,,,,937.2662087999997,937.2804860999968,937.8080155999996,937.7649396999986,937.8053867999988,937.8080155999996,937.8080155999996,937.8080155999996,943.6165392999974,Objects\369b.jpg,pre,s,5.80672400000185,None,,,,,,,,00038,001,2026-01-17_11h39.48.495,MST_test,2024.2.0,59.89487252111673,2026-01-17 11h40.09.256325 +0530,
,,,,,,,,,,,,,,,,,,,,,,,,,,,,,,,,,,,,,,,,,,,,,,,,,,,,,,,,,,,,,,,,,,,,,,,,,943.6167999999961,943.6306387000004,943.6306387000004,945.7323082000003,space,2.0969246000022395,None,00038,001,2026-01-17_11h39.48.495,MST_test,2024.2.0,59.89487252111673,2026-01-17 11h40.09.256325 +0530,
