Sl_no,image_path,thisN,thisTrialN,thisRepN,key_resp_5.keys,key_resp_7.keys,key_resp_7.rt,key_resp_7.duration,key_resp_5.rt,key_resp_5.duration,key_resp_9.keys,key_resp_8.keys,key_resp_8.rt,key_resp_8.duration,key_resp_9.rt,key_resp_9.duration,practice.thisRepN,practice.thisTrialN,practice.thisN,trials.thisRepN,trials.thisTrialN,trials.thisN,thisRow.t,notes,welcome_page.started,text.started,key_resp.started,welcome_page.stopped,key_resp.keys,key_resp.rt,key_resp.duration,instructions.started,ins.started,key_resp_2.started,instructions.stopped,key_resp_2.keys,key_resp_2.rt,key_resp_2.duration,objects_only_instruction.started,text_3.started,key_resp_3.started,objects_only_instruction.stopped,key_resp_3.keys,key_resp_3.rt,key_resp_3.duration,ISI.started,text_4.started,text_4.stopped,ISI.stopped,practice_block.started,image.started,key_resp_5.started,text_5.started,practice_block.stopped,practice.key_resp_5.keys,indoor_outdoor.started,text_7.started,key_resp_7.started,indoor_outdoor.stopped,practice.key_resp_7.keys,practice.key_resp_7.rt,practice.key_resp_7.duration,image.stopped,key_resp_5.stopped,text_5.stopped,practice.key_resp_5.rt,practice.key_resp_5.duration,practice_to_main.started,text_2.started,key_resp_4.started,practice_to_main.stopped,key_resp_4.keys,key_resp_4.rt,key_resp_4.duration,objects.started,image_2.started,text_9.started,key_resp_9.started,image_2.stopped,text_9.stopped,key_resp_9.stopped,objects.stopped,category,trials.key_resp_9.keys,encoding_task.started,text_8.started,key_resp_8.started,encoding_task.stopped,trials.key_resp_8.keys,trials.key_resp_8.rt,trials.key_resp_8.duration,trials.key_resp_9.rt,trials.key_resp_9.duration,end_experiment.started,text_6.started,key_resp_6.started,end_experiment.stopped,key_resp_6.keys,key_resp_6.rt,key_resp_6.duration,list_of_stimuli,encoding_task_accuracy,participant,session,date,expName,psychopyVersion,frameRate,expStart,
,,,,,,,,,,,,,,,,,,,,,,,,,0.0014033000043127686,0.0028187999996589497,0.0028187999996589497,9.665506999997888,space,9.65342299999611,None,,,,,,,,,,,,,,,,,,,,,,,,,,,,,,,,,,,,,,,,,,,,,,,,,,,,,,,,,,,,,,,,,,,,,,,,00034,001,2026-01-16_12h47.55.482,MST_task,2024.2.0,59.8774070009747,2026-01-16 12h48.04.031814 +0530,
,,,,,,,,,,,,,,,,,,,,,,,,,,,,,,,,9.66553820000263,9.680190600003698,9.680190600003698,43.56410529999994,space,33.87168280000333,None,,,,,,,,,,,,,,,,,,,,,,,,,,,,,,,,,,,,,,,,,,,,,,,,,,,,,,,,,,,,,,,,,00034,001,2026-01-16_12h47.55.482,MST_task,2024.2.0,59.8774070009747,2026-01-16 12h48.04.031814 +0530,
,,,,,,,,,,,,,,,,,,,,,,,,,,,,,,,,,,,,,,,43.56413610000163,43.580269099998986,43.580269099998986,55.697426700004144,space,12.107987700001104,None,,,,,,,,,,,,,,,,,,,,,,,,,,,,,,,,,,,,,,,,,,,,,,,,,,,,,,,,,,00034,001,2026-01-16_12h47.55.482,MST_task,2024.2.0,59.8774070009747,2026-01-16 12h48.04.031814 +0530,
4,practice_images/002b.jpg,0,0,1,None,f,6.354076400006306,None,,,,,,,,,1,0,0,,,,55.71351010000217,,,,,,,,,,,,,,,,,,,,,,,55.71129859999928,55.71351010000217,56.22008280000591,56.197038400001475,56.2094647000049,56.22008280000591,56.22008280000591,56.22008280000591,59.21380100000533,None,59.215579499999876,59.23027549999824,59.23027549999824,65.59738469999866,f,6.354076400006306,None,,,,,,,,,,,,,,,,,,,,,,,,,,,,,,,,,,,,,,,,,00034,001,2026-01-16_12h47.55.482,MST_task,2024.2.0,59.8774070009747,2026-01-16 12h48.04.031814 +0530,
8,practice_images/178a.jpg,1,1,1,j,None,,,1.3581846000015503,0.14566190000914503,,,,,,,1,1,1,,,,65.61353560000134,,,,,,,,,,,,,,,,,,,,,,,65.59747560000687,65.61353560000134,66.11382440000307,66.0971722999966,66.10644350000075,66.11382440000307,66.11382440000307,66.11382440000307,69.09733309999865,j,69.09737150000001,,,69.09738350000407,None,,,69.11346940000658,69.11346940000658,69.11346940000658,1.3581846000015503,0.14566190000914503,,,,,,,,,,,,,,,,,,,,,,,,,,,,,,,,,,,,00034,001,2026-01-16_12h47.55.482,MST_task,2024.2.0,59.8774070009747,2026-01-16 12h48.04.031814 +0530,
5,practice_images/139a.jpg,2,2,1,None,j,0.7795986999990419,None,,,,,,,,,1,2,2,,,,69.11346940000658,,,,,,,,,,,,,,,,,,,,,,,69.09744880000653,69.11346940000658,69.6136692,69.5970978999976,69.60622790000343,69.6136692,69.6136692,69.6136692,72.59719570000016,None,72.5972277999972,72.61348050000379,72.61348050000379,73.39742880000267,j,0.7795986999990419,None,72.61348050000379,72.61348050000379,72.61348050000379,,,,,,,,,,,,,,,,,,,,,,,,,,,,,,,,,,,,,,00034,001,2026-01-16_12h47.55.482,MST_task,2024.2.0,59.8774070009747,2026-01-16 12h48.04.031814 +0530,
3,practice_images/037a.jpg,3,3,1,None,f,0.47912709999945946,None,,,,,,,,,1,3,3,,,,73.41351720000966,,,,,,,,,,,,,,,,,,,,,,,73.39751270000124,73.41351720000966,73.9136628999986,73.89722270000493,73.9059486000042,73.9136628999986,73.9136628999986,73.9136628999986,76.89727820000553,None,76.8973113999964,76.91352740000002,76.91352740000002,77.39733330000308,f,0.47912709999945946,None,76.91352740000002,76.91352740000002,76.91352740000002,,,,,,,,,,,,,,,,,,,,,,,,,,,,,,,,,,,,,,00034,001,2026-01-16_12h47.55.482,MST_task,2024.2.0,59.8774070009747,2026-01-16 12h48.04.031814 +0530,
9,practice_images/180a.jpg,4,4,1,None,f,0.3035006999998586,None,,,,,,,,,1,4,4,,,,77.41347379999934,,,,,,,,,,,,,,,,,,,,,,,77.39742269999988,77.41347379999934,77.91365339999902,77.8971828000067,77.9054565999977,77.91365339999902,77.91365339999902,77.91365339999902,80.89738789999683,None,80.89742269999988,80.91353970000637,80.91353970000637,81.23048710000876,f,0.3035006999998586,None,80.91353970000637,80.91353970000637,80.91353970000637,,,,,,,,,,,,,,,,,,,,,,,,,,,,,,,,,,,,,,00034,001,2026-01-16_12h47.55.482,MST_task,2024.2.0,59.8774070009747,2026-01-16 12h48.04.031814 +0530,
6,practice_images/158a.jpg,5,5,1,None,f,0.7892367000022205,None,,,,,,,,,1,5,5,,,,81.24684870000056,,,,,,,,,,,,,,,,,,,,,,,81.23056870000437,81.24684870000056,81.74700010000379,81.73039759999665,81.74224069999764,81.74700010000379,81.74700010000379,81.74700010000379,84.7307707,None,84.73294519999763,84.74694260000251,84.74694260000251,85.54731110000284,f,0.7892367000022205,None,84.74694260000251,84.74694260000251,84.74694260000251,,,,,,,,,,,,,,,,,,,,,,,,,,,,,,,,,,,,,,00034,001,2026-01-16_12h47.55.482,MST_task,2024.2.0,59.8774070009747,2026-01-16 12h48.04.031814 +0530,
7,practice_images/166a.jpg,6,6,1,None,j,0.6723972999898251,None,,,,,,,,,1,6,6,,,,85.56347280000045,,,,,,,,,,,,,,,,,,,,,,,85.54739320000226,85.56347280000045,86.06368570000632,86.04708370000299,86.05599740000616,86.06368570000632,86.06368570000632,86.06368570000632,89.04731150000589,None,89.04734520000056,89.06353569999919,89.06353569999919,89.74732789999689,j,0.6723972999898251,None,89.06353569999919,89.06353569999919,89.06353569999919,,,,,,,,,,,,,,,,,,,,,,,,,,,,,,,,,,,,,,00034,001,2026-01-16_12h47.55.482,MST_task,2024.2.0,59.8774070009747,2026-01-16 12h48.04.031814 +0530,
2,practice_images/031a.jpg,7,7,1,None,j,1.0575231999973767,None,,,,,,,,,1,7,7,,,,89.76351990000694,,,,,,,,,,,,,,,,,,,,,,,89.74741460000223,89.76351990000694,90.26371300000756,90.2472157000011,90.25591659999918,90.26371300000756,90.26371300000756,90.26371300000756,93.24719870000263,None,93.24723210000957,93.26352999999654,93.26352999999654,94.33054090000223,j,1.0575231999973767,None,93.26352999999654,93.26352999999654,93.26352999999654,,,,,,,,,,,,,,,,,,,,,,,,,,,,,,,,,,,,,,00034,001,2026-01-16_12h47.55.482,MST_task,2024.2.0,59.8774070009747,2026-01-16 12h48.04.031814 +0530,
1,practice_images/013a.jpg,8,8,1,None,j,4.169575100007933,None,,,,,,,,,1,8,8,,,,94.34686010000587,,,,,,,,,,,,,,,,,,,,,,,94.33062550000614,94.34686010000587,94.84707550000167,94.83030610000424,94.83906620000198,94.84707550000167,94.84707550000167,94.84707550000167,97.83039860001008,None,97.83043190000171,97.84686930000316,97.84686930000316,102.03056110000762,j,4.169575100007933,None,97.84686930000316,97.84686930000316,97.84686930000316,,,,,,,,,,,,,,,,,,,,,,,,,,,,,,,,,,,,,,00034,001,2026-01-16_12h47.55.482,MST_task,2024.2.0,59.8774070009747,2026-01-16 12h48.04.031814 +0530,
10,practice_images/182a.jpg,9,9,1,f,None,,,2.756984299994656,0.1603239000105532,,,,,,,1,9,9,,,,102.04684100000304,,,,,,,,,,,,,,,,,,,,,,,102.0306491000083,102.04684100000304,102.54707770000095,102.53033470000082,102.54038330000185,102.54707770000095,102.54707770000095,102.54707770000095,105.53056110000762,f,105.53060430000187,,,105.53061650000745,None,,,105.54684370000905,105.54684370000905,105.54684370000905,2.756984299994656,0.1603239000105532,,,,,,,,,,,,,,,,,,,,,,,,,,,,,,,,,,,,00034,001,2026-01-16_12h47.55.482,MST_task,2024.2.0,59.8774070009747,2026-01-16 12h48.04.031814 +0530,
,,,,,,,,,,,,,,,,,,,,,,,,,,,,,,,,,,,,,,,,,,,,,,,,,,,,,,,,,,,,,,,,,,,,105.53065770000103,105.54684370000905,105.54684370000905,132.66416810000374,space,27.100976300003822,None,,,,,,,,,,,,,,,,,,,,,,,,,,,,,00034,001,2026-01-16_12h47.55.482,MST_task,2024.2.0,59.8774070009747,2026-01-16 12h48.04.031814 +0530,
,Objects\291a.jpg,0,0,1,,,,,,,None,f,0.1319886000128463,None,,,,,,1,0,0,132.68025859999761,,,,,,,,,,,,,,,,,,,,,,,132.66492130000552,132.68025859999761,133.18052570000873,133.16378899999836,,,,,,,,,,,,,,,,,,,,,,,,,,133.17635270000028,133.18052570000873,133.18052570000873,133.18052570000873,136.18023540001013,136.18023540001013,136.18023540001013,136.16419609999866,indoor,None,136.1658468000096,136.18023540001013,136.18023540001013,136.31413650000468,f,0.1319886000128463,None,,,,,,,,,,,,00034,001,2026-01-16_12h47.55.482,MST_task,2024.2.0,59.8774070009747,2026-01-16 12h48.04.031814 +0530,
,Objects\044a.jpg,1,0,2,,,,,,,None,j,0.3454230000061216,None,,,,,,2,0,1,136.33021169999847,,,,,,,,,,,,,,,,,,,,,,,136.3142213000101,136.33021169999847,136.83063900000707,136.81385960000625,,,,,,,,,,,,,,,,,,,,,,,,,,136.8276915000024,136.83063900000707,136.83063900000707,136.83063900000707,139.83033019999857,139.83033019999857,139.83033019999857,139.81410309999774,indoor,None,139.81414159999986,139.83033019999857,139.83033019999857,140.1810267999972,j,0.3454230000061216,None,,,,,,,,,,,,00034,001,2026-01-16_12h47.55.482,MST_task,2024.2.0,59.8774070009747,2026-01-16 12h48.04.031814 +0530,
,Objects\254a.jpg,2,0,3,,,,,,,j,None,,,1.9029225999984192,0.16007820000231732,,,,3,0,2,140.19700820000435,,,,,,,,,,,,,,,,,,,,,,,140.18111489999865,140.19700820000435,140.69739040000422,140.68069770000875,,,,,,,,,,,,,,,,,,,,,,,,,,140.69286809999903,140.69739040000422,140.69739040000422,140.69739040000422,143.69696570000087,143.69696570000087,143.69696570000087,143.68079939999734,indoor,j,143.6808444000053,,,143.68085689999862,None,,,1.9029225999984192,0.16007820000231732,,,,,,,,,,00034,001,2026-01-16_12h47.55.482,MST_task,2024.2.0,59.8774070009747,2026-01-16 12h48.04.031814 +0530,
,Objects\269a.jpg,3,0,4,,,,,,,f,None,,,2.787535299998126,0.16772940001101233,,,,4,0,3,143.69696570000087,,,,,,,,,,,,,,,,,,,,,,,143.68092369999795,143.69696570000087,144.1973094999994,144.18057870000484,,,,,,,,,,,,,,,,,,,,,,,,,,144.19062639999902,144.1973094999994,144.1973094999994,144.1973094999994,147.19700100000773,147.19700100000773,147.19700100000773,147.18076650000876,indoor,f,147.18080960000225,,,147.18082100000174,None,,,2.787535299998126,0.16772940001101233,,,,,,,,,,00034,001,2026-01-16_12h47.55.482,MST_task,2024.2.0,59.8774070009747,2026-01-16 12h48.04.031814 +0530,
,Objects\329a.jpg,4,0,5,,,,,,,j,None,,,1.3746739000052912,0.16905269998824224,,,,5,0,4,147.19700100000773,,,,,,,,,,,,,,,,,,,,,,,147.1808863000042,147.19700100000773,147.6974135000055,147.68062169999757,,,,,,,,,,,,,,,,,,,,,,,,,,147.6918422000017,147.6974135000055,147.6974135000055,147.6974135000055,150.69701319999876,150.69701319999876,150.69701319999876,150.680884100002,indoor,j,150.68101339999703,,,150.68102699999872,None,,,1.3746739000052912,0.16905269998824224,,,,,,,,,,00034,001,2026-01-16_12h47.55.482,MST_task,2024.2.0,59.8774070009747,2026-01-16 12h48.04.031814 +0530,
,Objects\030a.jpg,5,0,6,,,,,,,f,None,,,1.491081200001645,0.1770120000001043,,,,6,0,5,150.69701319999876,,,,,,,,,,,,,,,,,,,,,,,150.68109379999805,150.69701319999876,151.1973544000066,151.18051760000526,,,,,,,,,,,,,,,,,,,,,,,,,,151.19140540000808,151.1973544000066,151.1973544000066,151.1973544000066,154.1968984999985,154.1968984999985,154.1968984999985,154.18087820000073,indoor,f,154.18092030000116,,,154.18093200000294,None,,,1.491081200001645,0.1770120000001043,,,,,,,,,,00034,001,2026-01-16_12h47.55.482,MST_task,2024.2.0,59.8774070009747,2026-01-16 12h48.04.031814 +0530,
,Objects\328a.jpg,6,0,7,,,,,,,j,None,,,1.4467685999989044,0.16890079999575391,,,,7,0,6,154.1968984999985,,,,,,,,,,,,,,,,,,,,,,,154.18099600001005,154.1968984999985,154.69724629999837,154.68049359999713,,,,,,,,,,,,,,,,,,,,,,,,,,154.69002110000292,154.69724629999837,154.69724629999837,154.69724629999837,157.69688610000594,157.69688610000594,157.69688610000594,157.68059270000958,indoor,j,157.6806351999985,,,157.68064720000257,None,,,1.4467685999989044,0.16890079999575391,,,,,,,,,,00034,001,2026-01-16_12h47.55.482,MST_task,2024.2.0,59.8774070009747,2026-01-16 12h48.04.031814 +0530,
,Objects\089a.jpg,7,0,8,,,,,,,f,None,,,2.054767499997979,0.19189030000416096,,,,8,0,7,157.69688610000594,,,,,,,,,,,,,,,,,,,,,,,157.68071030000283,157.69688610000594,158.201501500007,158.18035770001006,,,,,,,,,,,,,,,,,,,,,,,,,,158.1996352999995,158.201501500007,158.201501500007,158.201501500007,,,,161.19715720000386,shoe,f,161.19928400000208,,,161.19930380000733,None,,,2.054767499997979,0.19189030000416096,,,,,,,,,,00034,001,2026-01-16_12h47.55.482,MST_task,2024.2.0,59.8774070009747,2026-01-16 12h48.04.031814 +0530,
,Objects\377a.jpg,8,0,9,,,,,,,j,None,,,2.5989509999926668,0.14300810001441278,,,,9,0,8,161.21367330000794,,,,,,,,,,,,,,,,,,,,,,,161.19940209999913,161.21367330000794,161.71395550000307,161.69715089999954,,,,,,,,,,,,,,,,,,,,,,,,,,161.7093251000042,161.71395550000307,161.71395550000307,161.71395550000307,164.71354930000962,164.71354930000962,164.71354930000962,164.69738060000236,shoe,j,164.69742350000888,,,164.6974351999961,None,,,2.5989509999926668,0.14300810001441278,,,,,,,,,,00034,001,2026-01-16_12h47.55.482,MST_task,2024.2.0,59.8774070009747,2026-01-16 12h48.04.031814 +0530,
,Objects\218a.jpg,9,0,10,,,,,,,j,None,,,1.530298400000902,0.17588640000030864,,,,10,0,9,164.71354930000962,,,,,,,,,,,,,,,,,,,,,,,164.69753050000872,164.71354930000962,165.2139576000045,165.19722080000793,,,,,,,,,,,,,,,,,,,,,,,,,,165.20722450000176,165.2139576000045,165.2139576000045,165.2139576000045,168.2134933000052,168.2134933000052,168.2134933000052,168.19730630000413,shoe,j,168.19734890000836,,,168.19736099999864,None,,,1.530298400000902,0.17588640000030864,,,,,,,,,,00034,001,2026-01-16_12h47.55.482,MST_task,2024.2.0,59.8774070009747,2026-01-16 12h48.04.031814 +0530,
,Objects\107a.jpg,10,0,11,,,,,,,j,None,,,2.94993180000165,None,,,,11,0,10,168.2134933000052,,,,,,,,,,,,,,,,,,,,,,,168.19746000001032,168.2134933000052,168.71393730001,168.69716280000284,,,,,,,,,,,,,,,,,,,,,,,,,,168.7075923000084,168.71393730001,168.71393730001,168.71393730001,171.7135558000009,171.7135558000009,171.7135558000009,171.6973885000043,shoe,j,171.69743110000854,,,171.6974440000049,None,,,2.94993180000165,None,,,,,,,,,,00034,001,2026-01-16_12h47.55.482,MST_task,2024.2.0,59.8774070009747,2026-01-16 12h48.04.031814 +0530,
,Objects\371a.jpg,11,0,12,,,,,,,None,j,0.2261850999930175,None,,,,,,12,0,11,171.7135558000009,,,,,,,,,,,,,,,,,,,,,,,171.69753960000526,171.7135558000009,172.21405330000562,172.1971290000074,,,,,,,,,,,,,,,,,,,,,,,,,,172.20778630000132,172.21405330000562,172.21405330000562,172.21405330000562,175.21358989999862,175.21358989999862,175.21358989999862,175.1973682000098,shoe,None,175.19740679999813,175.21358989999862,175.21358989999862,175.44755080000323,j,0.2261850999930175,None,,,,,,,,,,,,00034,001,2026-01-16_12h47.55.482,MST_task,2024.2.0,59.8774070009747,2026-01-16 12h48.04.031814 +0530,
,Objects\006a.jpg,12,0,13,,,,,,,f,None,,,2.3324382999999216,0.18411239999113604,,,,13,0,12,175.46354579999752,,,,,,,,,,,,,,,,,,,,,,,175.44766760000493,175.46354579999752,175.96404449999682,175.94715089999954,,,,,,,,,,,,,,,,,,,,,,,,,,175.95745380000153,175.96404449999682,175.96404449999682,175.96404449999682,178.9635597000015,178.9635597000015,178.9635597000015,178.9473568000103,shoe,f,178.94739950000076,,,178.94741649999924,None,,,2.3324382999999216,0.18411239999113604,,,,,,,,,,00034,001,2026-01-16_12h47.55.482,MST_task,2024.2.0,59.8774070009747,2026-01-16 12h48.04.031814 +0530,
,Objects\225a.jpg,13,0,14,,,,,,,f,None,,,1.2485945999942487,0.2006013000063831,,,,14,0,13,178.9635597000015,,,,,,,,,,,,,,,,,,,,,,,178.9474879000045,178.9635597000015,179.4637209000066,179.44714420000673,,,,,,,,,,,,,,,,,,,,,,,,,,179.45649300000514,179.4637209000066,179.4637209000066,179.4637209000066,182.463553900001,182.463553900001,182.463553900001,182.4473610999994,shoe,f,182.44740450000972,,,182.4474166,None,,,1.2485945999942487,0.2006013000063831,,,,,,,,,,00034,001,2026-01-16_12h47.55.482,MST_task,2024.2.0,59.8774070009747,2026-01-16 12h48.04.031814 +0530,
,Objects\362a.jpg,14,0,15,,,,,,,f,None,,,1.0125480999995489,0.18341769999824464,,,,15,0,14,182.463553900001,,,,,,,,,,,,,,,,,,,,,,,182.44748119999713,182.463553900001,182.9639443000051,182.9471717999986,,,,,,,,,,,,,,,,,,,,,,,,,,182.95907080000325,182.9639443000051,182.9639443000051,182.9639443000051,185.96357580000767,185.96357580000767,185.96357580000767,185.94767400001,indoor,f,185.94942489999812,,,185.94944510000641,None,,,1.0125480999995489,0.18341769999824464,,,,,,,,,,00034,001,2026-01-16_12h47.55.482,MST_task,2024.2.0,59.8774070009747,2026-01-16 12h48.04.031814 +0530,
,Objects\293a.jpg,15,0,16,,,,,,,f,None,,,2.5531747000059113,0.18342570000095293,,,,16,0,15,185.96357580000767,,,,,,,,,,,,,,,,,,,,,,,185.94951720000245,185.96357580000767,186.46392140000535,186.44716250000056,,,,,,,,,,,,,,,,,,,,,,,,,,186.45731060000253,186.46392140000535,186.46392140000535,186.46392140000535,189.46348380000563,189.46348380000563,189.46348380000563,189.44740840001032,indoor,f,189.44745210000838,,,189.4474637000094,None,,,2.5531747000059113,0.18342570000095293,,,,,,,,,,00034,001,2026-01-16_12h47.55.482,MST_task,2024.2.0,59.8774070009747,2026-01-16 12h48.04.031814 +0530,
,Objects\075a.jpg,16,0,17,,,,,,,j,None,,,2.32484650000697,0.13600049998785835,,,,17,0,16,189.46348380000563,,,,,,,,,,,,,,,,,,,,,,,189.44752739999967,189.46348380000563,189.96386050000729,189.94715170000563,,,,,,,,,,,,,,,,,,,,,,,,,,189.95759630000975,189.96386050000729,189.96386050000729,189.96386050000729,192.9635183000064,192.9635183000064,192.9635183000064,192.94740810000803,indoor,j,192.94745289999992,,,192.94746500000474,None,,,2.32484650000697,0.13600049998785835,,,,,,,,,,00034,001,2026-01-16_12h47.55.482,MST_task,2024.2.0,59.8774070009747,2026-01-16 12h48.04.031814 +0530,
,Objects\219a.jpg,17,0,18,,,,,,,f,None,,,2.0326150999899255,0.17710710001119878,,,,18,0,17,192.9635183000064,,,,,,,,,,,,,,,,,,,,,,,192.94753760000458,192.9635183000064,193.46382910000102,193.44710679999844,,,,,,,,,,,,,,,,,,,,,,,,,,193.45704570000817,193.46382910000102,193.46382910000102,193.46382910000102,196.46355620000395,196.46355620000395,196.46355620000395,196.4474096000049,indoor,f,196.44745310000144,,,196.44746490000398,None,,,2.0326150999899255,0.17710710001119878,,,,,,,,,,00034,001,2026-01-16_12h47.55.482,MST_task,2024.2.0,59.8774070009747,2026-01-16 12h48.04.031814 +0530,
,Objects\120a.jpg,18,0,19,,,,,,,f,None,,,2.237186500002281,0.14300369999546092,,,,19,0,18,196.46355620000395,,,,,,,,,,,,,,,,,,,,,,,196.44753079999646,196.46355620000395,196.96380219999992,196.94713260000572,,,,,,,,,,,,,,,,,,,,,,,,,,196.9566213000071,196.96380219999992,196.96380219999992,196.96380219999992,199.96353360000649,199.96353360000649,199.96353360000649,199.9474682,indoor,f,199.94751100000576,,,199.9475228000083,None,,,2.237186500002281,0.14300369999546092,,,,,,,,,,00034,001,2026-01-16_12h47.55.482,MST_task,2024.2.0,59.8774070009747,2026-01-16 12h48.04.031814 +0530,
,Objects\330a.jpg,19,0,20,,,,,,,j,None,,,2.088392000005115,0.16000160000112373,,,,20,0,19,199.96353360000649,,,,,,,,,,,,,,,,,,,,,,,199.94758740000543,199.96353360000649,200.46399699999893,200.44715750000614,,,,,,,,,,,,,,,,,,,,,,,,,,200.4579420000082,200.46399699999893,200.46399699999893,200.46399699999893,203.46349460000056,203.46349460000056,203.46349460000056,203.44734860000608,indoor,j,203.44739830000617,,,203.4474107999995,None,,,2.088392000005115,0.16000160000112373,,,,,,,,,,00034,001,2026-01-16_12h47.55.482,MST_task,2024.2.0,59.8774070009747,2026-01-16 12h48.04.031814 +0530,
,Objects\281a.jpg,20,0,21,,,,,,,f,None,,,2.5242312000045786,0.16903419999289326,,,,21,0,20,203.46349460000056,,,,,,,,,,,,,,,,,,,,,,,203.44747579999967,203.46349460000056,203.96394460000738,203.9471659999981,,,,,,,,,,,,,,,,,,,,,,,,,,203.95761250000214,203.96394460000738,203.96394460000738,203.96394460000738,206.96355519999634,206.96355519999634,206.96355519999634,206.94740849999653,indoor,f,206.94745120000152,,,206.9474632000056,None,,,2.5242312000045786,0.16903419999289326,,,,,,,,,,00034,001,2026-01-16_12h47.55.482,MST_task,2024.2.0,59.8774070009747,2026-01-16 12h48.04.031814 +0530,
,Objects\029a.jpg,21,0,22,,,,,,,j,None,,,1.6574790999875404,0.1599228000122821,,,,22,0,21,206.96355519999634,,,,,,,,,,,,,,,,,,,,,,,206.94752739999967,206.96355519999634,207.46397880000586,207.4470735000068,,,,,,,,,,,,,,,,,,,,,,,,,,207.45966190000763,207.46397880000586,207.46397880000586,207.46397880000586,210.46357010000793,210.46357010000793,210.46357010000793,210.44741639999847,shoe,j,210.44953379999788,,,210.44955190000474,None,,,1.6574790999875404,0.1599228000122821,,,,,,,,,,00034,001,2026-01-16_12h47.55.482,MST_task,2024.2.0,59.8774070009747,2026-01-16 12h48.04.031814 +0530,
,Objects\353a.jpg,22,0,23,,,,,,,f,None,,,2.284980299999006,0.17518849999760278,,,,23,0,22,210.46357010000793,,,,,,,,,,,,,,,,,,,,,,,210.4496569000039,210.46357010000793,210.96396890000324,210.947156299997,,,,,,,,,,,,,,,,,,,,,,,,,,210.9570381000085,210.96396890000324,210.96396890000324,210.96396890000324,213.9635372000048,213.9635372000048,213.9635372000048,213.94742530000804,shoe,f,213.94746830000076,,,213.94748050000635,None,,,2.284980299999006,0.17518849999760278,,,,,,,,,,00034,001,2026-01-16_12h47.55.482,MST_task,2024.2.0,59.8774070009747,2026-01-16 12h48.04.031814 +0530,
,Objects\233a.jpg,23,0,24,,,,,,,f,None,,,1.8639212999987649,0.18512249999912456,,,,24,0,23,213.9635372000048,,,,,,,,,,,,,,,,,,,,,,,213.9475467000011,213.9635372000048,214.46386930000153,214.44718200000352,,,,,,,,,,,,,,,,,,,,,,,,,,214.45642729999963,214.46386930000153,214.46386930000153,214.46386930000153,217.46356620000734,217.46356620000734,217.46356620000734,217.44736510000075,shoe,f,217.44741530000465,,,217.44742720000795,None,,,1.8639212999987649,0.18512249999912456,,,,,,,,,,00034,001,2026-01-16_12h47.55.482,MST_task,2024.2.0,59.8774070009747,2026-01-16 12h48.04.031814 +0530,
,Objects\118a.jpg,24,0,25,,,,,,,f,None,,,1.5322607999987667,0.15980779999517836,,,,25,0,24,217.46356620000734,,,,,,,,,,,,,,,,,,,,,,,217.4474915000028,217.46356620000734,217.96400960000756,217.9472655999998,,,,,,,,,,,,,,,,,,,,,,,,,,217.95784450000792,217.96400960000756,217.96400960000756,217.96400960000756,220.96356930000184,220.96356930000184,220.96356930000184,220.94742550000956,shoe,f,220.94747020000068,,,220.94748220000474,None,,,1.5322607999987667,0.15980779999517836,,,,,,,,,,00034,001,2026-01-16_12h47.55.482,MST_task,2024.2.0,59.8774070009747,2026-01-16 12h48.04.031814 +0530,
,Objects\382a.jpg,25,0,26,,,,,,,j,None,,,2.68099429999711,0.11897760001011193,,,,26,0,25,220.96356930000184,,,,,,,,,,,,,,,,,,,,,,,220.94754680000187,220.96356930000184,221.46399440000823,221.4471460000059,,,,,,,,,,,,,,,,,,,,,,,,,,221.45896590000484,221.46399440000823,221.46399440000823,221.46399440000823,224.46357459999854,224.46357459999854,224.46357459999854,224.44741940000677,shoe,j,224.4474685000023,,,224.4474806000071,None,,,2.68099429999711,0.11897760001011193,,,,,,,,,,00034,001,2026-01-16_12h47.55.482,MST_task,2024.2.0,59.8774070009747,2026-01-16 12h48.04.031814 +0530,
,Objects\068a.jpg,26,0,27,,,,,,,f,None,,,1.6284525000082795,0.15199899999424815,,,,27,0,26,224.46357459999854,,,,,,,,,,,,,,,,,,,,,,,224.4475458000088,224.46357459999854,224.96400010000798,224.94715970000834,,,,,,,,,,,,,,,,,,,,,,,,,,224.95836289999716,224.96400010000798,224.96400010000798,224.96400010000798,227.9635963000037,227.9635963000037,227.9635963000037,227.94740340000135,shoe,f,227.9474462000071,,,227.94745819999662,None,,,1.6284525000082795,0.15199899999424815,,,,,,,,,,00034,001,2026-01-16_12h47.55.482,MST_task,2024.2.0,59.8774070009747,2026-01-16 12h48.04.031814 +0530,
,Objects\035a.jpg,27,0,28,,,,,,,j,None,,,1.6563019000022905,0.16798879999259952,,,,28,0,27,227.9635963000037,,,,,,,,,,,,,,,,,,,,,,,227.947533700004,227.9635963000037,228.46380040000076,228.447141800003,,,,,,,,,,,,,,,,,,,,,,,,,,228.4570120999997,228.46380040000076,228.46380040000076,228.46380040000076,231.46350530000927,231.46350530000927,231.46350530000927,231.44749180000508,shoe,j,231.44754300000204,,,231.44755569999688,None,,,1.6563019000022905,0.16798879999259952,,,,,,,,,,00034,001,2026-01-16_12h47.55.482,MST_task,2024.2.0,59.8774070009747,2026-01-16 12h48.04.031814 +0530,
,Objects\220a.jpg,28,0,29,,,,,,,j,None,,,2.068759300003876,0.1351652000012109,,,,29,0,28,231.46350530000927,,,,,,,,,,,,,,,,,,,,,,,231.44762289999926,231.46350530000927,231.96394760000112,231.94709950000106,,,,,,,,,,,,,,,,,,,,,,,,,,231.95920290000504,231.96394760000112,231.96394760000112,231.96394760000112,234.96357259999786,234.96357259999786,234.96357259999786,234.94754079999984,indoor,j,234.94915860000765,,,234.94917690000148,None,,,2.068759300003876,0.1351652000012109,,,,,,,,,,00034,001,2026-01-16_12h47.55.482,MST_task,2024.2.0,59.8774070009747,2026-01-16 12h48.04.031814 +0530,
,Objects\191a.jpg,29,0,30,,,,,,,j,None,,,2.808802600004128,None,,,,30,0,29,234.96357259999786,,,,,,,,,,,,,,,,,,,,,,,234.94924719999835,234.96357259999786,235.46398339999723,235.4471055000031,,,,,,,,,,,,,,,,,,,,,,,,,,235.4573029000021,235.46398339999723,235.46398339999723,235.46398339999723,238.46356260000903,238.46356260000903,238.46356260000903,238.44740319999983,indoor,j,238.4474451999995,,,238.4474568000005,None,,,2.808802600004128,None,,,,,,,,,,00034,001,2026-01-16_12h47.55.482,MST_task,2024.2.0,59.8774070009747,2026-01-16 12h48.04.031814 +0530,
,Objects\289a.jpg,30,0,31,,,,,,,None,j,0.4287019999901531,None,,,,,,31,0,30,238.46356260000903,,,,,,,,,,,,,,,,,,,,,,,238.44752040000458,238.46356260000903,238.96402919999673,238.94724710000446,,,,,,,,,,,,,,,,,,,,,,,,,,238.95750570000382,238.96402919999673,238.96402919999673,238.96402919999673,241.96357390000776,241.96357390000776,241.96357390000776,241.94742110000516,indoor,None,241.9474640999979,241.96357390000776,241.96357390000776,242.39735670000664,j,0.4287019999901531,None,,,,,,,,,,,,00034,001,2026-01-16_12h47.55.482,MST_task,2024.2.0,59.8774070009747,2026-01-16 12h48.04.031814 +0530,
,Objects\133a.jpg,31,0,32,,,,,,,j,None,,,2.8540323000052013,None,,,,32,0,31,242.41350010001042,,,,,,,,,,,,,,,,,,,,,,,242.3974434999982,242.41350010001042,242.9139950999961,242.89716049999697,,,,,,,,,,,,,,,,,,,,,,,,,,242.90754080000625,242.9139950999961,242.9139950999961,242.9139950999961,245.91362570000638,245.91362570000638,245.91362570000638,245.89742970000952,indoor,j,245.89747350000835,,,245.89748529999633,None,,,2.8540323000052013,None,,,,,,,,,,00034,001,2026-01-16_12h47.55.482,MST_task,2024.2.0,59.8774070009747,2026-01-16 12h48.04.031814 +0530,
,Objects\207a.jpg,32,0,33,,,,,,,f,None,,,1.4741238999995403,0.16804920000140555,,,,33,0,32,245.91362570000638,,,,,,,,,,,,,,,,,,,,,,,245.8975505999988,245.91362570000638,246.4140938000055,246.39728489999834,,,,,,,,,,,,,,,,,,,,,,,,,,246.40789529999893,246.4140938000055,246.4140938000055,246.4140938000055,249.41367219999665,249.41367219999665,249.41367219999665,249.3974331000063,indoor,f,249.39747650000209,,,249.3974884000054,None,,,1.4741238999995403,0.16804920000140555,,,,,,,,,,00034,001,2026-01-16_12h47.55.482,MST_task,2024.2.0,59.8774070009747,2026-01-16 12h48.04.031814 +0530,
,Objects\033a.jpg,33,0,34,,,,,,,f,None,,,2.085705000004964,0.16800119999970775,,,,34,0,33,249.41367219999665,,,,,,,,,,,,,,,,,,,,,,,249.39755409999634,249.41367219999665,249.91419399999722,249.89727020000282,,,,,,,,,,,,,,,,,,,,,,,,,,249.90756300000066,249.91419399999722,249.91419399999722,249.91419399999722,252.91360490000807,252.91360490000807,252.91360490000807,252.89768670000194,indoor,f,252.8977309000038,,,252.89774240000406,None,,,2.085705000004964,0.16800119999970775,,,,,,,,,,00034,001,2026-01-16_12h47.55.482,MST_task,2024.2.0,59.8774070009747,2026-01-16 12h48.04.031814 +0530,
,Objects\058a.jpg,34,0,35,,,,,,,f,None,,,2.2424011999974027,0.16827639999974053,,,,35,0,34,252.91360490000807,,,,,,,,,,,,,,,,,,,,,,,252.89780730000348,252.91360490000807,253.4138579999999,253.39728570000443,,,,,,,,,,,,,,,,,,,,,,,,,,253.4070478000067,253.4138579999999,253.4138579999999,253.4138579999999,256.41376540000783,256.41376540000783,256.41376540000783,256.3975242000015,indoor,f,256.3975677999988,,,256.3975793999998,None,,,2.2424011999974027,0.16827639999974053,,,,,,,,,,00034,001,2026-01-16_12h47.55.482,MST_task,2024.2.0,59.8774070009747,2026-01-16 12h48.04.031814 +0530,
,Objects\350a.jpg,35,0,36,,,,,,,j,None,,,2.0936456000054022,0.1769371999980649,,,,36,0,35,256.41376540000783,,,,,,,,,,,,,,,,,,,,,,,256.397647100006,256.41376540000783,256.91413900000043,256.8972783000063,,,,,,,,,,,,,,,,,,,,,,,,,,256.9101968000032,256.91413900000043,256.91413900000043,256.91413900000043,259.9135679000028,259.9135679000028,259.9135679000028,259.89785269999993,shoe,j,259.90017870000156,,,259.90019709999615,None,,,2.0936456000054022,0.1769371999980649,,,,,,,,,,00034,001,2026-01-16_12h47.55.482,MST_task,2024.2.0,59.8774070009747,2026-01-16 12h48.04.031814 +0530,
,Objects\303a.jpg,36,0,37,,,,,,,j,None,,,1.9702239000034751,0.1600509999989299,,,,37,0,36,259.9135679000028,,,,,,,,,,,,,,,,,,,,,,,259.90026910000597,259.9135679000028,260.4141623000032,260.3971689000027,,,,,,,,,,,,,,,,,,,,,,,,,,260.4101410000003,260.4141623000032,260.4141623000032,260.4141623000032,263.41360440000426,263.41360440000426,263.41360440000426,263.3975720000017,shoe,j,263.39761590000126,,,263.3976275000023,None,,,1.9702239000034751,0.1600509999989299,,,,,,,,,,00034,001,2026-01-16_12h47.55.482,MST_task,2024.2.0,59.8774070009747,2026-01-16 12h48.04.031814 +0530,
,Objects\356a.jpg,37,0,38,,,,,,,f,None,,,2.8782858999911696,None,,,,38,0,37,263.41360440000426,,,,,,,,,,,,,,,,,,,,,,,263.3976920999994,263.41360440000426,263.91417119999824,263.8972672000091,,,,,,,,,,,,,,,,,,,,,,,,,,263.90784320000967,263.91417119999824,263.91417119999824,263.91417119999824,266.9136310000031,266.9136310000031,266.9136310000031,266.89762920000067,shoe,f,266.8976745999971,,,266.8976860999974,None,,,2.8782858999911696,None,,,,,,,,,,00034,001,2026-01-16_12h47.55.482,MST_task,2024.2.0,59.8774070009747,2026-01-16 12h48.04.031814 +0530,
,Objects\057a.jpg,38,0,39,,,,,,,j,None,,,2.0263819999963744,0.1599830000050133,,,,39,0,38,266.9136310000031,,,,,,,,,,,,,,,,,,,,,,,266.89775139999983,266.9136310000031,267.41401049999695,267.3971719999972,,,,,,,,,,,,,,,,,,,,,,,,,,267.407509800003,267.41401049999695,267.41401049999695,267.41401049999695,270.41367180000816,270.41367180000816,270.41367180000816,270.3974542000069,shoe,j,270.3974962000066,,,270.3975081999961,None,,,2.0263819999963744,0.1599830000050133,,,,,,,,,,00034,001,2026-01-16_12h47.55.482,MST_task,2024.2.0,59.8774070009747,2026-01-16 12h48.04.031814 +0530,
,Objects\316a.jpg,39,0,40,,,,,,,j,None,,,2.4628689999954076,0.14295940000738483,,,,40,0,39,270.41367180000816,,,,,,,,,,,,,,,,,,,,,,,270.3975725000055,270.41367180000816,270.91417270000966,270.8972439000063,,,,,,,,,,,,,,,,,,,,,,,,,,270.9075773000077,270.91417270000966,270.91417270000966,270.91417270000966,273.9137522000092,273.9137522000092,273.9137522000092,273.8977697000082,shoe,j,273.89781989999756,,,273.89783230000467,None,,,2.4628689999954076,0.14295940000738483,,,,,,,,,,00034,001,2026-01-16_12h47.55.482,MST_task,2024.2.0,59.8774070009747,2026-01-16 12h48.04.031814 +0530,
,Objects\278a.jpg,40,0,41,,,,,,,f,None,,,2.8662402000045404,None,,,,41,0,40,273.9137522000092,,,,,,,,,,,,,,,,,,,,,,,273.8978984999994,273.9137522000092,274.41406700000516,274.39717219999875,,,,,,,,,,,,,,,,,,,,,,,,,,274.4080257000023,274.41406700000516,274.41406700000516,274.41406700000516,277.4136651000008,277.4136651000008,277.4136651000008,277.397572700007,shoe,f,277.3976165000058,,,277.3976280000061,None,,,2.8662402000045404,None,,,,,,,,,,00034,001,2026-01-16_12h47.55.482,MST_task,2024.2.0,59.8774070009747,2026-01-16 12h48.04.031814 +0530,
,Objects\214a.jpg,41,0,42,,,,,,,f,None,,,1.3751167000009445,0.19063670000468846,,,,42,0,41,277.4136651000008,,,,,,,,,,,,,,,,,,,,,,,277.39769330000854,277.4136651000008,277.9139654000028,277.89732810000714,,,,,,,,,,,,,,,,,,,,,,,,,,277.90798200000427,277.9139654000028,277.9139654000028,277.9139654000028,280.91361410000536,280.91361410000536,280.91361410000536,280.897549900008,shoe,f,280.8975930000015,,,280.89760700000625,None,,,1.3751167000009445,0.19063670000468846,,,,,,,,,,00034,001,2026-01-16_12h47.55.482,MST_task,2024.2.0,59.8774070009747,2026-01-16 12h48.04.031814 +0530,
,Objects\092a.jpg,42,0,43,,,,,,,None,j,0.9709951999975601,None,,,,,,43,0,42,280.91361410000536,,,,,,,,,,,,,,,,,,,,,,,280.8976721000072,280.91361410000536,281.41388220000954,281.39726260000316,,,,,,,,,,,,,,,,,,,,,,,,,,281.410083499999,281.41388220000954,281.41388220000954,281.41388220000954,284.4136900000012,284.4136900000012,284.4136900000012,284.3976202000049,indoor,None,284.3992545000074,284.4136900000012,284.4136900000012,285.3973662000062,j,0.9709951999975601,None,,,,,,,,,,,,00034,001,2026-01-16_12h47.55.482,MST_task,2024.2.0,59.8774070009747,2026-01-16 12h48.04.031814 +0530,
,Objects\151a.jpg,43,0,44,,,,,,,f,None,,,2.2621040000085486,0.19308479999017436,,,,44,0,43,285.4136648999993,,,,,,,,,,,,,,,,,,,,,,,285.3974537000031,285.4136648999993,285.913916400008,285.89728489999834,,,,,,,,,,,,,,,,,,,,,,,,,,285.9071827000007,285.913916400008,285.913916400008,285.913916400008,288.91369719999784,288.91369719999784,288.91369719999784,288.8974544000084,indoor,f,288.8974986999965,,,288.8975112000044,None,,,2.2621040000085486,0.19308479999017436,,,,,,,,,,00034,001,2026-01-16_12h47.55.482,MST_task,2024.2.0,59.8774070009747,2026-01-16 12h48.04.031814 +0530,
,Objects\277a.jpg,44,0,45,,,,,,,f,None,,,2.7864867000025697,0.16729379999742378,,,,45,0,44,288.91369719999784,,,,,,,,,,,,,,,,,,,,,,,288.8975769999961,288.91369719999784,289.41402560001006,289.39741220000724,,,,,,,,,,,,,,,,,,,,,,,,,,289.407312299998,289.41402560001006,289.41402560001006,289.41402560001006,292.413670199996,292.413670199996,292.413670199996,292.39752040000167,indoor,f,292.3975658999989,,,292.3975771999976,None,,,2.7864867000025697,0.16729379999742378,,,,,,,,,,00034,001,2026-01-16_12h47.55.482,MST_task,2024.2.0,59.8774070009747,2026-01-16 12h48.04.031814 +0530,
,Objects\053a.jpg,45,0,46,,,,,,,f,None,,,2.478578700000071,0.1679965999937849,,,,46,0,45,292.413670199996,,,,,,,,,,,,,,,,,,,,,,,292.3976425000001,292.413670199996,292.91407840000466,292.8971852000104,,,,,,,,,,,,,,,,,,,,,,,,,,292.90770480000356,292.91407840000466,292.91407840000466,292.91407840000466,295.913658999998,295.913658999998,295.913658999998,295.89753400000336,indoor,f,295.8975788000098,,,295.89759090000007,None,,,2.478578700000071,0.1679965999937849,,,,,,,,,,00034,001,2026-01-16_12h47.55.482,MST_task,2024.2.0,59.8774070009747,2026-01-16 12h48.04.031814 +0530,
,Objects\358a.jpg,46,0,47,,,,,,,f,None,,,2.7941664999962086,0.1520139000058407,,,,47,0,46,295.913658999998,,,,,,,,,,,,,,,,,,,,,,,295.89782730001025,295.913658999998,296.414013600006,296.39728459999606,,,,,,,,,,,,,,,,,,,,,,,,,,296.4085385000071,296.414013600006,296.414013600006,296.414013600006,299.41368490000605,299.41368490000605,299.41368490000605,299.3975400000054,indoor,f,299.39758350000193,,,299.3975952000037,None,,,2.7941664999962086,0.1520139000058407,,,,,,,,,,00034,001,2026-01-16_12h47.55.482,MST_task,2024.2.0,59.8774070009747,2026-01-16 12h48.04.031814 +0530,
,Objects\215a.jpg,47,0,48,,,,,,,f,None,,,1.8144050999981118,0.2079922999982955,,,,48,0,47,299.41368490000605,,,,,,,,,,,,,,,,,,,,,,,299.39765840000473,299.41368490000605,299.9140655000083,299.8972300000023,,,,,,,,,,,,,,,,,,,,,,,,,,299.90743420000945,299.9140655000083,299.9140655000083,299.9140655000083,302.9136684999976,302.9136684999976,302.9136684999976,302.8976371000026,indoor,f,302.8976806999999,,,302.8976926000032,None,,,1.8144050999981118,0.2079922999982955,,,,,,,,,,00034,001,2026-01-16_12h47.55.482,MST_task,2024.2.0,59.8774070009747,2026-01-16 12h48.04.031814 +0530,
,Objects\284a.jpg,48,0,49,,,,,,,j,None,,,1.9542849999997998,0.1760017000051448,,,,49,0,48,302.9136684999976,,,,,,,,,,,,,,,,,,,,,,,302.8977575000026,302.9136684999976,303.41411569999764,303.3972455000039,,,,,,,,,,,,,,,,,,,,,,,,,,303.4074757000053,303.41411569999764,303.41411569999764,303.41411569999764,306.41352980000374,306.41352980000374,306.41352980000374,306.3974917000014,indoor,j,306.39753460000793,,,306.3975461000082,None,,,1.9542849999997998,0.1760017000051448,,,,,,,,,,00034,001,2026-01-16_12h47.55.482,MST_task,2024.2.0,59.8774070009747,2026-01-16 12h48.04.031814 +0530,
,Objects\059a.jpg,49,0,50,,,,,,,None,j,1.590470399998594,None,,,,,,50,0,49,306.41352980000374,,,,,,,,,,,,,,,,,,,,,,,306.3976121000014,306.41352980000374,306.9139719000086,306.89717850000306,,,,,,,,,,,,,,,,,,,,,,,,,,306.909433000008,306.9139719000086,306.9139719000086,306.9139719000086,309.91359740000917,309.91359740000917,309.91359740000917,309.8973801999964,shoe,None,309.89949520000664,309.91359740000917,309.91359740000917,311.51441990000603,j,1.590470399998594,None,,,,,,,,,,,,00034,001,2026-01-16_12h47.55.482,MST_task,2024.2.0,59.8774070009747,2026-01-16 12h48.04.031814 +0530,
,Objects\236a.jpg,50,0,51,,,,,,,None,f,0.8581124000047566,None,,,,,,51,0,50,311.530093399997,,,,,,,,,,,,,,,,,,,,,,,311.51455030000943,311.530093399997,312.03065179999976,312.01381570000376,,,,,,,,,,,,,,,,,,,,,,,,,,312.0239963000058,312.03065179999976,312.03065179999976,312.03065179999976,315.0301924000087,315.0301924000087,315.0301924000087,315.0140337000048,shoe,None,315.0140706000093,315.0301924000087,315.0301924000087,315.8973890000052,f,0.8581124000047566,None,,,,,,,,,,,,00034,001,2026-01-16_12h47.55.482,MST_task,2024.2.0,59.8774070009747,2026-01-16 12h48.04.031814 +0530,
,Objects\153a.jpg,51,0,52,,,,,,,f,None,,,1.1466176000103587,0.18398969998816028,,,,52,0,51,315.91361750000215,,,,,,,,,,,,,,,,,,,,,,,315.89747690000513,315.91361750000215,316.4139836999966,316.3971074000001,,,,,,,,,,,,,,,,,,,,,,,,,,316.40733680000994,316.4139836999966,316.4139836999966,316.4139836999966,319.4135759000055,319.4135759000055,319.4135759000055,319.39762010000413,shoe,f,319.39766810000583,,,319.3976803999976,None,,,1.1466176000103587,0.18398969998816028,,,,,,,,,,00034,001,2026-01-16_12h47.55.482,MST_task,2024.2.0,59.8774070009747,2026-01-16 12h48.04.031814 +0530,
,Objects\024a.jpg,52,0,53,,,,,,,f,None,,,1.3907619000092382,0.18414820000180043,,,,53,0,52,319.4135759000055,,,,,,,,,,,,,,,,,,,,,,,319.39774800000305,319.4135759000055,319.9138421000098,319.89725429999817,,,,,,,,,,,,,,,,,,,,,,,,,,319.9072077000019,319.9138421000098,319.9138421000098,319.9138421000098,322.9135803000099,322.9135803000099,322.9135803000099,322.897466800001,shoe,f,322.89751219999744,,,322.8975245000038,None,,,1.3907619000092382,0.18414820000180043,,,,,,,,,,00034,001,2026-01-16_12h47.55.482,MST_task,2024.2.0,59.8774070009747,2026-01-16 12h48.04.031814 +0530,
,Objects\101a.jpg,53,0,54,,,,,,,f,None,,,2.042169100008323,0.15236320000258274,,,,54,0,53,322.9135803000099,,,,,,,,,,,,,,,,,,,,,,,322.89762099999643,322.9135803000099,323.4138382000092,323.3971806000045,,,,,,,,,,,,,,,,,,,,,,,,,,323.40683400000853,323.4138382000092,323.4138382000092,323.4138382000092,326.4135327999975,326.4135327999975,326.4135327999975,326.3974848000071,shoe,f,326.3975274999975,,,326.39753930000006,None,,,2.042169100008323,0.15236320000258274,,,,,,,,,,00034,001,2026-01-16_12h47.55.482,MST_task,2024.2.0,59.8774070009747,2026-01-16 12h48.04.031814 +0530,
,Objects\244a.jpg,54,0,55,,,,,,,f,None,,,2.6546813000022667,0.1351756999938516,,,,55,0,54,326.4135327999975,,,,,,,,,,,,,,,,,,,,,,,326.39760399999795,326.4135327999975,326.91400010000507,326.89722260000417,,,,,,,,,,,,,,,,,,,,,,,,,,326.9071132000099,326.91400010000507,326.91400010000507,326.91400010000507,329.9135891000042,329.9135891000042,329.9135891000042,329.8975359000033,shoe,f,329.89758119999897,,,329.89759310000227,None,,,2.6546813000022667,0.1351756999938516,,,,,,,,,,00034,001,2026-01-16_12h47.55.482,MST_task,2024.2.0,59.8774070009747,2026-01-16 12h48.04.031814 +0530,
,Objects\050a.jpg,55,0,56,,,,,,,f,None,,,1.7787192000105279,0.1920034999930067,,,,56,0,55,329.9135891000042,,,,,,,,,,,,,,,,,,,,,,,329.89765890000854,329.9135891000042,330.41395680001006,330.39719689999765,,,,,,,,,,,,,,,,,,,,,,,,,,330.40788900000916,330.41395680001006,330.41395680001006,330.41395680001006,333.4136032000097,333.4136032000097,333.4136032000097,333.39744270000665,shoe,f,333.39748900000995,,,333.3975006999972,None,,,1.7787192000105279,0.1920034999930067,,,,,,,,,,00034,001,2026-01-16_12h47.55.482,MST_task,2024.2.0,59.8774070009747,2026-01-16 12h48.04.031814 +0530,
,Objects\111a.jpg,56,0,57,,,,,,,f,None,,,2.6780247000133386,0.18458699999609962,,,,57,0,56,333.4136032000097,,,,,,,,,,,,,,,,,,,,,,,333.39757129999634,333.4136032000097,333.9138663000049,333.89736950000224,,,,,,,,,,,,,,,,,,,,,,,,,,333.90967930000625,333.9138663000049,333.9138663000049,333.9138663000049,336.91353730000264,336.91353730000264,336.91353730000264,336.897596099996,indoor,f,336.8992544000066,,,336.8992730000027,None,,,2.6780247000133386,0.18458699999609962,,,,,,,,,,00034,001,2026-01-16_12h47.55.482,MST_task,2024.2.0,59.8774070009747,2026-01-16 12h48.04.031814 +0530,
,Objects\016a.jpg,57,0,58,,,,,,,f,None,,,1.6980302999872947,0.17709730000933632,,,,58,0,57,336.91353730000264,,,,,,,,,,,,,,,,,,,,,,,336.89934450000874,336.91353730000264,337.41387610000675,337.39722189999884,,,,,,,,,,,,,,,,,,,,,,,,,,337.40717000000586,337.41387610000675,337.41387610000675,337.41387610000675,340.41353370000434,340.41353370000434,340.41353370000434,340.3974736000091,indoor,f,340.3975164000003,,,340.39752850000514,None,,,1.6980302999872947,0.17709730000933632,,,,,,,,,,00034,001,2026-01-16_12h47.55.482,MST_task,2024.2.0,59.8774070009747,2026-01-16 12h48.04.031814 +0530,
,Objects\292a.jpg,58,0,59,,,,,,,f,None,,,2.310743599999114,0.143322599993553,,,,59,0,58,340.41353370000434,,,,,,,,,,,,,,,,,,,,,,,340.39759540000523,340.41353370000434,340.9139423000015,340.89717130000645,,,,,,,,,,,,,,,,,,,,,,,,,,340.9080878000095,340.9139423000015,340.9139423000015,340.9139423000015,343.9135565000033,343.9135565000033,343.9135565000033,343.897446700008,indoor,f,343.8974922000052,,,343.89750380000623,None,,,2.310743599999114,0.143322599993553,,,,,,,,,,00034,001,2026-01-16_12h47.55.482,MST_task,2024.2.0,59.8774070009747,2026-01-16 12h48.04.031814 +0530,
,Objects\007a.jpg,59,0,60,,,,,,,f,None,,,1.754508199999691,0.15934959999867715,,,,60,0,59,343.9135565000033,,,,,,,,,,,,,,,,,,,,,,,343.89757010000176,343.9135565000033,344.41395309999643,344.3972517000075,,,,,,,,,,,,,,,,,,,,,,,,,,344.407512699996,344.41395309999643,344.41395309999643,344.41395309999643,347.41362249999656,347.41362249999656,347.41362249999656,347.39750740000454,indoor,f,347.3975502999965,,,347.3975619999983,None,,,1.754508199999691,0.15934959999867715,,,,,,,,,,00034,001,2026-01-16_12h47.55.482,MST_task,2024.2.0,59.8774070009747,2026-01-16 12h48.04.031814 +0530,
,Objects\115a.jpg,60,0,61,,,,,,,f,None,,,2.0308105000003707,0.15293189999647439,,,,61,0,60,347.41362249999656,,,,,,,,,,,,,,,,,,,,,,,347.3976274000015,347.41362249999656,347.91376900000614,347.8971668000013,,,,,,,,,,,,,,,,,,,,,,,,,,347.9069550999993,347.91376900000614,347.91376900000614,347.91376900000614,350.91359470000316,350.91359470000316,350.91359470000316,350.89739779999945,indoor,f,350.89743930000986,,,350.89745070000936,None,,,2.0308105000003707,0.15293189999647439,,,,,,,,,,00034,001,2026-01-16_12h47.55.482,MST_task,2024.2.0,59.8774070009747,2026-01-16 12h48.04.031814 +0530,
,Objects\246a.jpg,61,0,62,,,,,,,None,f,1.2675149999995483,None,,,,,,62,0,61,350.91359470000316,,,,,,,,,,,,,,,,,,,,,,,350.8975153000065,350.91359470000316,351.41384649999964,351.3974442000035,,,,,,,,,,,,,,,,,,,,,,,,,,351.4068632999988,351.41384649999964,351.41384649999964,351.41384649999964,354.41361020000477,354.41361020000477,354.41361020000477,354.3973804999987,indoor,None,354.3974176000047,354.41361020000477,354.41361020000477,355.6974096000049,f,1.2675149999995483,None,,,,,,,,,,,,00034,001,2026-01-16_12h47.55.482,MST_task,2024.2.0,59.8774070009747,2026-01-16 12h48.04.031814 +0530,
,Objects\234a.jpg,62,0,63,,,,,,,j,None,,,1.5140041999984533,0.16799110001011286,,,,63,0,62,355.71361069999693,,,,,,,,,,,,,,,,,,,,,,,355.69749890000094,355.71361069999693,356.21387310000136,356.1971812999982,,,,,,,,,,,,,,,,,,,,,,,,,,356.2075288000051,356.21387310000136,356.21387310000136,356.21387310000136,359.2136374999973,359.2136374999973,359.2136374999973,359.197430500004,indoor,j,359.1974750000081,,,359.1974867000099,None,,,1.5140041999984533,0.16799110001011286,,,,,,,,,,00034,001,2026-01-16_12h47.55.482,MST_task,2024.2.0,59.8774070009747,2026-01-16 12h48.04.031814 +0530,
,Objects\146a.jpg,63,0,64,,,,,,,j,None,,,2.1824613000062527,0.14409279999381397,,,,64,0,63,359.2136374999973,,,,,,,,,,,,,,,,,,,,,,,359.19755939999595,359.2136374999973,359.7138758000074,359.69711390000884,,,,,,,,,,,,,,,,,,,,,,,,,,359.70942490000743,359.7138758000074,359.7138758000074,359.7138758000074,362.7136118000053,362.7136118000053,362.7136118000053,362.6974754999974,shoe,j,362.69966920001025,,,362.69968640001025,None,,,2.1824613000062527,0.14409279999381397,,,,,,,,,,00034,001,2026-01-16_12h47.55.482,MST_task,2024.2.0,59.8774070009747,2026-01-16 12h48.04.031814 +0530,
,Objects\354a.jpg,64,0,65,,,,,,,f,None,,,1.906425000008312,0.18370029999641702,,,,65,0,64,362.7136118000053,,,,,,,,,,,,,,,,,,,,,,,362.6997579000017,362.7136118000053,363.2140076000069,363.19724999999744,,,,,,,,,,,,,,,,,,,,,,,,,,363.206929100008,363.2140076000069,363.2140076000069,363.2140076000069,366.213605500001,366.213605500001,366.213605500001,366.19736849999754,shoe,f,366.19741039999644,,,366.1974218000105,None,,,1.906425000008312,0.18370029999641702,,,,,,,,,,00034,001,2026-01-16_12h47.55.482,MST_task,2024.2.0,59.8774070009747,2026-01-16 12h48.04.031814 +0530,
,Objects\306a.jpg,65,0,66,,,,,,,f,None,,,1.2303418000083184,0.16796350000367966,,,,66,0,65,366.213605500001,,,,,,,,,,,,,,,,,,,,,,,366.1975184000039,366.213605500001,366.71409350000613,366.69724400000996,,,,,,,,,,,,,,,,,,,,,,,,,,366.7079425999982,366.71409350000613,366.71409350000613,366.71409350000613,369.7136327000044,369.7136327000044,369.7136327000044,369.69788289999997,shoe,f,369.6979314000055,,,369.69794399999955,None,,,1.2303418000083184,0.16796350000367966,,,,,,,,,,00034,001,2026-01-16_12h47.55.482,MST_task,2024.2.0,59.8774070009747,2026-01-16 12h48.04.031814 +0530,
,Objects\249a.jpg,66,0,67,,,,,,,f,None,,,0.9869241999986116,0.16687300000921823,,,,67,0,66,369.7136327000044,,,,,,,,,,,,,,,,,,,,,,,369.69806740000786,369.7136327000044,370.21409980001044,370.19724760000827,,,,,,,,,,,,,,,,,,,,,,,,,,370.20730110000295,370.21409980001044,370.21409980001044,370.21409980001044,373.2137269000086,373.2137269000086,373.2137269000086,373.19772940000985,shoe,f,373.197774500004,,,373.1977864000073,None,,,0.9869241999986116,0.16687300000921823,,,,,,,,,,00034,001,2026-01-16_12h47.55.482,MST_task,2024.2.0,59.8774070009747,2026-01-16 12h48.04.031814 +0530,
,Objects\132a.jpg,67,0,68,,,,,,,f,None,,,1.6139526999904774,0.1920105000026524,,,,68,0,67,373.2137269000086,,,,,,,,,,,,,,,,,,,,,,,373.19790009999997,373.2137269000086,373.71408659999724,373.6973318000091,,,,,,,,,,,,,,,,,,,,,,,,,,373.7074023000023,373.71408659999724,373.71408659999724,373.71408659999724,376.7138227999967,376.7138227999967,376.7138227999967,376.69762370000535,shoe,f,376.6976655000035,,,376.69767780000984,None,,,1.6139526999904774,0.1920105000026524,,,,,,,,,,00034,001,2026-01-16_12h47.55.482,MST_task,2024.2.0,59.8774070009747,2026-01-16 12h48.04.031814 +0530,
,Objects\121a.jpg,68,0,69,,,,,,,f,None,,,2.690685699999449,0.15913329999602865,,,,69,0,68,376.7138227999967,,,,,,,,,,,,,,,,,,,,,,,376.69778190000216,376.7138227999967,377.21393350001017,377.1973349000036,,,,,,,,,,,,,,,,,,,,,,,,,,377.20748040000035,377.21393350001017,377.21393350001017,377.21393350001017,380.21365830001014,380.21365830001014,380.21365830001014,380.19762180000544,shoe,f,380.19766230000823,,,380.19767340000544,None,,,2.690685699999449,0.15913329999602865,,,,,,,,,,00034,001,2026-01-16_12h47.55.482,MST_task,2024.2.0,59.8774070009747,2026-01-16 12h48.04.031814 +0530,
,Objects\212a.jpg,69,0,70,,,,,,,j,None,,,2.5743984000000637,0.1604568000038853,,,,70,0,69,380.21365830001014,,,,,,,,,,,,,,,,,,,,,,,380.19773810000333,380.21365830001014,380.7142797999986,380.6972886000003,,,,,,,,,,,,,,,,,,,,,,,,,,380.70764659999986,380.7142797999986,380.7142797999986,380.7142797999986,383.71372939999856,383.71372939999856,383.71372939999856,383.69751169999654,shoe,j,383.6975550000061,,,383.6975666000071,None,,,2.5743984000000637,0.1604568000038853,,,,,,,,,,00034,001,2026-01-16_12h47.55.482,MST_task,2024.2.0,59.8774070009747,2026-01-16 12h48.04.031814 +0530,
,Objects\238a.jpg,70,0,71,,,,,,,None,j,1.2993856000102824,None,,,,,,71,0,70,383.71372939999856,,,,,,,,,,,,,,,,,,,,,,,383.6976316000073,383.71372939999856,384.2141472000076,384.1972855000058,,,,,,,,,,,,,,,,,,,,,,,,,,384.20966110000154,384.2141472000076,384.2141472000076,384.2141472000076,387.2137345000083,387.2137345000083,387.2137345000083,387.197623,indoor,None,387.1992384000041,387.2137345000083,387.2137345000083,388.5140709999978,j,1.2993856000102824,None,,,,,,,,,,,,00034,001,2026-01-16_12h47.55.482,MST_task,2024.2.0,59.8774070009747,2026-01-16 12h48.04.031814 +0530,
,Objects\038a.jpg,71,0,72,,,,,,,f,None,,,2.2011540999956196,0.17708500000298955,,,,72,0,71,388.53024190000724,,,,,,,,,,,,,,,,,,,,,,,388.5141677000065,388.53024190000724,389.0307465000078,389.0139474000025,,,,,,,,,,,,,,,,,,,,,,,,,,389.02372599999944,389.0307465000078,389.0307465000078,389.0307465000078,392.03037459999905,392.03037459999905,392.03037459999905,392.0141573000001,indoor,f,392.0142005000089,,,392.0142126999999,None,,,2.2011540999956196,0.17708500000298955,,,,,,,,,,00034,001,2026-01-16_12h47.55.482,MST_task,2024.2.0,59.8774070009747,2026-01-16 12h48.04.031814 +0530,
,Objects\088a.jpg,72,0,73,,,,,,,None,f,1.542050999996718,None,,,,,,73,0,72,392.03037459999905,,,,,,,,,,,,,,,,,,,,,,,392.01427759999933,392.03037459999905,392.53057070000796,392.5139193000068,,,,,,,,,,,,,,,,,,,,,,,,,,392.52360320001026,392.53057070000796,392.53057070000796,392.53057070000796,395.5303775000066,395.5303775000066,395.5303775000066,395.5144247999997,indoor,None,395.51446350000333,395.5303775000066,395.5303775000066,397.08074649999617,f,1.542050999996718,None,,,,,,,,,,,,00034,001,2026-01-16_12h47.55.482,MST_task,2024.2.0,59.8774070009747,2026-01-16 12h48.04.031814 +0530,
,Objects\084a.jpg,73,0,74,,,,,,,f,None,,,2.490465900002164,0.20059550000587478,,,,74,0,73,397.09704770000826,,,,,,,,,,,,,,,,,,,,,,,397.08083330000227,397.09704770000826,397.59732390000136,397.58055860000604,,,,,,,,,,,,,,,,,,,,,,,,,,397.5910692000034,397.59732390000136,397.59732390000136,397.59732390000136,400.597071199998,400.597071199998,400.597071199998,400.58083140000235,indoor,f,400.5808732000005,,,400.58088500000304,None,,,2.490465900002164,0.20059550000587478,,,,,,,,,,00034,001,2026-01-16_12h47.55.482,MST_task,2024.2.0,59.8774070009747,2026-01-16 12h48.04.031814 +0530,
,Objects\177a.jpg,74,0,75,,,,,,,j,None,,,1.263746100012213,0.20689229998970404,,,,75,0,74,400.597071199998,,,,,,,,,,,,,,,,,,,,,,,400.58094960000017,400.597071199998,401.0972715000098,401.080452299997,,,,,,,,,,,,,,,,,,,,,,,,,,401.0919527000078,401.0972715000098,401.0972715000098,401.0972715000098,404.09719620000396,404.09719620000396,404.09719620000396,404.0809294000064,indoor,j,404.0809717000084,,,404.08098290000635,None,,,1.263746100012213,0.20689229998970404,,,,,,,,,,00034,001,2026-01-16_12h47.55.482,MST_task,2024.2.0,59.8774070009747,2026-01-16 12h48.04.031814 +0530,
,Objects\073a.jpg,75,0,76,,,,,,,f,None,,,1.7390164000098594,0.15200000000186265,,,,76,0,75,404.09719620000396,,,,,,,,,,,,,,,,,,,,,,,404.08104849999654,404.09719620000396,404.59728010000254,404.5806173000019,,,,,,,,,,,,,,,,,,,,,,,,,,404.59004789999744,404.59728010000254,404.59728010000254,404.59728010000254,407.59697340001003,407.59697340001003,407.59697340001003,407.5809554000007,indoor,f,407.5809969999973,,,407.5810082000098,None,,,1.7390164000098594,0.15200000000186265,,,,,,,,,,00034,001,2026-01-16_12h47.55.482,MST_task,2024.2.0,59.8774070009747,2026-01-16 12h48.04.031814 +0530,
,Objects\183a.jpg,76,0,77,,,,,,,f,None,,,1.0797218000079738,0.19894159999967087,,,,77,0,76,407.59697340001003,,,,,,,,,,,,,,,,,,,,,,,407.58107320001,407.59697340001003,408.09732270000677,408.08064650000597,,,,,,,,,,,,,,,,,,,,,,,,,,408.0905039000063,408.09732270000677,408.09732270000677,408.09732270000677,411.0970568000048,411.0970568000048,411.0970568000048,411.0807624000008,indoor,f,411.08080399999744,,,411.0808149000077,None,,,1.0797218000079738,0.19894159999967087,,,,,,,,,,00034,001,2026-01-16_12h47.55.482,MST_task,2024.2.0,59.8774070009747,2026-01-16 12h48.04.031814 +0530,
,Objects\322a.jpg,77,0,78,,,,,,,f,None,,,1.9625877000071341,0.2001626999990549,,,,78,0,77,411.0970568000048,,,,,,,,,,,,,,,,,,,,,,,411.08088020001014,411.0970568000048,411.59737360000145,411.58049950000714,,,,,,,,,,,,,,,,,,,,,,,,,,411.5936705000058,411.59737360000145,411.59737360000145,411.59737360000145,414.59702899999684,414.59702899999684,414.59702899999684,414.5810768000083,shoe,f,414.58338009999716,,,414.5833990999963,None,,,1.9625877000071341,0.2001626999990549,,,,,,,,,,00034,001,2026-01-16_12h47.55.482,MST_task,2024.2.0,59.8774070009747,2026-01-16 12h48.04.031814 +0530,
,Objects\174a.jpg,78,0,79,,,,,,,f,None,,,1.4071960000001127,0.1840154999954393,,,,79,0,78,414.59702899999684,,,,,,,,,,,,,,,,,,,,,,,414.58347520000825,414.59702899999684,415.0974009000056,415.08060889999615,,,,,,,,,,,,,,,,,,,,,,,,,,415.0909975000104,415.0974009000056,415.0974009000056,415.0974009000056,418.0970931000047,418.0970931000047,418.0970931000047,418.08092740000575,shoe,f,418.08096930000465,,,418.0809808000049,None,,,1.4071960000001127,0.1840154999954393,,,,,,,,,,00034,001,2026-01-16_12h47.55.482,MST_task,2024.2.0,59.8774070009747,2026-01-16 12h48.04.031814 +0530,
,Objects\167a.jpg,79,0,80,,,,,,,None,f,1.5235350000002654,None,,,,,,80,0,79,418.0970931000047,,,,,,,,,,,,,,,,,,,,,,,418.08108000000357,418.0970931000047,418.59738050001033,418.5806258000084,,,,,,,,,,,,,,,,,,,,,,,,,,418.59045299999707,418.59738050001033,418.59738050001033,418.59738050001033,421.59708990000945,421.59708990000945,421.59708990000945,421.58086490001006,shoe,None,421.5809003000031,421.59708990000945,421.59708990000945,423.1307969000045,f,1.5235350000002654,None,,,,,,,,,,,,00034,001,2026-01-16_12h47.55.482,MST_task,2024.2.0,59.8774070009747,2026-01-16 12h48.04.031814 +0530,
,Objects\331a.jpg,80,0,81,,,,,,,j,None,,,1.7604202999937115,0.1600414999993518,,,,81,0,80,423.14708110000356,,,,,,,,,,,,,,,,,,,,,,,423.130885999999,423.14708110000356,423.6474132000003,423.6307070000039,,,,,,,,,,,,,,,,,,,,,,,,,,423.64057770000363,423.6474132000003,423.6474132000003,423.6474132000003,426.646966100001,426.646966100001,426.646966100001,426.6307033000048,shoe,j,426.63074740000593,,,426.63075870000466,None,,,1.7604202999937115,0.1600414999993518,,,,,,,,,,00034,001,2026-01-16_12h47.55.482,MST_task,2024.2.0,59.8774070009747,2026-01-16 12h48.04.031814 +0530,
,Objects\231a.jpg,81,0,82,,,,,,,j,None,,,0.7812516999983927,0.15168320000520907,,,,82,0,81,426.646966100001,,,,,,,,,,,,,,,,,,,,,,,426.63082259999646,426.646966100001,427.1473266999965,427.1305560000037,,,,,,,,,,,,,,,,,,,,,,,,,,427.1408633999963,427.1473266999965,427.1473266999965,427.1473266999965,430.14696120000735,430.14696120000735,430.14696120000735,430.13069210000685,shoe,j,430.13073350000195,,,430.13074540000525,None,,,0.7812516999983927,0.15168320000520907,,,,,,,,,,00034,001,2026-01-16_12h47.55.482,MST_task,2024.2.0,59.8774070009747,2026-01-16 12h48.04.031814 +0530,
,Objects\017a.jpg,82,0,83,,,,,,,None,j,1.4186498999915784,None,,,,,,83,0,82,430.14696120000735,,,,,,,,,,,,,,,,,,,,,,,430.1308110999962,430.14696120000735,430.64737089999835,430.6304556999967,,,,,,,,,,,,,,,,,,,,,,,,,,430.6406296000059,430.64737089999835,430.64737089999835,430.64737089999835,433.64700379999704,433.64700379999704,433.64700379999704,433.63071150000906,shoe,None,433.63075019999815,433.64700379999704,433.64700379999704,435.0807824000076,j,1.4186498999915784,None,,,,,,,,,,,,00034,001,2026-01-16_12h47.55.482,MST_task,2024.2.0,59.8774070009747,2026-01-16 12h48.04.031814 +0530,
,Objects\105a.jpg,83,0,84,,,,,,,f,None,,,1.7878181000123732,0.17559539999638218,,,,84,0,83,435.09696840000106,,,,,,,,,,,,,,,,,,,,,,,435.080872999999,435.09696840000106,435.597145599997,435.5803787000041,,,,,,,,,,,,,,,,,,,,,,,,,,435.59032780000416,435.597145599997,435.597145599997,435.597145599997,438.59696009999607,438.59696009999607,438.59696009999607,438.5807749000087,shoe,f,438.5808168000076,,,438.58082889999787,None,,,1.7878181000123732,0.17559539999638218,,,,,,,,,,00034,001,2026-01-16_12h47.55.482,MST_task,2024.2.0,59.8774070009747,2026-01-16 12h48.04.031814 +0530,
,Objects\286a.jpg,84,0,85,,,,,,,f,None,,,1.5034545000089565,0.1991612999991048,,,,85,0,84,438.59696009999607,,,,,,,,,,,,,,,,,,,,,,,438.5808920999989,438.59696009999607,439.0973501999979,439.08038870000746,,,,,,,,,,,,,,,,,,,,,,,,,,439.0921229000087,439.0973501999979,439.0973501999979,439.0973501999979,442.0968944000051,442.0968944000051,442.0968944000051,442.0808781000087,indoor,f,442.0825441000052,,,442.08256229999824,None,,,1.5034545000089565,0.1991612999991048,,,,,,,,,,00034,001,2026-01-16_12h47.55.482,MST_task,2024.2.0,59.8774070009747,2026-01-16 12h48.04.031814 +0530,
,Objects\123a.jpg,85,0,86,,,,,,,j,None,,,2.779096500002197,0.13654520000272896,,,,86,0,85,442.0968944000051,,,,,,,,,,,,,,,,,,,,,,,442.0826334000012,442.0968944000051,442.5973495000071,442.5804729000083,,,,,,,,,,,,,,,,,,,,,,,,,,442.59142599999905,442.5973495000071,442.5973495000071,442.5973495000071,445.59690820000833,445.59690820000833,445.59690820000833,445.58072290000564,indoor,j,445.58077640000556,,,445.5807880000066,None,,,2.779096500002197,0.13654520000272896,,,,,,,,,,00034,001,2026-01-16_12h47.55.482,MST_task,2024.2.0,59.8774070009747,2026-01-16 12h48.04.031814 +0530,
,Objects\314a.jpg,86,0,87,,,,,,,f,None,,,2.070505499999854,0.17662739999650512,,,,87,0,86,445.59690820000833,,,,,,,,,,,,,,,,,,,,,,,445.5808546000044,445.59690820000833,446.0973670000094,446.08049970000866,,,,,,,,,,,,,,,,,,,,,,,,,,446.09016439999687,446.0973670000094,446.0973670000094,446.0973670000094,449.09697140000935,449.09697140000935,449.09697140000935,449.08066980000876,indoor,f,449.0807105999993,,,449.08072240000183,None,,,2.070505499999854,0.17662739999650512,,,,,,,,,,00034,001,2026-01-16_12h47.55.482,MST_task,2024.2.0,59.8774070009747,2026-01-16 12h48.04.031814 +0530,
,Objects\100a.jpg,87,0,88,,,,,,,f,None,,,2.0753145000053337,0.17555529999663122,,,,88,0,87,449.09697140000935,,,,,,,,,,,,,,,,,,,,,,,449.08078699999896,449.09697140000935,449.5972962000087,449.58039990000543,,,,,,,,,,,,,,,,,,,,,,,,,,449.59026730000915,449.5972962000087,449.5972962000087,449.5972962000087,452.5969497000042,452.5969497000042,452.5969497000042,452.5809491999971,indoor,f,452.580998999998,,,452.5810121000104,None,,,2.0753145000053337,0.17555529999663122,,,,,,,,,,00034,001,2026-01-16_12h47.55.482,MST_task,2024.2.0,59.8774070009747,2026-01-16 12h48.04.031814 +0530,
,Objects\135a.jpg,88,0,89,,,,,,,f,None,,,2.1347830000013346,0.1999729999952251,,,,89,0,88,452.5969497000042,,,,,,,,,,,,,,,,,,,,,,,452.58108280001034,452.5969497000042,453.09717790001014,453.080377899998,,,,,,,,,,,,,,,,,,,,,,,,,,453.09037669999816,453.09717790001014,453.09717790001014,453.09717790001014,456.0969654000073,456.0969654000073,456.0969654000073,456.08079030000954,indoor,f,456.0808332000015,,,456.0808456000086,None,,,2.1347830000013346,0.1999729999952251,,,,,,,,,,00034,001,2026-01-16_12h47.55.482,MST_task,2024.2.0,59.8774070009747,2026-01-16 12h48.04.031814 +0530,
,Objects\315a.jpg,89,0,90,,,,,,,j,None,,,2.6683238000114216,0.11062049999600276,,,,90,0,89,456.0969654000073,,,,,,,,,,,,,,,,,,,,,,,456.08091160000185,456.0969654000073,456.5974637000036,456.580681300009,,,,,,,,,,,,,,,,,,,,,,,,,,456.59033459999773,456.5974637000036,456.5974637000036,456.5974637000036,459.596898600008,459.596898600008,459.596898600008,459.5809595000028,indoor,j,459.58100289999857,,,459.58101480000187,None,,,2.6683238000114216,0.11062049999600276,,,,,,,,,,00034,001,2026-01-16_12h47.55.482,MST_task,2024.2.0,59.8774070009747,2026-01-16 12h48.04.031814 +0530,
,Objects\251a.jpg,90,0,91,,,,,,,f,None,,,1.295614900009241,0.19104959999094717,,,,91,0,90,459.596898600008,,,,,,,,,,,,,,,,,,,,,,,459.5810802000051,459.596898600008,460.0972416000004,460.08056919999945,,,,,,,,,,,,,,,,,,,,,,,,,,460.08966549999604,460.0972416000004,460.0972416000004,460.0972416000004,463.0969027000101,463.0969027000101,463.0969027000101,463.0807655000099,indoor,f,463.080807300008,,,463.0808188000083,None,,,1.295614900009241,0.19104959999094717,,,,,,,,,,00034,001,2026-01-16_12h47.55.482,MST_task,2024.2.0,59.8774070009747,2026-01-16 12h48.04.031814 +0530,
,Objects\126a.jpg,91,0,92,,,,,,,j,None,,,1.9385739999997895,0.13608169999497477,,,,92,0,91,463.0969027000101,,,,,,,,,,,,,,,,,,,,,,,463.08088419999694,463.0969027000101,463.59734550000576,463.5804760000028,,,,,,,,,,,,,,,,,,,,,,,,,,463.5943053000083,463.59734550000576,463.59734550000576,463.59734550000576,466.59690060000867,466.59690060000867,466.59690060000867,466.58082080000895,shoe,j,466.5829759000044,,,466.58299409999745,None,,,1.9385739999997895,0.13608169999497477,,,,,,,,,,00034,001,2026-01-16_12h47.55.482,MST_task,2024.2.0,59.8774070009747,2026-01-16 12h48.04.031814 +0530,
,Objects\321a.jpg,92,0,93,,,,,,,f,None,,,1.1348409000056563,0.1682303999987198,,,,93,0,92,466.59690060000867,,,,,,,,,,,,,,,,,,,,,,,466.58306400000583,466.59690060000867,467.0974111999967,467.0804108000011,,,,,,,,,,,,,,,,,,,,,,,,,,467.0904962000059,467.0974111999967,467.0974111999967,467.0974111999967,470.0969250000053,470.0969250000053,470.0969250000053,470.08082139999897,shoe,f,470.08086300001014,,,470.08087440000963,None,,,1.1348409000056563,0.1682303999987198,,,,,,,,,,00034,001,2026-01-16_12h47.55.482,MST_task,2024.2.0,59.8774070009747,2026-01-16 12h48.04.031814 +0530,
,Objects\310a.jpg,93,0,94,,,,,,,j,None,,,1.7468859999935376,0.1775653000077,,,,94,0,93,470.0969250000053,,,,,,,,,,,,,,,,,,,,,,,470.0809409000067,470.0969250000053,470.59734110000136,470.58050140000705,,,,,,,,,,,,,,,,,,,,,,,,,,470.59027790000255,470.59734110000136,470.59734110000136,470.59734110000136,473.5969901000062,473.5969901000062,473.5969901000062,473.5807135000068,shoe,j,473.5807567000011,,,473.5807683000021,None,,,1.7468859999935376,0.1775653000077,,,,,,,,,,00034,001,2026-01-16_12h47.55.482,MST_task,2024.2.0,59.8774070009747,2026-01-16 12h48.04.031814 +0530,
,Objects\106a.jpg,94,0,95,,,,,,,f,None,,,1.3105829999985872,0.1600003000057768,,,,95,0,94,473.5969901000062,,,,,,,,,,,,,,,,,,,,,,,473.58083259999694,473.5969901000062,474.09738140000263,474.08043590000307,,,,,,,,,,,,,,,,,,,,,,,,,,474.0908824000071,474.09738140000263,474.09738140000263,474.09738140000263,477.09697670000605,477.09697670000605,477.09697670000605,477.0807344000059,shoe,f,477.0807771999971,,,477.0807885999966,None,,,1.3105829999985872,0.1600003000057768,,,,,,,,,,00034,001,2026-01-16_12h47.55.482,MST_task,2024.2.0,59.8774070009747,2026-01-16 12h48.04.031814 +0530,
,Objects\192a.jpg,95,0,96,,,,,,,f,None,,,1.4686413000017637,0.1500322999927448,,,,96,0,95,477.09697670000605,,,,,,,,,,,,,,,,,,,,,,,477.08088550000684,477.09697670000605,477.59723700000905,477.5803867000068,,,,,,,,,,,,,,,,,,,,,,,,,,477.590085600008,477.59723700000905,477.59723700000905,477.59723700000905,480.5969715999963,480.5969715999963,480.5969715999963,480.58066010000766,shoe,f,480.58070069999667,,,480.58071259999997,None,,,1.4686413000017637,0.1500322999927448,,,,,,,,,,00034,001,2026-01-16_12h47.55.482,MST_task,2024.2.0,59.8774070009747,2026-01-16 12h48.04.031814 +0530,
,Objects\099a.jpg,96,0,97,,,,,,,j,None,,,1.1750698999967426,0.18410930001118686,,,,97,0,96,480.5969715999963,,,,,,,,,,,,,,,,,,,,,,,480.5807780000032,480.5969715999963,481.09723149999627,481.08047319999605,,,,,,,,,,,,,,,,,,,,,,,,,,481.09047540000756,481.09723149999627,481.09723149999627,481.09723149999627,484.0970926000009,484.0970926000009,484.0970926000009,484.08091160000185,shoe,j,484.0809592000005,,,484.08097120000457,None,,,1.1750698999967426,0.18410930001118686,,,,,,,,,,00034,001,2026-01-16_12h47.55.482,MST_task,2024.2.0,59.8774070009747,2026-01-16 12h48.04.031814 +0530,
,Objects\163a.jpg,97,0,98,,,,,,,f,None,,,1.0115764000074705,0.18400850000034552,,,,98,0,97,484.0970926000009,,,,,,,,,,,,,,,,,,,,,,,484.0810383000062,484.0970926000009,484.5972121000086,484.5804489000002,,,,,,,,,,,,,,,,,,,,,,,,,,484.59004589999677,484.5972121000086,484.5972121000086,484.5972121000086,487.59736490000796,487.59736490000796,487.59736490000796,487.5808984000032,shoe,f,487.5809408000059,,,487.58095240000694,None,,,1.0115764000074705,0.18400850000034552,,,,,,,,,,00034,001,2026-01-16_12h47.55.482,MST_task,2024.2.0,59.8774070009747,2026-01-16 12h48.04.031814 +0530,
,Objects\152a.jpg,98,0,99,,,,,,,f,None,,,2.5273354000091786,0.18394219999026973,,,,99,0,98,487.59736490000796,,,,,,,,,,,,,,,,,,,,,,,487.5810184000002,487.59736490000796,488.0973276000004,488.08066150000377,,,,,,,,,,,,,,,,,,,,,,,,,,488.09193470000173,488.0973276000004,488.0973276000004,488.0973276000004,491.09696989999793,491.09696989999793,491.09696989999793,491.0810748000076,indoor,f,491.08272510000097,,,491.0827419999987,None,,,2.5273354000091786,0.18394219999026973,,,,,,,,,,00034,001,2026-01-16_12h47.55.482,MST_task,2024.2.0,59.8774070009747,2026-01-16 12h48.04.031814 +0530,
,Objects\222a.jpg,99,0,100,,,,,,,j,None,,,2.4351951999997254,0.15998949999629986,,,,100,0,99,491.09696989999793,,,,,,,,,,,,,,,,,,,,,,,491.0828102000087,491.09696989999793,491.5975544999965,491.5806137000036,,,,,,,,,,,,,,,,,,,,,,,,,,491.5911049999995,491.5975544999965,491.5975544999965,491.5975544999965,494.5970893000049,494.5970893000049,494.5970893000049,494.58077179999964,indoor,j,494.5808131000085,,,494.5808248999965,None,,,2.4351951999997254,0.15998949999629986,,,,,,,,,,00034,001,2026-01-16_12h47.55.482,MST_task,2024.2.0,59.8774070009747,2026-01-16 12h48.04.031814 +0530,
,Objects\369a.jpg,100,0,101,,,,,,,f,None,,,1.9905873999960022,0.18400059999839868,,,,101,0,100,494.5970893000049,,,,,,,,,,,,,,,,,,,,,,,494.58088999999745,494.5970893000049,495.09742829999595,495.0806057000009,,,,,,,,,,,,,,,,,,,,,,,,,,495.0911460000061,495.09742829999595,495.09742829999595,495.09742829999595,498.0970861000096,498.0970861000096,498.0970861000096,498.08077539999795,indoor,f,498.0808187000075,,,498.0808296000032,None,,,1.9905873999960022,0.18400059999839868,,,,,,,,,,00034,001,2026-01-16_12h47.55.482,MST_task,2024.2.0,59.8774070009747,2026-01-16 12h48.04.031814 +0530,
,Objects\090a.jpg,101,0,102,,,,,,,j,None,,,1.3389175000047544,0.15230719999817666,,,,102,0,101,498.0970861000096,,,,,,,,,,,,,,,,,,,,,,,498.0808945000026,498.0970861000096,498.5973178999993,498.580532699998,,,,,,,,,,,,,,,,,,,,,,,,,,498.5904076000006,498.5973178999993,498.5973178999993,498.5973178999993,501.59704310000234,501.59704310000234,501.59704310000234,501.58097710000584,indoor,j,501.5810196000093,,,501.5810310000088,None,,,1.3389175000047544,0.15230719999817666,,,,,,,,,,00034,001,2026-01-16_12h47.55.482,MST_task,2024.2.0,59.8774070009747,2026-01-16 12h48.04.031814 +0530,
,Objects\327a.jpg,102,0,103,,,,,,,j,None,,,2.551520699998946,0.174888399997144,,,,103,0,102,501.59704310000234,,,,,,,,,,,,,,,,,,,,,,,501.58109619999595,501.59704310000234,502.09744630000205,502.0806322999997,,,,,,,,,,,,,,,,,,,,,,,,,,502.09180720000586,502.09744630000205,502.09744630000205,502.09744630000205,505.09711109999625,505.09711109999625,505.09711109999625,505.08078150000074,indoor,j,505.08082440000726,,,505.0808360000083,None,,,2.551520699998946,0.174888399997144,,,,,,,,,,00034,001,2026-01-16_12h47.55.482,MST_task,2024.2.0,59.8774070009747,2026-01-16 12h48.04.031814 +0530,
,Objects\010a.jpg,103,0,104,,,,,,,f,None,,,1.4509175999992294,0.16008630000578705,,,,104,0,103,505.09711109999625,,,,,,,,,,,,,,,,,,,,,,,505.0809011000092,505.09711109999625,505.59739380000974,505.58054199999606,,,,,,,,,,,,,,,,,,,,,,,,,,505.5909496000095,505.59739380000974,505.59739380000974,505.59739380000974,508.5970897000079,508.5970897000079,508.5970897000079,508.5808573999966,indoor,f,508.5808995999978,,,508.58091129999957,None,,,1.4509175999992294,0.16008630000578705,,,,,,,,,,00034,001,2026-01-16_12h47.55.482,MST_task,2024.2.0,59.8774070009747,2026-01-16 12h48.04.031814 +0530,
,Objects\083a.jpg,104,0,105,,,,,,,f,None,,,1.8000131000007968,0.17571250000037253,,,,105,0,104,508.5970897000079,,,,,,,,,,,,,,,,,,,,,,,508.5809778999974,508.5970897000079,509.09736200000043,509.080686900008,,,,,,,,,,,,,,,,,,,,,,,,,,509.08983589999843,509.09736200000043,509.09736200000043,509.09736200000043,512.097099000006,512.097099000006,512.097099000006,512.0807959000085,indoor,f,512.0808391000028,,,512.0808505000023,None,,,1.8000131000007968,0.17571250000037253,,,,,,,,,,00034,001,2026-01-16_12h47.55.482,MST_task,2024.2.0,59.8774070009747,2026-01-16 12h48.04.031814 +0530,
,Objects\043a.jpg,105,0,106,,,,,,,f,None,,,2.675377899999148,0.14398929999151733,,,,106,0,105,512.097099000006,,,,,,,,,,,,,,,,,,,,,,,512.0809182000085,512.097099000006,512.5972563000105,512.5805345999979,,,,,,,,,,,,,,,,,,,,,,,,,,512.5925381999987,512.5972563000105,512.5972563000105,512.5972563000105,515.5970315000013,515.5970315000013,515.5970315000013,515.5811260000046,shoe,f,515.5832249000086,,,515.5832425999979,None,,,2.675377899999148,0.14398929999151733,,,,,,,,,,00034,001,2026-01-16_12h47.55.482,MST_task,2024.2.0,59.8774070009747,2026-01-16 12h48.04.031814 +0530,
,Objects\205a.jpg,106,0,107,,,,,,,j,None,,,1.9266552000044612,0.11209569999482483,,,,107,0,106,515.5970315000013,,,,,,,,,,,,,,,,,,,,,,,515.5833141000039,515.5970315000013,516.0974431000068,516.0808021999983,,,,,,,,,,,,,,,,,,,,,,,,,,516.091980600002,516.0974431000068,516.0974431000068,516.0974431000068,519.0969853999995,519.0969853999995,519.0969853999995,519.0806563000078,shoe,j,519.0806995000021,,,519.0807118000084,None,,,1.9266552000044612,0.11209569999482483,,,,,,,,,,00034,001,2026-01-16_12h47.55.482,MST_task,2024.2.0,59.8774070009747,2026-01-16 12h48.04.031814 +0530,
,Objects\237a.jpg,107,0,108,,,,,,,j,None,,,1.7224621000059415,0.1684829999867361,,,,108,0,107,519.0969853999995,,,,,,,,,,,,,,,,,,,,,,,519.0807816000015,519.0969853999995,519.5974754000054,519.5804101999965,,,,,,,,,,,,,,,,,,,,,,,,,,519.5915808999998,519.5974754000054,519.5974754000054,519.5974754000054,522.5969912,522.5969912,522.5969912,522.5807376000012,shoe,j,522.5807804000069,,,522.5807915000041,None,,,1.7224621000059415,0.1684829999867361,,,,,,,,,,00034,001,2026-01-16_12h47.55.482,MST_task,2024.2.0,59.8774070009747,2026-01-16 12h48.04.031814 +0530,
,Objects\229a.jpg,108,0,109,,,,,,,f,None,,,2.6709832999913488,0.13598610000917688,,,,109,0,108,522.5969912,,,,,,,,,,,,,,,,,,,,,,,522.5808555999974,522.5969912,523.0975716000103,523.080435099997,,,,,,,,,,,,,,,,,,,,,,,,,,523.0925696000049,523.0975716000103,523.0975716000103,523.0975716000103,526.0969926999969,526.0969926999969,526.0969926999969,526.0808995999978,shoe,f,526.0809427000058,,,526.0809541000053,None,,,2.6709832999913488,0.13598610000917688,,,,,,,,,,00034,001,2026-01-16_12h47.55.482,MST_task,2024.2.0,59.8774070009747,2026-01-16 12h48.04.031814 +0530,
,Objects\261a.jpg,109,0,110,,,,,,,f,None,,,1.6200591000088025,0.19091679999837652,,,,110,0,109,526.0969926999969,,,,,,,,,,,,,,,,,,,,,,,526.0810233000084,526.0969926999969,526.5973980999988,526.5804864000092,,,,,,,,,,,,,,,,,,,,,,,,,,526.5903822999971,526.5973980999988,526.5973980999988,526.5973980999988,529.5969831999973,529.5969831999973,529.5969831999973,529.5807311999961,shoe,f,529.5807722000027,,,529.5807830999984,None,,,1.6200591000088025,0.19091679999837652,,,,,,,,,,00034,001,2026-01-16_12h47.55.482,MST_task,2024.2.0,59.8774070009747,2026-01-16 12h48.04.031814 +0530,
,Objects\197a.jpg,110,0,111,,,,,,,j,None,,,1.2223574999952689,0.16884260000369977,,,,111,0,110,529.5969831999973,,,,,,,,,,,,,,,,,,,,,,,529.5808467000024,529.5969831999973,530.0974572999985,530.0804767000081,,,,,,,,,,,,,,,,,,,,,,,,,,530.0916417999979,530.0974572999985,530.0974572999985,530.0974572999985,533.0969942000083,533.0969942000083,533.0969942000083,533.0806862000027,shoe,j,533.0807280000008,,,533.0807398000034,None,,,1.2223574999952689,0.16884260000369977,,,,,,,,,,00034,001,2026-01-16_12h47.55.482,MST_task,2024.2.0,59.8774070009747,2026-01-16 12h48.04.031814 +0530,
,Objects\300a.jpg,111,0,112,,,,,,,f,None,,,1.7463493999966886,0.1759821000014199,,,,112,0,111,533.0969942000083,,,,,,,,,,,,,,,,,,,,,,,533.080839000002,533.0969942000083,533.5974983000051,533.5805064000015,,,,,,,,,,,,,,,,,,,,,,,,,,533.5905581999978,533.5974983000051,533.5974983000051,533.5974983000051,536.5969917000039,536.5969917000039,536.5969917000039,536.5806395999971,shoe,f,536.5806817999983,,,536.5806932999985,None,,,1.7463493999966886,0.1759821000014199,,,,,,,,,,00034,001,2026-01-16_12h47.55.482,MST_task,2024.2.0,59.8774070009747,2026-01-16 12h48.04.031814 +0530,
,Objects\071a.jpg,112,0,113,,,,,,,j,None,,,1.7345487000129651,0.1606265999871539,,,,113,0,112,536.5969917000039,,,,,,,,,,,,,,,,,,,,,,,536.5807571000041,536.5969917000039,537.0973480000102,537.0804152000055,,,,,,,,,,,,,,,,,,,,,,,,,,537.0923627000011,537.0973480000102,537.0973480000102,537.0973480000102,540.096932600005,540.096932600005,540.096932600005,540.0809459000011,indoor,j,540.0825677999965,,,540.0825853999995,None,,,1.7345487000129651,0.1606265999871539,,,,,,,,,,00034,001,2026-01-16_12h47.55.482,MST_task,2024.2.0,59.8774070009747,2026-01-16 12h48.04.031814 +0530,
,Objects\046a.jpg,113,0,114,,,,,,,f,None,,,1.394571900003939,0.1759946999954991,,,,114,0,113,540.096932600005,,,,,,,,,,,,,,,,,,,,,,,540.0826547000033,540.096932600005,540.5973042999976,540.5805096999975,,,,,,,,,,,,,,,,,,,,,,,,,,540.5898926000082,540.5973042999976,540.5973042999976,540.5973042999976,543.5970769999985,543.5970769999985,543.5970769999985,543.5808082000003,indoor,f,543.5808499999985,,,543.580861399998,None,,,1.394571900003939,0.1759946999954991,,,,,,,,,,00034,001,2026-01-16_12h47.55.482,MST_task,2024.2.0,59.8774070009747,2026-01-16 12h48.04.031814 +0530,
,Objects\239a.jpg,114,0,115,,,,,,,f,None,,,2.007297699994524,0.21506950000184588,,,,115,0,114,543.5970769999985,,,,,,,,,,,,,,,,,,,,,,,543.5809251000028,543.5970769999985,544.0974431000068,544.0804854000016,,,,,,,,,,,,,,,,,,,,,,,,,,544.0910294000059,544.0974431000068,544.0974431000068,544.0974431000068,547.0970675999997,547.0970675999997,547.0970675999997,547.0807507999998,indoor,f,547.0807944999979,,,547.0808061999996,None,,,2.007297699994524,0.21506950000184588,,,,,,,,,,00034,001,2026-01-16_12h47.55.482,MST_task,2024.2.0,59.8774070009747,2026-01-16 12h48.04.031814 +0530,
,Objects\287a.jpg,115,0,116,,,,,,,f,None,,,1.9390265999973053,0.14495390000229236,,,,116,0,115,547.0970675999997,,,,,,,,,,,,,,,,,,,,,,,547.0808779000072,547.0970675999997,547.5974732000032,547.5804213000083,,,,,,,,,,,,,,,,,,,,,,,,,,547.5904637000058,547.5974732000032,547.5974732000032,547.5974732000032,550.5969906999962,550.5969906999962,550.5969906999962,550.5806197000056,indoor,f,550.5806615000038,,,550.580672600001,None,,,1.9390265999973053,0.14495390000229236,,,,,,,,,,00034,001,2026-01-16_12h47.55.482,MST_task,2024.2.0,59.8774070009747,2026-01-16 12h48.04.031814 +0530,
,Objects\129a.jpg,116,0,117,,,,,,,j,None,,,2.215581700002076,0.14381490000232588,,,,117,0,116,550.5969906999962,,,,,,,,,,,,,,,,,,,,,,,550.5807387000095,550.5969906999962,551.0974267999991,551.0806209000002,,,,,,,,,,,,,,,,,,,,,,,,,,551.0910728000017,551.0974267999991,551.0974267999991,551.0974267999991,554.0969749000069,554.0969749000069,554.0969749000069,554.080761899997,indoor,j,554.080803600009,,,554.0808507000038,None,,,2.215581700002076,0.14381490000232588,,,,,,,,,,00034,001,2026-01-16_12h47.55.482,MST_task,2024.2.0,59.8774070009747,2026-01-16 12h48.04.031814 +0530,
,Objects\383a.jpg,117,0,118,,,,,,,j,None,,,1.6112277999927755,0.20779300000867806,,,,118,0,117,554.0969749000069,,,,,,,,,,,,,,,,,,,,,,,554.0809193000023,554.0969749000069,554.5973495000071,554.5805208000093,,,,,,,,,,,,,,,,,,,,,,,,,,554.5907361999998,554.5973495000071,554.5973495000071,554.5973495000071,557.5969944000099,557.5969944000099,557.5969944000099,557.5807033000019,indoor,j,557.5807463000092,,,557.5807578000095,None,,,1.6112277999927755,0.20779300000867806,,,,,,,,,,00034,001,2026-01-16_12h47.55.482,MST_task,2024.2.0,59.8774070009747,2026-01-16 12h48.04.031814 +0530,
,Objects\304a.jpg,118,0,119,,,,,,,f,None,,,2.695245299997623,0.17599699999846052,,,,119,0,118,557.5969944000099,,,,,,,,,,,,,,,,,,,,,,,557.580830100007,557.5969944000099,558.0973401000083,558.0805929000053,,,,,,,,,,,,,,,,,,,,,,,,,,558.0905866000103,558.0973401000083,558.0973401000083,558.0973401000083,561.0969947999984,561.0969947999984,561.0969947999984,561.0808029000036,indoor,f,561.0808458999963,,,561.0808573000104,None,,,2.695245299997623,0.17599699999846052,,,,,,,,,,00034,001,2026-01-16_12h47.55.482,MST_task,2024.2.0,59.8774070009747,2026-01-16 12h48.04.031814 +0530,
,Objects\326a.jpg,119,0,120,,,,,,,None,f,2.116095999997924,None,,,,,,120,0,119,561.0969947999984,,,,,,,,,,,,,,,,,,,,,,,561.0809230000013,561.0969947999984,561.5977469000063,561.5804381000053,,,,,,,,,,,,,,,,,,,,,,,,,,561.5952025000006,561.5977469000063,561.5977469000063,561.5977469000063,564.5970746000094,564.5970746000094,564.5970746000094,564.5806738000101,shoe,None,564.5828238000104,564.5970746000094,564.5970746000094,566.7140769999969,f,2.116095999997924,None,,,,,,,,,,,,00034,001,2026-01-16_12h47.55.482,MST_task,2024.2.0,59.8774070009747,2026-01-16 12h48.04.031814 +0530,
,Objects\093a.jpg,120,0,121,,,,,,,j,None,,,1.0660342999908607,0.17609000000811648,,,,121,0,120,566.730089100005,,,,,,,,,,,,,,,,,,,,,,,566.7141770000017,566.730089100005,567.2305153000052,567.2138241000066,,,,,,,,,,,,,,,,,,,,,,,,,,567.2238186000031,567.2305153000052,567.2305153000052,567.2305153000052,570.2301684999984,570.2301684999984,570.2301684999984,570.2141397000087,shoe,j,570.2141830000037,,,570.21419530001,None,,,1.0660342999908607,0.17609000000811648,,,,,,,,,,00034,001,2026-01-16_12h47.55.482,MST_task,2024.2.0,59.8774070009747,2026-01-16 12h48.04.031814 +0530,
,Objects\264a.jpg,121,0,122,,,,,,,f,None,,,1.5821043999894755,0.19177160000253934,,,,122,0,121,570.2301684999984,,,,,,,,,,,,,,,,,,,,,,,570.2142600000079,570.2301684999984,570.730896100009,570.7140042000101,,,,,,,,,,,,,,,,,,,,,,,,,,570.7245005000004,570.730896100009,570.730896100009,570.730896100009,573.7303289999982,573.7303289999982,573.7303289999982,573.7144394000061,shoe,f,573.7144864000002,,,573.7144984000042,None,,,1.5821043999894755,0.19177160000253934,,,,,,,,,,00034,001,2026-01-16_12h47.55.482,MST_task,2024.2.0,59.8774070009747,2026-01-16 12h48.04.031814 +0530,
,Objects\127a.jpg,122,0,123,,,,,,,f,None,,,2.929619600006845,None,,,,123,0,122,573.7303289999982,,,,,,,,,,,,,,,,,,,,,,,573.7145660000097,573.7303289999982,574.2306629000086,574.2139188000001,,,,,,,,,,,,,,,,,,,,,,,,,,574.2242704000091,574.2306629000086,574.2306629000086,574.2306629000086,577.2301754000073,577.2301754000073,577.2301754000073,577.214186600002,shoe,f,577.2142403000034,,,577.214252500009,None,,,2.929619600006845,None,,,,,,,,,,00034,001,2026-01-16_12h47.55.482,MST_task,2024.2.0,59.8774070009747,2026-01-16 12h48.04.031814 +0530,
,Objects\253a.jpg,123,0,124,,,,,,,f,None,,,2.350185599992983,0.15956939999887254,,,,124,0,123,577.2301754000073,,,,,,,,,,,,,,,,,,,,,,,577.2143191000068,577.2301754000073,577.7303892000054,577.7138273000019,,,,,,,,,,,,,,,,,,,,,,,,,,577.723140800008,577.7303892000054,577.7303892000054,577.7303892000054,580.730321199997,580.730321199997,580.730321199997,580.7143165000016,shoe,f,580.7143605000019,,,580.714372500006,None,,,2.350185599992983,0.15956939999887254,,,,,,,,,,00034,001,2026-01-16_12h47.55.482,MST_task,2024.2.0,59.8774070009747,2026-01-16 12h48.04.031814 +0530,
,Objects\045a.jpg,124,0,125,,,,,,,j,None,,,1.4014320999995107,0.20064320000528824,,,,125,0,124,580.730321199997,,,,,,,,,,,,,,,,,,,,,,,580.7144703000085,580.730321199997,581.2305580000102,581.2139358999993,,,,,,,,,,,,,,,,,,,,,,,,,,581.2236838999961,581.2305580000102,581.2305580000102,581.2305580000102,584.2301689000014,584.2301689000014,584.2301689000014,584.2141963000031,shoe,j,584.2142387000058,,,584.214249800003,None,,,1.4014320999995107,0.20064320000528824,,,,,,,,,,00034,001,2026-01-16_12h47.55.482,MST_task,2024.2.0,59.8774070009747,2026-01-16 12h48.04.031814 +0530,
,Objects\087a.jpg,125,0,126,,,,,,,j,None,,,1.5031330000056187,0.18361279999953695,,,,126,0,125,584.2301689000014,,,,,,,,,,,,,,,,,,,,,,,584.2143589000043,584.2301689000014,584.730612600004,584.7140056000062,,,,,,,,,,,,,,,,,,,,,,,,,,584.7250639999984,584.730612600004,584.730612600004,584.730612600004,587.7302728000068,587.7302728000068,587.7302728000068,587.7142204999982,shoe,j,587.7142606999987,,,587.7142720999982,None,,,1.5031330000056187,0.18361279999953695,,,,,,,,,,00034,001,2026-01-16_12h47.55.482,MST_task,2024.2.0,59.8774070009747,2026-01-16 12h48.04.031814 +0530,
,Objects\324a.jpg,126,0,127,,,,,,,f,None,,,2.3379137000010815,0.1440013999963412,,,,127,0,126,587.7302728000068,,,,,,,,,,,,,,,,,,,,,,,587.7143686000054,587.7302728000068,588.2306402999966,588.2140717000002,,,,,,,,,,,,,,,,,,,,,,,,,,588.22723460001,588.2306402999966,588.2306402999966,588.2306402999966,591.2302741000021,591.2302741000021,591.2302741000021,591.2142680999968,indoor,f,591.2159212999977,,,591.2159385999985,None,,,2.3379137000010815,0.1440013999963412,,,,,,,,,,00034,001,2026-01-16_12h47.55.482,MST_task,2024.2.0,59.8774070009747,2026-01-16 12h48.04.031814 +0530,
,Objects\034a.jpg,127,0,128,,,,,,,j,None,,,2.1096931000065524,0.16022809999412857,,,,128,0,127,591.2302741000021,,,,,,,,,,,,,,,,,,,,,,,591.2160090999969,591.2302741000021,591.7305428999971,591.7140911000024,,,,,,,,,,,,,,,,,,,,,,,,,,591.7245672999998,591.7305428999971,591.7305428999971,591.7305428999971,594.7301799999987,594.7301799999987,594.7301799999987,594.7142936000018,indoor,j,594.7143401000067,,,594.7143523999985,None,,,2.1096931000065524,0.16022809999412857,,,,,,,,,,00034,001,2026-01-16_12h47.55.482,MST_task,2024.2.0,59.8774070009747,2026-01-16 12h48.04.031814 +0530,
,Objects\282a.jpg,128,0,129,,,,,,,j,None,,,1.266751999995904,0.16698929999256507,,,,129,0,128,594.7301799999987,,,,,,,,,,,,,,,,,,,,,,,594.7144169000094,594.7301799999987,595.2305328000075,595.2141341000097,,,,,,,,,,,,,,,,,,,,,,,,,,595.2242241000058,595.2305328000075,595.2305328000075,595.2305328000075,598.2301993000001,598.2301993000001,598.2301993000001,598.2142309000046,indoor,j,598.2142750000057,,,598.2142861000029,None,,,1.266751999995904,0.16698929999256507,,,,,,,,,,00034,001,2026-01-16_12h47.55.482,MST_task,2024.2.0,59.8774070009747,2026-01-16 12h48.04.031814 +0530,
,Objects\301a.jpg,129,0,130,,,,,,,j,None,,,2.005898999996134,0.16791530000045896,,,,130,0,129,598.2301993000001,,,,,,,,,,,,,,,,,,,,,,,598.2143508000008,598.2301993000001,598.7304882000026,598.7138496999978,,,,,,,,,,,,,,,,,,,,,,,,,,598.7226799000055,598.7304882000026,598.7304882000026,598.7304882000026,601.7302370999969,601.7302370999969,601.7302370999969,601.7142401000019,indoor,j,601.7142828000069,,,601.7142941000056,None,,,2.005898999996134,0.16791530000045896,,,,,,,,,,00034,001,2026-01-16_12h47.55.482,MST_task,2024.2.0,59.8774070009747,2026-01-16 12h48.04.031814 +0530,
,Objects\003a.jpg,130,0,131,,,,,,,j,None,,,1.2901935999980196,0.1839676999952644,,,,131,0,130,601.7302370999969,,,,,,,,,,,,,,,,,,,,,,,601.7143582999997,601.7302370999969,602.2304172000004,602.21395450001,,,,,,,,,,,,,,,,,,,,,,,,,,602.2237004000053,602.2304172000004,602.2304172000004,602.2304172000004,605.2303260000044,605.2303260000044,605.2303260000044,605.21433290001,indoor,j,605.214379099998,,,605.2143915000051,None,,,1.2901935999980196,0.1839676999952644,,,,,,,,,,00034,001,2026-01-16_12h47.55.482,MST_task,2024.2.0,59.8774070009747,2026-01-16 12h48.04.031814 +0530,
,Objects\276a.jpg,131,0,132,,,,,,,j,None,,,2.0871105999976862,0.1592021999967983,,,,132,0,131,605.2303260000044,,,,,,,,,,,,,,,,,,,,,,,605.2144583000045,605.2303260000044,605.7304051000101,605.7138984000048,,,,,,,,,,,,,,,,,,,,,,,,,,605.7232901000098,605.7304051000101,605.7304051000101,605.7304051000101,608.7303554999962,608.7303554999962,608.7303554999962,608.7142872999975,indoor,j,608.714329800001,,,608.7143410999997,None,,,2.0871105999976862,0.1592021999967983,,,,,,,,,,00034,001,2026-01-16_12h47.55.482,MST_task,2024.2.0,59.8774070009747,2026-01-16 12h48.04.031814 +0530,
,Objects\376a.jpg,132,0,133,,,,,,,f,None,,,1.249317300011171,0.15999200000078417,,,,133,0,132,608.7303554999962,,,,,,,,,,,,,,,,,,,,,,,608.7144617000013,608.7303554999962,609.2307606999966,609.2139403000037,,,,,,,,,,,,,,,,,,,,,,,,,,609.2234516000026,609.2307606999966,609.2307606999966,609.2307606999966,612.2304223000101,612.2304223000101,612.2304223000101,612.2142413999973,indoor,f,612.2142846000061,,,612.2142961000063,None,,,1.249317300011171,0.15999200000078417,,,,,,,,,,00034,001,2026-01-16_12h47.55.482,MST_task,2024.2.0,59.8774070009747,2026-01-16 12h48.04.031814 +0530,
,Objects\102a.jpg,133,0,134,,,,,,,None,f,1.7819937000022037,None,,,,,,134,0,133,612.2304223000101,,,,,,,,,,,,,,,,,,,,,,,612.2143619999988,612.2304223000101,612.7306915000081,612.714055000004,,,,,,,,,,,,,,,,,,,,,,,,,,612.7260775000032,612.7306915000081,612.7306915000081,612.7306915000081,615.7304850000073,615.7304850000073,615.7304850000073,615.7143992000056,shoe,None,615.7169821999996,615.7304850000073,615.7304850000073,617.5141373000079,f,1.7819937000022037,None,,,,,,,,,,,,00034,001,2026-01-16_12h47.55.482,MST_task,2024.2.0,59.8774070009747,2026-01-16 12h48.04.031814 +0530,
,Objects\290a.jpg,134,0,135,,,,,,,j,None,,,1.9624738999991678,0.1746865000022808,,,,135,0,134,617.5303971000103,,,,,,,,,,,,,,,,,,,,,,,617.5142231000063,617.5303971000103,618.0308462999965,618.013990899999,,,,,,,,,,,,,,,,,,,,,,,,,,618.0241567000048,618.0308462999965,618.0308462999965,618.0308462999965,621.030453600004,621.030453600004,621.030453600004,621.0143680000037,shoe,j,621.0144108000095,,,621.014423200002,None,,,1.9624738999991678,0.1746865000022808,,,,,,,,,,00034,001,2026-01-16_12h47.55.482,MST_task,2024.2.0,59.8774070009747,2026-01-16 12h48.04.031814 +0530,
,Objects\348a.jpg,135,0,136,,,,,,,f,None,,,2.3809924999950454,0.16108799999346957,,,,136,0,135,621.030453600004,,,,,,,,,,,,,,,,,,,,,,,621.0144890000083,621.030453600004,621.5309106000059,621.5140050000045,,,,,,,,,,,,,,,,,,,,,,,,,,621.5236845000036,621.5309106000059,621.5309106000059,621.5309106000059,624.5303806000011,624.5303806000011,624.5303806000011,624.5143021999975,shoe,f,624.5143492000061,,,624.5143607000064,None,,,2.3809924999950454,0.16108799999346957,,,,,,,,,,00034,001,2026-01-16_12h47.55.482,MST_task,2024.2.0,59.8774070009747,2026-01-16 12h48.04.031814 +0530,
,Objects\228a.jpg,136,0,137,,,,,,,f,None,,,1.6666213999997126,0.15910129999974743,,,,137,0,136,624.5303806000011,,,,,,,,,,,,,,,,,,,,,,,624.5144253000035,624.5303806000011,625.0308423000097,625.0140486000018,,,,,,,,,,,,,,,,,,,,,,,,,,625.0250503999996,625.0308423000097,625.0308423000097,625.0308423000097,628.0304541000078,628.0304541000078,628.0304541000078,628.0142513000028,shoe,f,628.0142919000064,,,628.0143046000012,None,,,1.6666213999997126,0.15910129999974743,,,,,,,,,,00034,001,2026-01-16_12h47.55.482,MST_task,2024.2.0,59.8774070009747,2026-01-16 12h48.04.031814 +0530,
,Objects\175a.jpg,137,0,138,,,,,,,j,None,,,1.334770600005868,0.13506060000509024,,,,138,0,137,628.0304541000078,,,,,,,,,,,,,,,,,,,,,,,628.0143698000029,628.0304541000078,628.530594099997,628.5141166999965,,,,,,,,,,,,,,,,,,,,,,,,,,628.5237916000042,628.530594099997,628.530594099997,628.530594099997,631.530462499999,631.530462499999,631.530462499999,631.5142523999966,shoe,j,631.5142996000068,,,631.5143118999986,None,,,1.334770600005868,0.13506060000509024,,,,,,,,,,00034,001,2026-01-16_12h47.55.482,MST_task,2024.2.0,59.8774070009747,2026-01-16 12h48.04.031814 +0530,
,Objects\273a.jpg,138,0,139,,,,,,,j,None,,,1.2823927999997977,0.18395239999517798,,,,139,0,138,631.530462499999,,,,,,,,,,,,,,,,,,,,,,,631.5143765000103,631.530462499999,632.0306573999987,632.01396940001,,,,,,,,,,,,,,,,,,,,,,,,,,632.0234291000088,632.0306573999987,632.0306573999987,632.0306573999987,635.0304562000092,635.0304562000092,635.0304562000092,635.0142816000007,shoe,j,635.014322700008,,,635.0143342000083,None,,,1.2823927999997977,0.18395239999517798,,,,,,,,,,00034,001,2026-01-16_12h47.55.482,MST_task,2024.2.0,59.8774070009747,2026-01-16 12h48.04.031814 +0530,
,Objects\202a.jpg,139,0,140,,,,,,,f,None,,,2.541981299989857,0.15955599999870174,,,,140,0,139,635.0304562000092,,,,,,,,,,,,,,,,,,,,,,,635.0144,635.0304562000092,635.530803600006,635.514024899996,,,,,,,,,,,,,,,,,,,,,,,,,,635.5250053000054,635.530803600006,635.530803600006,635.530803600006,638.530358700009,638.530358700009,638.530358700009,638.5143677000015,shoe,f,638.5144138000032,,,638.5144247999997,None,,,2.541981299989857,0.15955599999870174,,,,,,,,,,00034,001,2026-01-16_12h47.55.482,MST_task,2024.2.0,59.8774070009747,2026-01-16 12h48.04.031814 +0530,
,Objects\336a.jpg,140,0,141,,,,,,,f,None,,,2.033143499997095,0.16888599999947473,,,,141,0,140,638.530358700009,,,,,,,,,,,,,,,,,,,,,,,638.5144908000075,638.530358700009,639.030769200006,639.0139801000041,,,,,,,,,,,,,,,,,,,,,,,,,,639.0261874999997,639.030769200006,639.030769200006,639.030769200006,642.0304860000033,642.0304860000033,642.0304860000033,642.0144346000016,indoor,f,642.0160310000065,,,642.0160494000011,None,,,2.033143499997095,0.16888599999947473,,,,,,,,,,00034,001,2026-01-16_12h47.55.482,MST_task,2024.2.0,59.8774070009747,2026-01-16 12h48.04.031814 +0530,
,Objects\250a.jpg,141,0,142,,,,,,,j,None,,,2.773085600012564,0.15998179999587592,,,,142,0,141,642.0304860000033,,,,,,,,,,,,,,,,,,,,,,,642.0161229000078,642.0304860000033,642.5308258000005,642.5140277000028,,,,,,,,,,,,,,,,,,,,,,,,,,642.5234455000027,642.5308258000005,642.5308258000005,642.5308258000005,645.5304505000095,645.5304505000095,645.5304505000095,645.5142828000098,indoor,j,645.514325600001,,,645.5143368999998,None,,,2.773085600012564,0.15998179999587592,,,,,,,,,,00034,001,2026-01-16_12h47.55.482,MST_task,2024.2.0,59.8774070009747,2026-01-16 12h48.04.031814 +0530,
,Objects\131a.jpg,142,0,143,,,,,,,j,None,,,2.450798700010637,0.15907029999652877,,,,143,0,142,645.5304505000095,,,,,,,,,,,,,,,,,,,,,,,645.5144002000015,645.5304505000095,646.0309328000003,646.014025299999,,,,,,,,,,,,,,,,,,,,,,,,,,646.0263532999961,646.0309328000003,646.0309328000003,646.0309328000003,649.0304509999987,649.0304509999987,649.0304509999987,649.0142733000102,indoor,j,649.0143146000046,,,649.0143268999964,None,,,2.450798700010637,0.15907029999652877,,,,,,,,,,00034,001,2026-01-16_12h47.55.482,MST_task,2024.2.0,59.8774070009747,2026-01-16 12h48.04.031814 +0530,
,Objects\297a.jpg,143,0,144,,,,,,,f,None,,,2.053176200002781,0.1519860999978846,,,,144,0,143,649.0304509999987,,,,,,,,,,,,,,,,,,,,,,,649.0143897000089,649.0304509999987,649.5307704000006,649.5140544000024,,,,,,,,,,,,,,,,,,,,,,,,,,649.5244834000041,649.5307704000006,649.5307704000006,649.5307704000006,652.5304499000049,652.5304499000049,652.5304499000049,652.5142511000013,indoor,f,652.5142940000078,,,652.5143056000088,None,,,2.053176200002781,0.1519860999978846,,,,,,,,,,00034,001,2026-01-16_12h47.55.482,MST_task,2024.2.0,59.8774070009747,2026-01-16 12h48.04.031814 +0530,
,Objects\295a.jpg,144,0,145,,,,,,,j,None,,,2.049780200002715,0.15999449999071658,,,,145,0,144,652.5304499000049,,,,,,,,,,,,,,,,,,,,,,,652.5143709999975,652.5304499000049,653.0307977000048,653.013979299998,,,,,,,,,,,,,,,,,,,,,,,,,,653.0241549000057,653.0307977000048,653.0307977000048,653.0307977000048,656.0303399999975,656.0303399999975,656.0303399999975,656.0148827000085,indoor,j,656.0149369999999,,,656.0149516000092,None,,,2.049780200002715,0.15999449999071658,,,,,,,,,,00034,001,2026-01-16_12h47.55.482,MST_task,2024.2.0,59.8774070009747,2026-01-16 12h48.04.031814 +0530,
,Objects\112a.jpg,145,0,146,,,,,,,f,None,,,2.2936977000063052,0.13603039999725297,,,,146,0,145,656.0303399999975,,,,,,,,,,,,,,,,,,,,,,,656.0150245999976,656.0303399999975,656.530760900001,656.514039200003,,,,,,,,,,,,,,,,,,,,,,,,,,656.5244213999977,656.530760900001,656.530760900001,656.530760900001,659.5304851999972,659.5304851999972,659.5304851999972,659.5140822000103,indoor,f,659.5141232000024,,,659.5141349000041,None,,,2.2936977000063052,0.13603039999725297,,,,,,,,,,00034,001,2026-01-16_12h47.55.482,MST_task,2024.2.0,59.8774070009747,2026-01-16 12h48.04.031814 +0530,
,Objects\025a.jpg,146,0,147,,,,,,,j,None,,,1.1139604000054533,0.17718679999234155,,,,147,0,146,659.5304851999972,,,,,,,,,,,,,,,,,,,,,,,659.5142003000074,659.5304851999972,660.0305154000089,660.0140339000063,,,,,,,,,,,,,,,,,,,,,,,,,,660.0236260000092,660.0305154000089,660.0305154000089,660.0305154000089,663.0304342000018,663.0304342000018,663.0304342000018,663.014285199999,indoor,j,663.0143265000079,,,663.0143383999966,None,,,1.1139604000054533,0.17718679999234155,,,,,,,,,,00034,001,2026-01-16_12h47.55.482,MST_task,2024.2.0,59.8774070009747,2026-01-16 12h48.04.031814 +0530,
,Objects\227a.jpg,147,0,148,,,,,,,f,None,,,1.3247128000075463,0.15241739999328274,,,,148,0,147,663.0304342000018,,,,,,,,,,,,,,,,,,,,,,,663.0144137000025,663.0304342000018,663.5315692000004,663.5139918000059,,,,,,,,,,,,,,,,,,,,,,,,,,663.5295259999984,663.5315692000004,663.5315692000004,663.5315692000004,,,,666.5304571000015,shoe,f,666.5325995000021,,,666.5326182999997,None,,,1.3247128000075463,0.15241739999328274,,,,,,,,,,00034,001,2026-01-16_12h47.55.482,MST_task,2024.2.0,59.8774070009747,2026-01-16 12h48.04.031814 +0530,
,Objects\097a.jpg,148,0,149,,,,,,,j,None,,,2.2486891000007745,0.15998810000019148,,,,149,0,148,666.5470169000037,,,,,,,,,,,,,,,,,,,,,,,666.5326875000028,666.5470169000037,667.0472722999984,667.0306682000082,,,,,,,,,,,,,,,,,,,,,,,,,,667.0402833999979,667.0472722999984,667.0472722999984,667.0472722999984,670.0470339000021,670.0470339000021,670.0470339000021,670.030839900006,shoe,j,670.0308838000055,,,670.0308958000096,None,,,2.2486891000007745,0.15998810000019148,,,,,,,,,,00034,001,2026-01-16_12h47.55.482,MST_task,2024.2.0,59.8774070009747,2026-01-16 12h48.04.031814 +0530,
,Objects\338a.jpg,149,0,150,,,,,,,j,None,,,1.5410502000013366,0.16754429999855347,,,,150,0,149,670.0470339000021,,,,,,,,,,,,,,,,,,,,,,,670.030963199999,670.0470339000021,670.5473797000013,670.530534999998,,,,,,,,,,,,,,,,,,,,,,,,,,670.5402692000062,670.5473797000013,670.5473797000013,670.5473797000013,673.5470230000064,673.5470230000064,673.5470230000064,673.5308726000076,shoe,j,673.530914300005,,,673.530926899999,None,,,1.5410502000013366,0.16754429999855347,,,,,,,,,,00034,001,2026-01-16_12h47.55.482,MST_task,2024.2.0,59.8774070009747,2026-01-16 12h48.04.031814 +0530,
,Objects\157a.jpg,150,0,151,,,,,,,f,None,,,1.321476299999631,0.15998510000645183,,,,151,0,150,673.5470230000064,,,,,,,,,,,,,,,,,,,,,,,673.5309914999962,673.5470230000064,674.047344000006,674.030448400008,,,,,,,,,,,,,,,,,,,,,,,,,,674.0414805000037,674.047344000006,674.047344000006,674.047344000006,677.0470262000017,677.0470262000017,677.0470262000017,677.0309501000011,shoe,f,677.0310057000024,,,677.0310186999995,None,,,1.321476299999631,0.15998510000645183,,,,,,,,,,00034,001,2026-01-16_12h47.55.482,MST_task,2024.2.0,59.8774070009747,2026-01-16 12h48.04.031814 +0530,
,Objects\124a.jpg,151,0,152,,,,,,,j,None,,,1.1821714000107022,0.1507536999997683,,,,152,0,151,677.0470262000017,,,,,,,,,,,,,,,,,,,,,,,677.0311252000101,677.0470262000017,677.5471945000027,677.530462499999,,,,,,,,,,,,,,,,,,,,,,,,,,677.5398225999961,677.5471945000027,677.5471945000027,677.5471945000027,680.5470255999971,680.5470255999971,680.5470255999971,680.5308061999967,shoe,j,680.5308477000071,,,680.5308600999997,None,,,1.1821714000107022,0.1507536999997683,,,,,,,,,,00034,001,2026-01-16_12h47.55.482,MST_task,2024.2.0,59.8774070009747,2026-01-16 12h48.04.031814 +0530,
,Objects\378a.jpg,152,0,153,,,,,,,None,j,0.16130019999400247,None,,,,,,153,0,152,680.5470255999971,,,,,,,,,,,,,,,,,,,,,,,680.5309563000046,680.5470255999971,681.0472343000001,681.0305047000002,,,,,,,,,,,,,,,,,,,,,,,,,,681.0412685000047,681.0472343000001,681.0472343000001,681.0472343000001,684.047052199996,684.047052199996,684.047052199996,684.0307716000098,shoe,None,684.0308090000035,684.047052199996,684.047052199996,684.2140168000042,j,0.16130019999400247,None,,,,,,,,,,,,00034,001,2026-01-16_12h47.55.482,MST_task,2024.2.0,59.8774070009747,2026-01-16 12h48.04.031814 +0530,
,Objects\040a.jpg,153,0,154,,,,,,,f,None,,,1.58189119999588,0.1524342000047909,,,,154,0,153,684.2301848000061,,,,,,,,,,,,,,,,,,,,,,,684.2140998999967,684.2301848000061,684.7305411999987,684.713929000005,,,,,,,,,,,,,,,,,,,,,,,,,,684.7236363999982,684.7305411999987,684.7305411999987,684.7305411999987,687.7303595999983,687.7303595999983,687.7303595999983,687.7145313000074,shoe,f,687.714582200002,,,687.714596100006,None,,,1.58189119999588,0.1524342000047909,,,,,,,,,,00034,001,2026-01-16_12h47.55.482,MST_task,2024.2.0,59.8774070009747,2026-01-16 12h48.04.031814 +0530,
,Objects\323a.jpg,154,0,155,,,,,,,j,None,,,2.337473300009151,0.1536743999895407,,,,155,0,154,687.7303595999983,,,,,,,,,,,,,,,,,,,,,,,687.7146655999968,687.7303595999983,688.2307266999997,688.2140944999992,,,,,,,,,,,,,,,,,,,,,,,,,,688.2254876000079,688.2307266999997,688.2307266999997,688.2307266999997,691.2302385000075,691.2302385000075,691.2302385000075,691.2143588000035,indoor,j,691.2159704000078,,,691.2159888000024,None,,,2.337473300009151,0.1536743999895407,,,,,,,,,,00034,001,2026-01-16_12h47.55.482,MST_task,2024.2.0,59.8774070009747,2026-01-16 12h48.04.031814 +0530,
,Objects\170a.jpg,155,0,156,,,,,,,j,None,,,1.6214781000016956,0.16799849999370053,,,,156,0,155,691.2302385000075,,,,,,,,,,,,,,,,,,,,,,,691.2160567999963,691.2302385000075,691.73075290001,691.714114500006,,,,,,,,,,,,,,,,,,,,,,,,,,691.7248868000024,691.73075290001,691.73075290001,691.73075290001,694.7302257999982,694.7302257999982,694.7302257999982,694.7142431000102,indoor,j,694.7142827000062,,,694.7142945000087,None,,,1.6214781000016956,0.16799849999370053,,,,,,,,,,00034,001,2026-01-16_12h47.55.482,MST_task,2024.2.0,59.8774070009747,2026-01-16 12h48.04.031814 +0530,
,Objects\360a.jpg,156,0,157,,,,,,,f,None,,,1.633724400002393,0.15308770000410732,,,,157,0,156,694.7302257999982,,,,,,,,,,,,,,,,,,,,,,,694.7143582999997,694.7302257999982,695.2307017999992,695.2139964000089,,,,,,,,,,,,,,,,,,,,,,,,,,695.2233366,695.2307017999992,695.2307017999992,695.2307017999992,698.2302981999965,698.2302981999965,698.2302981999965,698.2141727999988,indoor,f,698.2142142000084,,,698.2142253000056,None,,,1.633724400002393,0.15308770000410732,,,,,,,,,,00034,001,2026-01-16_12h47.55.482,MST_task,2024.2.0,59.8774070009747,2026-01-16 12h48.04.031814 +0530,
