thisN,thisTrialN,thisRepN,key_resp_3.keys,key_resp_3.rt,key_resp_3.duration,trials.thisRepN,trials.thisTrialN,trials.thisN,thisRow.t,notes,intro_page.started,text.started,key_resp.started,intro_page.stopped,key_resp.keys,key_resp.rt,key_resp.duration,instructions.started,text_2.started,key_resp_2.started,instructions.stopped,key_resp_2.keys,key_resp_2.rt,key_resp_2.duration,demo1.started,image_1.started,image_2.started,text_7.started,key_resp_6.started,text_9.started,demo1.stopped,key_resp_6.keys,key_resp_6.rt,key_resp_6.duration,demo3.started,image_5.started,image_6.started,text_11.started,text_12.started,key_resp_8.started,demo3.stopped,key_resp_8.keys,key_resp_8.rt,key_resp_8.duration,demo_conclusion.started,text_13.started,key_resp_9.started,demo_conclusion.stopped,key_resp_9.keys,key_resp_9.rt,key_resp_9.duration,start_test.started,text_6.started,key_resp_5.started,start_test.stopped,key_resp_5.keys,key_resp_5.rt,key_resp_5.duration,ISI.started,text_4.started,ISI.stopped,routine_1.started,image.started,text_3.started,key_resp_3.started,routine_1.stopped,image_path,position_of_stimuli,trials.key_resp_3.keys,trials.key_resp_3.rt,trials.key_resp_3.duration,End_page.started,text_5.started,key_resp_4.started,End_page.stopped,key_resp_4.keys,key_resp_4.rt,key_resp_4.duration,participant,session,date,expName,psychopyVersion,frameRate,expStart,
,,,,,,,,,,,0.0116779999807477,0.02807939998456277,0.02807939998456277,3.460826900001848,space,3.429980200016871,None,,,,,,,,,,,,,,,,,,,,,,,,,,,,,,,,,,,,,,,,,,,,,,,,,,,,,,,,,,,,,,00036,001,2026-01-16_22h32.11.646,MST_test,2024.2.0,60.10998926313704,2026-01-16 22h32.26.137519 +0530,
,,,,,,,,,,,,,,,,,,3.460861700004898,3.491820399998687,3.491820399998687,15.919896499981405,space,12.42215440000291,None,,,,,,,,,,,,,,,,,,,,,,,,,,,,,,,,,,,,,,,,,,,,,,,,,,,,,,,00036,001,2026-01-16_22h32.11.646,MST_test,2024.2.0,60.10998926313704,2026-01-16 22h32.26.137519 +0530,
,,,,,,,,,,,,,,,,,,,,,,,,,15.919930599979125,15.935849999979837,15.935849999979837,15.935849999979837,15.935849999979837,15.935849999979837,55.575005499995314,space,39.633746899984544,None,,,,,,,,,,,,,,,,,,,,,,,,,,,,,,,,,,,,,,,,,,,,,00036,001,2026-01-16_22h32.11.646,MST_test,2024.2.0,60.10998926313704,2026-01-16 22h32.26.137519 +0530,
,,,,,,,,,,,,,,,,,,,,,,,,,,,,,,,,,,,55.575035399990156,55.59124419998261,55.59124419998261,55.59124419998261,55.59124419998261,55.59124419998261,72.14959699998144,space,16.547177600004943,None,,,,,,,,,,,,,,,,,,,,,,,,,,,,,,,,,,,00036,001,2026-01-16_22h32.11.646,MST_test,2024.2.0,60.10998926313704,2026-01-16 22h32.26.137519 +0530,
,,,,,,,,,,,,,,,,,,,,,,,,,,,,,,,,,,,,,,,,,,,,,72.14962719997857,72.1657625999942,72.1657625999942,92.97280439999304,space,20.796357299986994,None,,,,,,,,,,,,,,,,,,,,,,,,,,,,00036,001,2026-01-16_22h32.11.646,MST_test,2024.2.0,60.10998926313704,2026-01-16 22h32.26.137519 +0530,
,,,,,,,,,,,,,,,,,,,,,,,,,,,,,,,,,,,,,,,,,,,,,,,,,,,,92.97284889998264,93.00562959999661,93.00562959999661,113.24392740000621,space,20.23701979999896,None,,,,,,,,,,,,,,,,,,,,,00036,001,2026-01-16_22h32.11.646,MST_test,2024.2.0,60.10998926313704,2026-01-16 22h32.26.137519 +0530,
0,0,1,s,2.5905246999755036,None,1,0,0,113.25987909999094,,,,,,,,,,,,,,,,,,,,,,,,,,,,,,,,,,,,,,,,,,,,,,,,,,113.24726589999045,113.25987909999094,113.74482110000099,113.75701669999398,113.7794833999942,113.7794833999942,113.7794833999942,116.37149049999425,Objects\334a.jpg,post,s,2.5905246999755036,None,,,,,,,,00036,001,2026-01-16_22h32.11.646,MST_test,2024.2.0,60.10998926313704,2026-01-16 22h32.26.137519 +0530,
1,0,2,n,2.6144631000061054,None,2,0,1,116.38761449998128,,,,,,,,,,,,,,,,,,,,,,,,,,,,,,,,,,,,,,,,,,,,,,,,,,116.37158679999993,116.38761449998128,116.87300510000205,116.88750899999286,116.90712279998115,116.90712279998115,116.90712279998115,119.53235369999311,Foils\f5.jpg,none,n,2.6144631000061054,None,,,,,,,,00036,001,2026-01-16_22h32.11.646,MST_test,2024.2.0,60.10998926313704,2026-01-16 22h32.26.137519 +0530,
2,0,3,s,1.799027599976398,None,3,0,2,119.54871119998279,,,,,,,,,,,,,,,,,,,,,,,,,,,,,,,,,,,,,,,,,,,,,,,,,,119.5324483999866,119.54871119998279,120.03370239998912,120.04197999997996,120.06703199999174,120.06703199999174,120.06703199999174,121.87410749998526,Objects\072a.jpg,post,s,1.799027599976398,None,,,,,,,,00036,001,2026-01-16_22h32.11.646,MST_test,2024.2.0,60.10998926313704,2026-01-16 22h32.26.137519 +0530,
3,0,4,s,2.217815400013933,None,4,0,3,121.8900883999886,,,,,,,,,,,,,,,,,,,,,,,,,,,,,,,,,,,,,,,,,,,,,,,,,,121.87420059999567,121.8900883999886,122.37567909999052,122.38563809997868,122.4079914999893,122.4079914999893,122.4079914999893,124.63364009998622,Objects\220b.jpg,post,s,2.217815400013933,None,,,,,,,,00036,001,2026-01-16_22h32.11.646,MST_test,2024.2.0,60.10998926313704,2026-01-16 22h32.26.137519 +0530,
4,0,5,o,3.5551625000080094,None,5,0,4,124.64976279999246,,,,,,,,,,,,,,,,,,,,,,,,,,,,,,,,,,,,,,,,,,,,,,,,,,124.63373259999207,124.64976279999246,125.13483830000041,125.13818989999709,125.15149709998514,125.15149709998514,125.15149709998514,128.71458309999434,Objects\282a.jpg,pre,o,3.5551625000080094,None,,,,,,,,00036,001,2026-01-16_22h32.11.646,MST_test,2024.2.0,60.10998926313704,2026-01-16 22h32.26.137519 +0530,
5,0,6,o,1.0653422999894246,None,6,0,5,128.73071020000498,,,,,,,,,,,,,,,,,,,,,,,,,,,,,,,,,,,,,,,,,,,,,,,,,,128.7146756000002,128.73071020000498,129.2157965999795,129.22451199998613,129.24921209999593,129.24921209999593,129.24921209999593,130.3205129999842,Objects\237a.jpg,pre,o,1.0653422999894246,None,,,,,,,,00036,001,2026-01-16_22h32.11.646,MST_test,2024.2.0,60.10998926313704,2026-01-16 22h32.26.137519 +0530,
6,0,7,o,1.0274516000063159,None,7,0,6,130.33621270000003,,,,,,,,,,,,,,,,,,,,,,,,,,,,,,,,,,,,,,,,,,,,,,,,,,130.32060740000452,130.33621270000003,130.8214117999887,130.8368603999843,130.85480370000005,130.85480370000005,130.85480370000005,131.8922692000051,Objects\083b.jpg,mid,o,1.0274516000063159,None,,,,,,,,00036,001,2026-01-16_22h32.11.646,MST_test,2024.2.0,60.10998926313704,2026-01-16 22h32.26.137519 +0530,
7,0,8,o,3.134953700006008,None,8,0,7,131.90849020000314,,,,,,,,,,,,,,,,,,,,,,,,,,,,,,,,,,,,,,,,,,,,,,,,,,131.89236709999386,131.90849020000314,132.39345999999205,132.40988659998402,132.42696809998597,132.42696809998597,132.42696809998597,135.57197409999208,Objects\350b.jpg,post,o,3.134953700006008,None,,,,,,,,00036,001,2026-01-16_22h32.11.646,MST_test,2024.2.0,60.10998926313704,2026-01-16 22h32.26.137519 +0530,
8,0,9,s,1.5033229000109714,None,9,0,8,135.58793399998103,,,,,,,,,,,,,,,,,,,,,,,,,,,,,,,,,,,,,,,,,,,,,,,,,,135.5720708000008,135.58793399998103,136.07315029998426,136.08263869999791,136.10644139998476,136.10644139998476,136.10644139998476,137.61241489998065,Objects\278a.jpg,mid,s,1.5033229000109714,None,,,,,,,,00036,001,2026-01-16_22h32.11.646,MST_test,2024.2.0,60.10998926313704,2026-01-16 22h32.26.137519 +0530,
9,0,10,s,2.1361843000049703,None,10,0,9,137.62855579997995,,,,,,,,,,,,,,,,,,,,,,,,,,,,,,,,,,,,,,,,,,,,,,,,,,137.6125136000046,137.62855579997995,138.11361899998155,138.12137259999872,138.12962399999378,138.12962399999378,138.12962399999378,140.27159659998142,Objects\376a.jpg,post,s,2.1361843000049703,None,,,,,,,,00036,001,2026-01-16_22h32.11.646,MST_test,2024.2.0,60.10998926313704,2026-01-16 22h32.26.137519 +0530,
10,0,11,s,5.580350699980045,None,11,0,10,140.28784679999808,,,,,,,,,,,,,,,,,,,,,,,,,,,,,,,,,,,,,,,,,,,,,,,,,,140.2716931999894,140.28784679999808,140.77280330000212,140.7754231999861,140.78959499998018,140.78959499998018,140.78959499998018,146.37636779999593,Objects\080a.jpg,post,s,5.580350699980045,None,,,,,,,,00036,001,2026-01-16_22h32.11.646,MST_test,2024.2.0,60.10998926313704,2026-01-16 22h32.26.137519 +0530,
11,0,12,o,1.2363373000116553,None,12,0,11,146.3925517000025,,,,,,,,,,,,,,,,,,,,,,,,,,,,,,,,,,,,,,,,,,,,,,,,,,146.37646239998867,146.3925517000025,146.87764530000277,146.88075439998647,146.89430159999756,146.89430159999756,146.89430159999756,148.13257539999904,Objects\173a.jpg,post,o,1.2363373000116553,None,,,,,,,,00036,001,2026-01-16_22h32.11.646,MST_test,2024.2.0,60.10998926313704,2026-01-16 22h32.26.137519 +0530,
12,0,13,n,1.9583779000095092,None,13,0,12,148.14857779999147,,,,,,,,,,,,,,,,,,,,,,,,,,,,,,,,,,,,,,,,,,,,,,,,,,148.13266669999575,148.14857779999147,148.63379920000443,148.64315629997873,148.66706799998065,148.66706799998065,148.66706799998065,150.64121370000066,Foils\034a.jpg,none,n,1.9583779000095092,None,,,,,,,,00036,001,2026-01-16_22h32.11.646,MST_test,2024.2.0,60.10998926313704,2026-01-16 22h32.26.137519 +0530,
13,0,14,o,1.1300316999841016,None,14,0,13,150.6574905999878,,,,,,,,,,,,,,,,,,,,,,,,,,,,,,,,,,,,,,,,,,,,,,,,,,150.64131079998333,150.6574905999878,151.142477699992,151.15090799998143,151.1759584999818,151.1759584999818,151.1759584999818,152.31399939997937,Objects\254a.jpg,mid,o,1.1300316999841016,None,,,,,,,,00036,001,2026-01-16_22h32.11.646,MST_test,2024.2.0,60.10998926313704,2026-01-16 22h32.26.137519 +0530,
14,0,15,o,1.3132827999943402,None,15,0,14,152.32991169998422,,,,,,,,,,,,,,,,,,,,,,,,,,,,,,,,,,,,,,,,,,,,,,,,,,152.31409309999435,152.32991169998422,152.81509570000344,152.82336609999766,152.84850890000234,152.84850890000234,152.84850890000234,154.17046279998613,Objects\322a.jpg,pre,o,1.3132827999943402,None,,,,,,,,00036,001,2026-01-16_22h32.11.646,MST_test,2024.2.0,60.10998926313704,2026-01-16 22h32.26.137519 +0530,
15,0,16,o,0.978232100023888,None,16,0,15,154.1863994000014,,,,,,,,,,,,,,,,,,,,,,,,,,,,,,,,,,,,,,,,,,,,,,,,,,154.17056369999773,154.1863994000014,154.67130079999333,154.67927419999614,154.68746769998688,154.68746769998688,154.68746769998688,155.67538499998045,Objects\158a.jpg,post,o,0.978232100023888,None,,,,,,,,00036,001,2026-01-16_22h32.11.646,MST_test,2024.2.0,60.10998926313704,2026-01-16 22h32.26.137519 +0530,
16,0,17,o,2.162136400002055,None,17,0,16,155.6914831000031,,,,,,,,,,,,,,,,,,,,,,,,,,,,,,,,,,,,,,,,,,,,,,,,,,155.67547759998706,155.6914831000031,156.17644509999081,156.18363339998177,156.1931818999874,156.1931818999874,156.1931818999874,158.36822790000588,Objects\331a.jpg,mid,o,2.162136400002055,None,,,,,,,,00036,001,2026-01-16_22h32.11.646,MST_test,2024.2.0,60.10998926313704,2026-01-16 22h32.26.137519 +0530,
17,0,18,o,0.8117038000200409,None,18,0,17,158.38413369999034,,,,,,,,,,,,,,,,,,,,,,,,,,,,,,,,,,,,,,,,,,,,,,,,,,158.36832039998262,158.38413369999034,158.8693457999907,158.87759069999447,158.90257109998493,158.90257109998493,158.90257109998493,159.7234072999854,Objects\240a.jpg,mid,o,0.8117038000200409,None,,,,,,,,00036,001,2026-01-16_22h32.11.646,MST_test,2024.2.0,60.10998926313704,2026-01-16 22h32.26.137519 +0530,
18,0,19,s,1.8805238000059035,None,19,0,18,159.73887729999842,,,,,,,,,,,,,,,,,,,,,,,,,,,,,,,,,,,,,,,,,,,,,,,,,,159.72351879999042,159.73887729999842,160.2241024999821,160.2403085999831,160.25731580000138,160.25731580000138,160.25731580000138,162.14853959999164,Objects\230b.jpg,post,s,1.8805238000059035,None,,,,,,,,00036,001,2026-01-16_22h32.11.646,MST_test,2024.2.0,60.10998926313704,2026-01-16 22h32.26.137519 +0530,
19,0,20,o,1.5354007999994792,None,20,0,19,162.16414909999003,,,,,,,,,,,,,,,,,,,,,,,,,,,,,,,,,,,,,,,,,,,,,,,,,,162.14863159999368,162.16414909999003,162.64937790000113,162.65739659999963,162.68271140000434,162.68271140000434,162.68271140000434,164.22187059998396,Objects\289a.jpg,pre,o,1.5354007999994792,None,,,,,,,,00036,001,2026-01-16_22h32.11.646,MST_test,2024.2.0,60.10998926313704,2026-01-16 22h32.26.137519 +0530,
20,0,21,o,3.3019547000003513,None,21,0,20,164.23795489998884,,,,,,,,,,,,,,,,,,,,,,,,,,,,,,,,,,,,,,,,,,,,,,,,,,164.22196150000673,164.23795489998884,164.72317539999494,164.7380409000034,164.75640549999662,164.75640549999662,164.75640549999662,168.0687621999823,Objects\050b.jpg,pre,o,3.3019547000003513,None,,,,,,,,00036,001,2026-01-16_22h32.11.646,MST_test,2024.2.0,60.10998926313704,2026-01-16 22h32.26.137519 +0530,
21,0,22,s,1.6311246000113897,None,22,0,21,168.08490549999988,,,,,,,,,,,,,,,,,,,,,,,,,,,,,,,,,,,,,,,,,,,,,,,,,,168.0688550999912,168.08490549999988,168.56986339998548,168.5867118999886,168.60332999998354,168.60332999998354,168.60332999998354,170.2432973999821,Objects\298b.jpg,mid,s,1.6311246000113897,None,,,,,,,,00036,001,2026-01-16_22h32.11.646,MST_test,2024.2.0,60.10998926313704,2026-01-16 22h32.26.137519 +0530,
22,0,23,n,4.456611600005999,None,23,0,22,170.25916709998273,,,,,,,,,,,,,,,,,,,,,,,,,,,,,,,,,,,,,,,,,,,,,,,,,,170.24338859997806,170.25916709998273,170.74424209998688,170.76067590000457,170.7774911999877,170.7774911999877,170.7774911999877,175.24378600000637,Objects\189b.jpg,mid,n,4.456611600005999,None,,,,,,,,00036,001,2026-01-16_22h32.11.646,MST_test,2024.2.0,60.10998926313704,2026-01-16 22h32.26.137519 +0530,
23,0,24,s,3.3519259999739006,None,24,0,23,175.26000889998977,,,,,,,,,,,,,,,,,,,,,,,,,,,,,,,,,,,,,,,,,,,,,,,,,,175.2438850000035,175.26000889998977,175.74498190000304,175.75424059998477,175.7784634999989,175.7784634999989,175.7784634999989,179.14085440000053,Foils\093b.jpg,none,s,3.3519259999739006,None,,,,,,,,00036,001,2026-01-16_22h32.11.646,MST_test,2024.2.0,60.10998926313704,2026-01-16 22h32.26.137519 +0530,
24,0,25,s,1.2785856999980751,None,25,0,24,179.15699869999662,,,,,,,,,,,,,,,,,,,,,,,,,,,,,,,,,,,,,,,,,,,,,,,,,,179.14095010000165,179.15699869999662,179.6419196999923,179.65735949997907,179.67543899998418,179.67543899998418,179.67543899998418,180.963721099979,Objects\374b.jpg,pre,s,1.2785856999980751,None,,,,,,,,00036,001,2026-01-16_22h32.11.646,MST_test,2024.2.0,60.10998926313704,2026-01-16 22h32.26.137519 +0530,
25,0,26,n,1.166798199992627,None,26,0,25,180.98006529998383,,,,,,,,,,,,,,,,,,,,,,,,,,,,,,,,,,,,,,,,,,,,,,,,,,180.963812699978,180.98006529998383,181.46499549999135,181.47981180000352,181.49858280000626,181.49858280000626,181.49858280000626,182.66991699999198,Objects\066b.jpg,mid,n,1.166798199992627,None,,,,,,,,00036,001,2026-01-16_22h32.11.646,MST_test,2024.2.0,60.10998926313704,2026-01-16 22h32.26.137519 +0530,
26,0,27,s,4.046571800019592,None,27,0,26,182.68590919999406,,,,,,,,,,,,,,,,,,,,,,,,,,,,,,,,,,,,,,,,,,,,,,,,,,182.67001040000468,182.68590919999406,183.17186679999577,183.1745905999851,183.1876065999968,183.1876065999968,183.1876065999968,187.23587360000238,Objects\022a.jpg,mid,s,4.046571800019592,None,,,,,,,,00036,001,2026-01-16_22h32.11.646,MST_test,2024.2.0,60.10998926313704,2026-01-16 22h32.26.137519 +0530,
27,0,28,s,0.9997296999790706,None,28,0,27,187.252015200007,,,,,,,,,,,,,,,,,,,,,,,,,,,,,,,,,,,,,,,,,,,,,,,,,,187.23596580000594,187.252015200007,187.73700059999828,187.74658700000145,187.77056350000203,187.77056350000203,187.77056350000203,188.7746433999855,Foils\058a.jpg,none,s,0.9997296999790706,None,,,,,,,,00036,001,2026-01-16_22h32.11.646,MST_test,2024.2.0,60.10998926313704,2026-01-16 22h32.26.137519 +0530,
28,0,29,o,1.5411697000090498,None,29,0,28,188.7907309999864,,,,,,,,,,,,,,,,,,,,,,,,,,,,,,,,,,,,,,,,,,,,,,,,,,188.77474049999728,188.7907309999864,189.27582959999563,189.27873170000385,189.29281240000273,189.29281240000273,189.29281240000273,190.848593600007,Objects\122a.jpg,mid,o,1.5411697000090498,None,,,,,,,,00036,001,2026-01-16_22h32.11.646,MST_test,2024.2.0,60.10998926313704,2026-01-16 22h32.26.137519 +0530,
29,0,30,n,1.2829085999983363,None,30,0,29,190.86465810000664,,,,,,,,,,,,,,,,,,,,,,,,,,,,,,,,,,,,,,,,,,,,,,,,,,190.8486856999807,190.86465810000664,191.34964450000552,191.35933009997825,191.38327520000166,191.38327520000166,191.38327520000166,192.67145269998582,Foils\082a.jpg,none,n,1.2829085999983363,None,,,,,,,,00036,001,2026-01-16_22h32.11.646,MST_test,2024.2.0,60.10998926313704,2026-01-16 22h32.26.137519 +0530,
30,0,31,n,3.9162950000027195,None,31,0,30,192.6877295000013,,,,,,,,,,,,,,,,,,,,,,,,,,,,,,,,,,,,,,,,,,,,,,,,,,192.67154989999835,192.6877295000013,193.1726767999935,193.186807399994,193.2061577999848,193.2061577999848,193.2061577999848,197.13701119998586,Objects\378b.jpg,pre,n,3.9162950000027195,None,,,,,,,,00036,001,2026-01-16_22h32.11.646,MST_test,2024.2.0,60.10998926313704,2026-01-16 22h32.26.137519 +0530,
31,0,32,o,1.058289699984016,None,32,0,31,197.15334739998798,,,,,,,,,,,,,,,,,,,,,,,,,,,,,,,,,,,,,,,,,,,,,,,,,,197.13710999998148,197.15334739998798,197.63850800000364,197.65294739999808,197.67179719998967,197.67179719998967,197.67179719998967,198.74286529998062,Objects\166b.jpg,mid,o,1.058289699984016,None,,,,,,,,00036,001,2026-01-16_22h32.11.646,MST_test,2024.2.0,60.10998926313704,2026-01-16 22h32.26.137519 +0530,
32,0,33,o,1.3091270000149962,None,33,0,32,198.7588517999975,,,,,,,,,,,,,,,,,,,,,,,,,,,,,,,,,,,,,,,,,,,,,,,,,,198.74296279999544,198.7588517999975,199.24421549998806,199.25937230000272,199.27745719999075,199.27745719999075,199.27745719999075,200.59927939999034,Objects\377b.jpg,pre,o,1.3091270000149962,None,,,,,,,,00036,001,2026-01-16_22h32.11.646,MST_test,2024.2.0,60.10998926313704,2026-01-16 22h32.26.137519 +0530,
33,0,34,s,1.340643400006229,None,34,0,33,200.61551929998677,,,,,,,,,,,,,,,,,,,,,,,,,,,,,,,,,,,,,,,,,,,,,,,,,,200.59937710000668,200.61551929998677,201.10086529998807,201.11534519999987,201.13427129999036,201.13427129999036,201.13427129999036,202.48925569999847,Objects\079b.jpg,post,s,1.340643400006229,None,,,,,,,,00036,001,2026-01-16_22h32.11.646,MST_test,2024.2.0,60.10998926313704,2026-01-16 22h32.26.137519 +0530,
34,0,35,o,1.163324699999066,None,35,0,34,202.50532139997813,,,,,,,,,,,,,,,,,,,,,,,,,,,,,,,,,,,,,,,,,,,,,,,,,,202.48934699999518,202.50532139997813,202.9905018999998,202.9933458000014,203.00702530000126,203.00702530000126,203.00702530000126,204.17848609999055,Objects\035a.jpg,mid,o,1.163324699999066,None,,,,,,,,00036,001,2026-01-16_22h32.11.646,MST_test,2024.2.0,60.10998926313704,2026-01-16 22h32.26.137519 +0530,
35,0,36,s,1.5769578000181355,None,36,0,35,204.19468960000086,,,,,,,,,,,,,,,,,,,,,,,,,,,,,,,,,,,,,,,,,,,,,,,,,,204.17857980000554,204.19468960000086,204.67982550000306,204.68314059998374,204.69641189998947,204.69641189998947,204.69641189998947,206.28614700000617,Objects\380a.jpg,post,s,1.5769578000181355,None,,,,,,,,00036,001,2026-01-16_22h32.11.646,MST_test,2024.2.0,60.10998926313704,2026-01-16 22h32.26.137519 +0530,
36,0,37,o,0.9577404000156093,None,37,0,36,206.30206079999334,,,,,,,,,,,,,,,,,,,,,,,,,,,,,,,,,,,,,,,,,,,,,,,,,,206.28624689998105,206.30206079999334,206.78718889999436,206.78956400000607,206.80375900000217,206.80375900000217,206.80375900000217,207.7743887999968,Objects\305a.jpg,post,o,0.9577404000156093,None,,,,,,,,00036,001,2026-01-16_22h32.11.646,MST_test,2024.2.0,60.10998926313704,2026-01-16 22h32.26.137519 +0530,
37,0,38,o,1.3816173000086565,None,38,0,37,207.79048309999052,,,,,,,,,,,,,,,,,,,,,,,,,,,,,,,,,,,,,,,,,,,,,,,,,,207.77449199999683,207.79048309999052,208.27567360000103,208.2923482999904,208.3089220999973,208.3089220999973,208.3089220999973,209.6977374999842,Objects\384b.jpg,pre,o,1.3816173000086565,None,,,,,,,,00036,001,2026-01-16_22h32.11.646,MST_test,2024.2.0,60.10998926313704,2026-01-16 22h32.26.137519 +0530,
38,0,39,n,2.5856964999984484,None,39,0,38,209.71416159998626,,,,,,,,,,,,,,,,,,,,,,,,,,,,,,,,,,,,,,,,,,,,,,,,,,209.6978303999931,209.71416159998626,210.19898309998098,210.21308539999882,210.2324422999809,210.2324422999809,210.2324422999809,212.82554950000485,Objects\368b.jpg,mid,n,2.5856964999984484,None,,,,,,,,00036,001,2026-01-16_22h32.11.646,MST_test,2024.2.0,60.10998926313704,2026-01-16 22h32.26.137519 +0530,
39,0,40,s,1.3137932999816258,None,40,0,39,212.8416128999961,,,,,,,,,,,,,,,,,,,,,,,,,,,,,,,,,,,,,,,,,,,,,,,,,,212.8256410000031,212.8416128999961,213.32671359999222,213.34128160000546,213.3600590999995,213.3600590999995,213.3600590999995,214.68299599998863,Objects\119b.jpg,pre,s,1.3137932999816258,None,,,,,,,,00036,001,2026-01-16_22h32.11.646,MST_test,2024.2.0,60.10998926313704,2026-01-16 22h32.26.137519 +0530,
40,0,41,s,1.961006700003054,None,41,0,40,214.69758219999494,,,,,,,,,,,,,,,,,,,,,,,,,,,,,,,,,,,,,,,,,,,,,,,,,,214.68309979999322,214.69758219999494,215.183242900006,215.19819439999992,215.21723009998095,215.21723009998095,215.21723009998095,217.19136080000317,Objects\270b.jpg,post,s,1.961006700003054,None,,,,,,,,00036,001,2026-01-16_22h32.11.646,MST_test,2024.2.0,60.10998926313704,2026-01-16 22h32.26.137519 +0530,
41,0,42,s,1.6684747000108473,None,42,0,41,217.2067950000055,,,,,,,,,,,,,,,,,,,,,,,,,,,,,,,,,,,,,,,,,,,,,,,,,,217.191470699996,217.2067950000055,217.69265270000324,217.70783080000547,217.72523769998224,217.72523769998224,217.72523769998224,219.3984563999984,Objects\211b.jpg,pre,s,1.6684747000108473,None,,,,,,,,00036,001,2026-01-16_22h32.11.646,MST_test,2024.2.0,60.10998926313704,2026-01-16 22h32.26.137519 +0530,
42,0,43,n,1.3803750999795739,None,43,0,42,219.41477430000668,,,,,,,,,,,,,,,,,,,,,,,,,,,,,,,,,,,,,,,,,,,,,,,,,,219.39855359998182,219.41477430000668,219.90031029999955,219.91630680000526,219.93336179998005,219.93336179998005,219.93336179998005,221.3221743000031,Foils\090a.jpg,none,n,1.3803750999795739,None,,,,,,,,00036,001,2026-01-16_22h32.11.646,MST_test,2024.2.0,60.10998926313704,2026-01-16 22h32.26.137519 +0530,
43,0,44,s,2.5211804999853484,None,44,0,43,221.33815689999028,,,,,,,,,,,,,,,,,,,,,,,,,,,,,,,,,,,,,,,,,,,,,,,,,,221.3222664000059,221.33815689999028,221.82340900000418,221.83340439997846,221.85668669998995,221.85668669998995,221.85668669998995,224.38325019998592,Foils\097a.jpg,none,s,2.5211804999853484,None,,,,,,,,00036,001,2026-01-16_22h32.11.646,MST_test,2024.2.0,60.10998926313704,2026-01-16 22h32.26.137519 +0530,
44,0,45,s,1.8375189999933355,None,45,0,44,224.3987675999815,,,,,,,,,,,,,,,,,,,,,,,,,,,,,,,,,,,,,,,,,,,,,,,,,,224.38334979998763,224.3987675999815,224.88373810000485,224.88832989998627,224.90046579999034,224.90046579999034,224.90046579999034,226.74099130000104,Objects\326a.jpg,pre,s,1.8375189999933355,None,,,,,,,,00036,001,2026-01-16_22h32.11.646,MST_test,2024.2.0,60.10998926313704,2026-01-16 22h32.26.137519 +0530,
45,0,46,s,1.1672116999980062,None,46,0,45,226.75701599998865,,,,,,,,,,,,,,,,,,,,,,,,,,,,,,,,,,,,,,,,,,,,,,,,,,226.74108979999437,226.75701599998865,227.24197410000488,227.25029060000088,227.25890009998693,227.25890009998693,227.25890009998693,228.43018819999998,Objects\243a.jpg,post,s,1.1672116999980062,None,,,,,,,,00036,001,2026-01-16_22h32.11.646,MST_test,2024.2.0,60.10998926313704,2026-01-16 22h32.26.137519 +0530,
46,0,47,o,1.2555190999992192,None,47,0,46,228.44623219998903,,,,,,,,,,,,,,,,,,,,,,,,,,,,,,,,,,,,,,,,,,,,,,,,,,228.4302841000026,228.44623219998903,228.9315479999932,228.93924499998684,228.94786960000056,228.94786960000056,228.94786960000056,230.21969609998632,Objects\096a.jpg,pre,o,1.2555190999992192,None,,,,,,,,00036,001,2026-01-16_22h32.11.646,MST_test,2024.2.0,60.10998926313704,2026-01-16 22h32.26.137519 +0530,
47,0,48,o,1.0803287000162527,None,48,0,47,230.23597740000696,,,,,,,,,,,,,,,,,,,,,,,,,,,,,,,,,,,,,,,,,,,,,,,,,,230.21979509998346,230.23597740000696,230.72083469998324,230.72390660000383,230.73758169999928,230.73758169999928,230.73758169999928,231.82557640000596,Objects\010a.jpg,mid,o,1.0803287000162527,None,,,,,,,,00036,001,2026-01-16_22h32.11.646,MST_test,2024.2.0,60.10998926313704,2026-01-16 22h32.26.137519 +0530,
48,0,49,o,1.3541910000203643,None,49,0,48,231.84148089998052,,,,,,,,,,,,,,,,,,,,,,,,,,,,,,,,,,,,,,,,,,,,,,,,,,231.82567299998482,231.84148089998052,232.32648289998178,232.32916319998913,232.34320189998834,232.34320189998834,232.34320189998834,233.69863440000336,Objects\273a.jpg,pre,o,1.3541910000203643,None,,,,,,,,00036,001,2026-01-16_22h32.11.646,MST_test,2024.2.0,60.10998926313704,2026-01-16 22h32.26.137519 +0530,
49,0,50,n,1.769418100011535,None,50,0,49,233.71470389998285,,,,,,,,,,,,,,,,,,,,,,,,,,,,,,,,,,,,,,,,,,,,,,,,,,233.69873010000447,233.71470389998285,234.1997511999798,234.20993979999912,234.23314979998395,234.23314979998395,234.23314979998395,236.00652309998986,Objects\302b.jpg,pre,n,1.769418100011535,None,,,,,,,,00036,001,2026-01-16_22h32.11.646,MST_test,2024.2.0,60.10998926313704,2026-01-16 22h32.26.137519 +0530,
50,0,51,s,1.7410092999925837,None,51,0,50,236.02268029999686,,,,,,,,,,,,,,,,,,,,,,,,,,,,,,,,,,,,,,,,,,,,,,,,,,236.0066169000056,236.02268029999686,236.50788039999316,236.51729230000637,236.54113349999534,236.54113349999534,236.54113349999534,238.29810250000446,Objects\093b.jpg,post,s,1.7410092999925837,None,,,,,,,,00036,001,2026-01-16_22h32.11.646,MST_test,2024.2.0,60.10998926313704,2026-01-16 22h32.26.137519 +0530,
51,0,52,s,1.63323209999362,None,52,0,51,238.31418909999775,,,,,,,,,,,,,,,,,,,,,,,,,,,,,,,,,,,,,,,,,,,,,,,,,,238.29819380000117,238.31418909999775,238.7992293999996,238.80861589999404,238.8324780999974,238.8324780999974,238.8324780999974,240.4721858999983,Objects\060b.jpg,mid,s,1.63323209999362,None,,,,,,,,00036,001,2026-01-16_22h32.11.646,MST_test,2024.2.0,60.10998926313704,2026-01-16 22h32.26.137519 +0530,
52,0,53,o,1.1735914000018965,None,53,0,52,240.4884274000069,,,,,,,,,,,,,,,,,,,,,,,,,,,,,,,,,,,,,,,,,,,,,,,,,,240.4722841999901,240.4884274000069,240.97352699999465,240.98192419999395,240.98951970000053,240.98951970000053,240.98951970000053,242.1782869999879,Objects\232a.jpg,post,o,1.1735914000018965,None,,,,,,,,00036,001,2026-01-16_22h32.11.646,MST_test,2024.2.0,60.10998926313704,2026-01-16 22h32.26.137519 +0530,
53,0,54,n,1.200509200018132,None,54,0,53,242.19441199998255,,,,,,,,,,,,,,,,,,,,,,,,,,,,,,,,,,,,,,,,,,,,,,,,,,242.17838339999435,242.19441199998255,242.67938669997966,242.6957887999888,242.7128465999849,242.7128465999849,242.7128465999849,243.91763839998748,Foils\098a.jpg,none,n,1.200509200018132,None,,,,,,,,00036,001,2026-01-16_22h32.11.646,MST_test,2024.2.0,60.10998926313704,2026-01-16 22h32.26.137519 +0530,
54,0,55,o,1.0379630999814253,None,55,0,54,243.93371389998356,,,,,,,,,,,,,,,,,,,,,,,,,,,,,,,,,,,,,,,,,,,,,,,,,,243.91773049999028,243.93371389998356,244.41880759998458,244.43326499999966,244.45227929999237,244.45227929999237,244.45227929999237,245.50646420000703,Objects\300b.jpg,post,o,1.0379630999814253,None,,,,,,,,00036,001,2026-01-16_22h32.11.646,MST_test,2024.2.0,60.10998926313704,2026-01-16 22h32.26.137519 +0530,
55,0,56,o,1.0418066999991424,None,56,0,55,245.52272229999653,,,,,,,,,,,,,,,,,,,,,,,,,,,,,,,,,,,,,,,,,,,,,,,,,,245.50656409998192,245.52272229999653,246.00774129998172,246.01596229997813,246.0240889999841,246.0240889999841,246.0240889999841,247.07860869998694,Objects\148a.jpg,pre,o,1.0418066999991424,None,,,,,,,,00036,001,2026-01-16_22h32.11.646,MST_test,2024.2.0,60.10998926313704,2026-01-16 22h32.26.137519 +0530,
56,0,57,s,2.916884600010235,None,57,0,56,247.09488980000606,,,,,,,,,,,,,,,,,,,,,,,,,,,,,,,,,,,,,,,,,,,,,,,,,,247.07870620000176,247.09488980000606,247.5798674999969,247.5903117999842,247.61335129998042,247.61335129998042,247.61335129998042,250.5407905000029,Objects\100b.jpg,post,s,2.916884600010235,None,,,,,,,,00036,001,2026-01-16_22h32.11.646,MST_test,2024.2.0,60.10998926313704,2026-01-16 22h32.26.137519 +0530,
57,0,58,s,1.2778612000111025,None,58,0,57,250.5570203999814,,,,,,,,,,,,,,,,,,,,,,,,,,,,,,,,,,,,,,,,,,,,,,,,,,250.54088479999336,250.5570203999814,251.04199480000534,251.0515436999849,251.07555449998472,251.07555449998472,251.07555449998472,252.36399419998634,Objects\223b.jpg,mid,s,1.2778612000111025,None,,,,,,,,00036,001,2026-01-16_22h32.11.646,MST_test,2024.2.0,60.10998926313704,2026-01-16 22h32.26.137519 +0530,
58,0,59,n,1.559202100004768,None,59,0,58,252.3800870999985,,,,,,,,,,,,,,,,,,,,,,,,,,,,,,,,,,,,,,,,,,,,,,,,,,252.36408709999523,252.3800870999985,252.86518809999689,252.8745523999969,252.8985243999923,252.8985243999923,252.8985243999923,254.4712171999854,Objects\174b.jpg,pre,n,1.559202100004768,None,,,,,,,,00036,001,2026-01-16_22h32.11.646,MST_test,2024.2.0,60.10998926313704,2026-01-16 22h32.26.137519 +0530,
59,0,60,n,1.1242209000047296,None,60,0,59,254.48733800000628,,,,,,,,,,,,,,,,,,,,,,,,,,,,,,,,,,,,,,,,,,,,,,,,,,254.47131459999946,254.48733800000628,254.97377129999222,254.9831400999974,255.00580779998563,255.00580779998563,255.00580779998563,256.1436841999821,Foils\106a.jpg,none,n,1.1242209000047296,None,,,,,,,,00036,001,2026-01-16_22h32.11.646,MST_test,2024.2.0,60.10998926313704,2026-01-16 22h32.26.137519 +0530,
60,0,61,o,1.1559366000001319,None,61,0,60,256.16018149998854,,,,,,,,,,,,,,,,,,,,,,,,,,,,,,,,,,,,,,,,,,,,,,,,,,256.14377749999403,256.16018149998854,256.64509569999063,256.65111599999364,256.6616972000047,256.6616972000047,256.6616972000047,257.8330233999877,Objects\286a.jpg,mid,o,1.1559366000001319,None,,,,,,,,00036,001,2026-01-16_22h32.11.646,MST_test,2024.2.0,60.10998926313704,2026-01-16 22h32.26.137519 +0530,
61,0,62,o,1.7870308000128716,None,62,0,61,257.8490968999977,,,,,,,,,,,,,,,,,,,,,,,,,,,,,,,,,,,,,,,,,,,,,,,,,,257.8331144999829,257.8490968999977,258.3344924999983,258.3492779999797,258.36755500000436,258.36755500000436,258.36755500000436,260.1581695000059,Objects\251b.jpg,mid,o,1.7870308000128716,None,,,,,,,,00036,001,2026-01-16_22h32.11.646,MST_test,2024.2.0,60.10998926313704,2026-01-16 22h32.26.137519 +0530,
62,0,63,s,1.9897899000206962,None,63,0,62,260.17391489999136,,,,,,,,,,,,,,,,,,,,,,,,,,,,,,,,,,,,,,,,,,,,,,,,,,260.15826639998704,260.17391489999136,260.65911579999374,260.67272790000425,260.69235880000633,260.69235880000633,260.69235880000633,262.68327069998486,Objects\269b.jpg,mid,s,1.9897899000206962,None,,,,,,,,00036,001,2026-01-16_22h32.11.646,MST_test,2024.2.0,60.10998926313704,2026-01-16 22h32.26.137519 +0530,
63,0,64,s,1.6971780000021681,None,64,0,63,262.6995576999907,,,,,,,,,,,,,,,,,,,,,,,,,,,,,,,,,,,,,,,,,,,,,,,,,,262.68336779999663,262.6995576999907,263.18456490000244,263.1921888999932,263.2010616000043,263.2010616000043,263.2010616000043,264.9076100999955,Objects\120a.jpg,mid,s,1.6971780000021681,None,,,,,,,,00036,001,2026-01-16_22h32.11.646,MST_test,2024.2.0,60.10998926313704,2026-01-16 22h32.26.137519 +0530,
64,0,65,n,4.455849399993895,None,65,0,64,264.9238906999817,,,,,,,,,,,,,,,,,,,,,,,,,,,,,,,,,,,,,,,,,,,,,,,,,,264.90770729997894,264.9238906999817,265.4091217999812,265.42128749997937,265.44234059998416,265.44234059998416,265.44234059998416,269.90867439997965,Foils\f6.jpg,none,n,4.455849399993895,None,,,,,,,,00036,001,2026-01-16_22h32.11.646,MST_test,2024.2.0,60.10998926313704,2026-01-16 22h32.26.137519 +0530,
65,0,66,n,1.1031465000123717,None,66,0,65,269.9247245999868,,,,,,,,,,,,,,,,,,,,,,,,,,,,,,,,,,,,,,,,,,,,,,,,,,269.9087735999783,269.9247245999868,270.4099440999853,270.42463890000363,270.4431673999934,270.4431673999934,270.4431673999934,271.54799589997856,Objects\045b.jpg,post,n,1.1031465000123717,None,,,,,,,,00036,001,2026-01-16_22h32.11.646,MST_test,2024.2.0,60.10998926313704,2026-01-16 22h32.26.137519 +0530,
66,0,67,s,1.343095699994592,None,67,0,66,271.5640332000039,,,,,,,,,,,,,,,,,,,,,,,,,,,,,,,,,,,,,,,,,,,,,,,,,,271.5480935999949,271.5640332000039,272.048917099979,272.0589611000032,272.0824893999961,272.0824893999961,272.0824893999961,273.43826520000584,Objects\348b.jpg,pre,s,1.343095699994592,None,,,,,,,,00036,001,2026-01-16_22h32.11.646,MST_test,2024.2.0,60.10998926313704,2026-01-16 22h32.26.137519 +0530,
67,0,68,o,1.4866538000060245,None,68,0,67,273.45447149997926,,,,,,,,,,,,,,,,,,,,,,,,,,,,,,,,,,,,,,,,,,,,,,,,,,273.4383639000007,273.45447149997926,273.9389459999802,273.9417622000037,273.9556712000049,273.9556712000049,273.9556712000049,275.4445246999967,Objects\008a.jpg,pre,o,1.4866538000060245,None,,,,,,,,00036,001,2026-01-16_22h32.11.646,MST_test,2024.2.0,60.10998926313704,2026-01-16 22h32.26.137519 +0530,
68,0,69,s,1.231310899980599,None,69,0,68,275.4610257000022,,,,,,,,,,,,,,,,,,,,,,,,,,,,,,,,,,,,,,,,,,,,,,,,,,275.4446268999891,275.4610257000022,275.94588179999846,275.95698789999005,275.9793437999906,275.9793437999906,275.9793437999906,277.21767509999336,Foils\010a.jpg,none,s,1.231310899980599,None,,,,,,,,00036,001,2026-01-16_22h32.11.646,MST_test,2024.2.0,60.10998926313704,2026-01-16 22h32.26.137519 +0530,
69,0,70,s,2.6904399000050034,None,70,0,69,277.23366699999315,,,,,,,,,,,,,,,,,,,,,,,,,,,,,,,,,,,,,,,,,,,,,,,,,,277.21777240000665,277.23366699999315,277.7194751999923,277.73459139998886,277.7520908000006,277.7520908000006,277.7520908000006,280.44549349998124,Objects\309b.jpg,pre,s,2.6904399000050034,None,,,,,,,,00036,001,2026-01-16_22h32.11.646,MST_test,2024.2.0,60.10998926313704,2026-01-16 22h32.26.137519 +0530,
70,0,71,s,1.142037400015397,None,71,0,70,280.46175059999223,,,,,,,,,,,,,,,,,,,,,,,,,,,,,,,,,,,,,,,,,,,,,,,,,,280.4455874999985,280.46175059999223,280.94674779998604,280.96409880000283,280.98020059999544,280.98020059999544,280.98020059999544,282.134894399991,Objects\370b.jpg,pre,s,1.142037400015397,None,,,,,,,,00036,001,2026-01-16_22h32.11.646,MST_test,2024.2.0,60.10998926313704,2026-01-16 22h32.26.137519 +0530,
71,0,72,s,1.069157499994617,None,72,0,71,282.150987800007,,,,,,,,,,,,,,,,,,,,,,,,,,,,,,,,,,,,,,,,,,,,,,,,,,282.1349862999923,282.150987800007,282.6361797999998,282.64535439998144,282.6694400999986,282.6694400999986,282.6694400999986,283.7408878999995,Objects\044b.jpg,post,s,1.069157499994617,None,,,,,,,,00036,001,2026-01-16_22h32.11.646,MST_test,2024.2.0,60.10998926313704,2026-01-16 22h32.26.137519 +0530,
72,0,73,s,0.7671363000117708,None,73,0,72,283.75652749999426,,,,,,,,,,,,,,,,,,,,,,,,,,,,,,,,,,,,,,,,,,,,,,,,,,283.7409830999968,283.75652749999426,284.24189859998296,284.2553558999789,284.27494730000035,284.27494730000035,284.27494730000035,285.04512769999565,Objects\323b.jpg,post,s,0.7671363000117708,None,,,,,,,,00036,001,2026-01-16_22h32.11.646,MST_test,2024.2.0,60.10998926313704,2026-01-16 22h32.26.137519 +0530,
73,0,74,s,0.8700754000165034,None,74,0,73,285.0611893000023,,,,,,,,,,,,,,,,,,,,,,,,,,,,,,,,,,,,,,,,,,,,,,,,,,285.0452219999861,285.0611893000023,285.54613259999314,285.5548177000019,285.5796185999934,285.5796185999934,285.5796185999934,286.45027549998485,Objects\266a.jpg,pre,s,0.8700754000165034,None,,,,,,,,00036,001,2026-01-16_22h32.11.646,MST_test,2024.2.0,60.10998926313704,2026-01-16 22h32.26.137519 +0530,
74,0,75,s,1.3300048999954015,None,75,0,74,286.46596060000593,,,,,,,,,,,,,,,,,,,,,,,,,,,,,,,,,,,,,,,,,,,,,,,,,,286.4503707999829,286.46596060000593,286.95132409999496,286.96810070000356,286.9844168999989,286.9844168999989,286.9844168999989,288.32289889999083,Objects\089b.jpg,mid,s,1.3300048999954015,None,,,,,,,,00036,001,2026-01-16_22h32.11.646,MST_test,2024.2.0,60.10998926313704,2026-01-16 22h32.26.137519 +0530,
75,0,76,s,1.2962944000028074,None,76,0,75,288.3393281000026,,,,,,,,,,,,,,,,,,,,,,,,,,,,,,,,,,,,,,,,,,,,,,,,,,288.32313579999027,288.3393281000026,288.82455259998096,288.83391960000154,288.8578973999829,288.8578973999829,288.8578973999829,290.16296099999454,Objects\169b.jpg,pre,s,1.2962944000028074,None,,,,,,,,00036,001,2026-01-16_22h32.11.646,MST_test,2024.2.0,60.10998926313704,2026-01-16 22h32.26.137519 +0530,
76,0,77,s,2.000639300007606,None,77,0,76,290.17911349999486,,,,,,,,,,,,,,,,,,,,,,,,,,,,,,,,,,,,,,,,,,,,,,,,,,290.16305149998516,290.17911349999486,290.664191799995,290.673621199996,290.69742359998054,290.69742359998054,290.69742359998054,292.7052384999988,Foils\057a.jpg,none,s,2.000639300007606,None,,,,,,,,00036,001,2026-01-16_22h32.11.646,MST_test,2024.2.0,60.10998926313704,2026-01-16 22h32.26.137519 +0530,
77,0,78,s,2.538122199999634,None,78,0,77,292.721340899996,,,,,,,,,,,,,,,,,,,,,,,,,,,,,,,,,,,,,,,,,,,,,,,,,,292.70533289999,292.721340899996,293.2063065999828,293.2160814999952,293.2397962999821,293.2397962999821,293.2397962999821,295.7827322999947,Objects\255b.jpg,post,s,2.538122199999634,None,,,,,,,,00036,001,2026-01-16_22h32.11.646,MST_test,2024.2.0,60.10998926313704,2026-01-16 22h32.26.137519 +0530,
78,0,79,o,1.157396399998106,None,79,0,78,295.7987845999887,,,,,,,,,,,,,,,,,,,,,,,,,,,,,,,,,,,,,,,,,,,,,,,,,,295.7828254000051,295.7987845999887,296.28389709998737,296.28652009999496,296.3005031000066,296.3005031000066,296.3005031000066,297.47192650000216,Objects\347a.jpg,pre,o,1.157396399998106,None,,,,,,,,00036,001,2026-01-16_22h32.11.646,MST_test,2024.2.0,60.10998926313704,2026-01-16 22h32.26.137519 +0530,
79,0,80,s,1.1079622999823187,None,80,0,79,297.48791299998993,,,,,,,,,,,,,,,,,,,,,,,,,,,,,,,,,,,,,,,,,,,,,,,,,,297.4720199999865,297.48791299998993,297.9731227000011,297.9767484999902,297.98991519998526,297.98991519998526,297.98991519998526,299.1109465000045,Objects\178a.jpg,post,s,1.1079622999823187,None,,,,,,,,00036,001,2026-01-16_22h32.11.646,MST_test,2024.2.0,60.10998926313704,2026-01-16 22h32.26.137519 +0530,
80,0,81,s,1.539913999993587,None,81,0,80,299.1270343000069,,,,,,,,,,,,,,,,,,,,,,,,,,,,,,,,,,,,,,,,,,,,,,,,,,299.1110461000062,299.1270343000069,299.6129954000062,299.6221302000049,299.6454301000049,299.6454301000049,299.6454301000049,301.20153140000184,Objects\382b.jpg,post,s,1.539913999993587,None,,,,,,,,00036,001,2026-01-16_22h32.11.646,MST_test,2024.2.0,60.10998926313704,2026-01-16 22h32.26.137519 +0530,
81,0,82,s,0.8905679000017699,None,82,0,81,301.21763420000207,,,,,,,,,,,,,,,,,,,,,,,,,,,,,,,,,,,,,,,,,,,,,,,,,,301.2016263999976,301.21763420000207,301.70283070000005,301.712472299987,301.7360776999849,301.7360776999849,301.7360776999849,302.6403323999839,Objects\142b.jpg,pre,s,0.8905679000017699,None,,,,,,,,00036,001,2026-01-16_22h32.11.646,MST_test,2024.2.0,60.10998926313704,2026-01-16 22h32.26.137519 +0530,
82,0,83,s,1.0193806000170298,None,83,0,82,302.65667470000335,,,,,,,,,,,,,,,,,,,,,,,,,,,,,,,,,,,,,,,,,,,,,,,,,,302.6404423000058,302.65667470000335,303.1411111000052,303.1504919999861,303.17458890000125,303.17458890000125,303.17458890000125,304.1962927999848,Objects\229b.jpg,mid,s,1.0193806000170298,None,,,,,,,,00036,001,2026-01-16_22h32.11.646,MST_test,2024.2.0,60.10998926313704,2026-01-16 22h32.26.137519 +0530,
83,0,84,s,1.2882346999831498,None,84,0,83,304.2117208999989,,,,,,,,,,,,,,,,,,,,,,,,,,,,,,,,,,,,,,,,,,,,,,,,,,304.19639149997965,304.2117208999989,304.6969744999951,304.70614989998285,304.73003889998654,304.73003889998654,304.73003889998654,306.0187963999924,Objects\046b.jpg,post,s,1.2882346999831498,None,,,,,,,,00036,001,2026-01-16_22h32.11.646,MST_test,2024.2.0,60.10998926313704,2026-01-16 22h32.26.137519 +0530,
84,0,85,n,4.257627399987541,None,85,0,84,306.034510700003,,,,,,,,,,,,,,,,,,,,,,,,,,,,,,,,,,,,,,,,,,,,,,,,,,306.0188877999899,306.034510700003,306.5197541999805,306.5294134999858,306.55295469998964,306.55295469998964,306.55295469998964,310.81852689999505,Objects\065b.jpg,mid,n,4.257627399987541,None,,,,,,,,00036,001,2026-01-16_22h32.11.646,MST_test,2024.2.0,60.10998926313704,2026-01-16 22h32.26.137519 +0530,
85,0,86,s,3.106125999998767,None,86,0,85,310.83465119998436,,,,,,,,,,,,,,,,,,,,,,,,,,,,,,,,,,,,,,,,,,,,,,,,,,310.8186535999994,310.83465119998436,311.31985800000257,311.32602559999214,311.33633609997923,311.33633609997923,311.33633609997923,314.4479369999899,Objects\208a.jpg,pre,s,3.106125999998767,None,,,,,,,,00036,001,2026-01-16_22h32.11.646,MST_test,2024.2.0,60.10998926313704,2026-01-16 22h32.26.137519 +0530,
86,0,87,s,1.0424194000079297,None,87,0,86,314.46415719998186,,,,,,,,,,,,,,,,,,,,,,,,,,,,,,,,,,,,,,,,,,,,,,,,,,314.44803060000413,314.46415719998186,314.9491480999859,314.96342939999886,314.9840745999827,314.9840745999827,314.9840745999827,316.036904699984,Objects\292b.jpg,post,s,1.0424194000079297,None,,,,,,,,00036,001,2026-01-16_22h32.11.646,MST_test,2024.2.0,60.10998926313704,2026-01-16 22h32.26.137519 +0530,
87,0,88,s,0.7765997000096831,None,88,0,87,316.05302170000505,,,,,,,,,,,,,,,,,,,,,,,,,,,,,,,,,,,,,,,,,,,,,,,,,,316.0369960999815,316.05302170000505,316.53812549999566,316.5458892000024,316.55429539998295,316.55429539998295,316.55429539998295,317.341308699979,Objects\217a.jpg,pre,s,0.7765997000096831,None,,,,,,,,00036,001,2026-01-16_22h32.11.646,MST_test,2024.2.0,60.10998926313704,2026-01-16 22h32.26.137519 +0530,
88,0,89,s,1.2786730999941938,None,89,0,88,317.3575090999948,,,,,,,,,,,,,,,,,,,,,,,,,,,,,,,,,,,,,,,,,,,,,,,,,,317.34141329998965,317.3575090999948,317.8426963999809,317.84928299998865,317.85896369998227,317.85896369998227,317.85896369998227,319.1477534000005,Objects\342a.jpg,pre,s,1.2786730999941938,None,,,,,,,,00036,001,2026-01-16_22h32.11.646,MST_test,2024.2.0,60.10998926313704,2026-01-16 22h32.26.137519 +0530,
89,0,90,s,1.143494699994335,None,90,0,89,319.1638194999832,,,,,,,,,,,,,,,,,,,,,,,,,,,,,,,,,,,,,,,,,,,,,,,,,,319.1478410999989,319.1638194999832,319.6491526000027,319.6591125999985,319.6822675000003,319.6822675000003,319.6822675000003,320.83697249999386,Foils\086a.jpg,none,s,1.143494699994335,None,,,,,,,,00036,001,2026-01-16_22h32.11.646,MST_test,2024.2.0,60.10998926313704,2026-01-16 22h32.26.137519 +0530,
90,0,91,s,0.8790335000085179,None,91,0,90,320.85307539999485,,,,,,,,,,,,,,,,,,,,,,,,,,,,,,,,,,,,,,,,,,,,,,,,,,320.8370677999919,320.85307539999485,321.3382711999875,321.3411555000057,321.3547864999855,321.3547864999855,321.3547864999855,322.24187149998033,Objects\161a.jpg,pre,s,0.8790335000085179,None,,,,,,,,00036,001,2026-01-16_22h32.11.646,MST_test,2024.2.0,60.10998926313704,2026-01-16 22h32.26.137519 +0530,
91,0,92,s,0.7372661999834236,None,92,0,91,322.25799139999435,,,,,,,,,,,,,,,,,,,,,,,,,,,,,,,,,,,,,,,,,,,,,,,,,,322.2419629000069,322.25799139999435,322.74319949999335,322.7528032999835,322.7764852999826,322.7764852999826,322.7764852999826,323.5299514999788,Foils\026a.jpg,none,s,0.7372661999834236,None,,,,,,,,00036,001,2026-01-16_22h32.11.646,MST_test,2024.2.0,60.10998926313704,2026-01-16 22h32.26.137519 +0530,
92,0,93,n,0.938471200002823,None,93,0,92,323.54593049999676,,,,,,,,,,,,,,,,,,,,,,,,,,,,,,,,,,,,,,,,,,,,,,,,,,323.53004270000383,323.54593049999676,324.03172199998517,324.041229800001,324.0644408999942,324.0644408999942,324.0644408999942,325.01832829997875,Foils\033a.jpg,none,n,0.938471200002823,None,,,,,,,,00036,001,2026-01-16_22h32.11.646,MST_test,2024.2.0,60.10998926313704,2026-01-16 22h32.26.137519 +0530,
93,0,94,s,1.0893624000018463,None,94,0,93,325.0343927000067,,,,,,,,,,,,,,,,,,,,,,,,,,,,,,,,,,,,,,,,,,,,,,,,,,325.018421899993,325.0343927000067,325.5195971999783,325.5290246999939,325.5528157999797,325.5528157999797,325.5528157999797,326.6573828999826,Objects\159b.jpg,post,s,1.0893624000018463,None,,,,,,,,00036,001,2026-01-16_22h32.11.646,MST_test,2024.2.0,60.10998926313704,2026-01-16 22h32.26.137519 +0530,
94,0,95,s,1.5558424999762792,None,95,0,94,326.6735659999831,,,,,,,,,,,,,,,,,,,,,,,,,,,,,,,,,,,,,,,,,,,,,,,,,,326.6574763999961,326.6735659999831,327.15856439998606,327.16573039998184,327.175310599996,327.175310599996,327.175310599996,328.74784229998477,Objects\373a.jpg,post,s,1.5558424999762792,None,,,,,,,,00036,001,2026-01-16_22h32.11.646,MST_test,2024.2.0,60.10998926313704,2026-01-16 22h32.26.137519 +0530,
95,0,96,n,0.8793880000011995,None,96,0,95,328.76423939998494,,,,,,,,,,,,,,,,,,,,,,,,,,,,,,,,,,,,,,,,,,,,,,,,,,328.7479383999889,328.76423939998494,329.24929199999315,329.2611135999905,329.28253810000024,329.28253810000024,329.28253810000024,330.169716000004,Foils\f7.jpg,none,n,0.8793880000011995,None,,,,,,,,00036,001,2026-01-16_22h32.11.646,MST_test,2024.2.0,60.10998926313704,2026-01-16 22h32.26.137519 +0530,
96,0,97,n,0.7308584999991581,None,97,0,96,330.1857558999909,,,,,,,,,,,,,,,,,,,,,,,,,,,,,,,,,,,,,,,,,,,,,,,,,,330.1699618999846,330.1857558999909,330.6709631999838,330.6850753999897,330.70418179998524,330.70418179998524,330.70418179998524,331.44096829998307,Foils\042a.jpg,none,n,0.7308584999991581,None,,,,,,,,00036,001,2026-01-16_22h32.11.646,MST_test,2024.2.0,60.10998926313704,2026-01-16 22h32.26.137519 +0530,
97,0,98,s,1.1311989999958314,None,98,0,97,331.45697569998447,,,,,,,,,,,,,,,,,,,,,,,,,,,,,,,,,,,,,,,,,,,,,,,,,,331.441061599995,331.45697569998447,331.9419995000062,331.9515272999997,331.9754264999938,331.9754264999938,331.9754264999938,333.11343609998585,Objects\301b.jpg,mid,s,1.1311989999958314,None,,,,,,,,00036,001,2026-01-16_22h32.11.646,MST_test,2024.2.0,60.10998926313704,2026-01-16 22h32.26.137519 +0530,
98,0,99,n,2.0425709999981336,None,99,0,98,333.12939099999494,,,,,,,,,,,,,,,,,,,,,,,,,,,,,,,,,,,,,,,,,,,,,,,,,,333.11352739998256,333.12939099999494,333.6147220999992,333.62450909998734,333.6478258999996,333.6478258999996,333.6478258999996,335.7057181999844,Objects\069b.jpg,pre,n,2.0425709999981336,None,,,,,,,,00036,001,2026-01-16_22h32.11.646,MST_test,2024.2.0,60.10998926313704,2026-01-16 22h32.26.137519 +0530,
99,0,100,s,0.8349223000113852,None,100,0,99,335.72192320000613,,,,,,,,,,,,,,,,,,,,,,,,,,,,,,,,,,,,,,,,,,,,,,,,,,335.7058122000017,335.72192320000613,336.20687799999723,336.21004710000125,336.22365199998603,336.22365199998603,336.22365199998603,337.06051439998555,Objects\038a.jpg,post,s,0.8349223000113852,None,,,,,,,,00036,001,2026-01-16_22h32.11.646,MST_test,2024.2.0,60.10998926313704,2026-01-16 22h32.26.137519 +0530,
100,0,101,s,2.2157274000055622,None,101,0,100,337.07655539998086,,,,,,,,,,,,,,,,,,,,,,,,,,,,,,,,,,,,,,,,,,,,,,,,,,337.06061139999656,337.07655539998086,337.56176409998443,337.56452600000193,337.5782558999781,337.5782558999781,337.5782558999781,339.80374459997984,Objects\107a.jpg,mid,s,2.2157274000055622,None,,,,,,,,00036,001,2026-01-16_22h32.11.646,MST_test,2024.2.0,60.10998926313704,2026-01-16 22h32.26.137519 +0530,
101,0,102,s,4.201171599997906,None,102,0,101,339.81948559999,,,,,,,,,,,,,,,,,,,,,,,,,,,,,,,,,,,,,,,,,,,,,,,,,,339.80383719998645,339.81948559999,340.30478669999866,340.3158778999932,340.3379258000059,340.3379258000059,340.3379258000059,344.5533643999952,Objects\132b.jpg,post,s,4.201171599997906,None,,,,,,,,00036,001,2026-01-16_22h32.11.646,MST_test,2024.2.0,60.10998926313704,2026-01-16 22h32.26.137519 +0530,
102,0,103,n,1.30685879997327,None,103,0,102,344.56969139998546,,,,,,,,,,,,,,,,,,,,,,,,,,,,,,,,,,,,,,,,,,,,,,,,,,344.55350839998573,344.56969139998546,345.0545368999883,345.0640249999997,345.0880288000044,345.0880288000044,345.0880288000044,346.41013439997914,Foils\113a.jpg,none,n,1.30685879997327,None,,,,,,,,00036,001,2026-01-16_22h32.11.646,MST_test,2024.2.0,60.10998926313704,2026-01-16 22h32.26.137519 +0530,
103,0,104,o,1.4414532000082545,None,104,0,103,346.42619139997987,,,,,,,,,,,,,,,,,,,,,,,,,,,,,,,,,,,,,,,,,,,,,,,,,,346.4102254000027,346.42619139997987,346.9110327999806,346.92068059998564,346.9445241999929,346.9445241999929,346.9445241999929,348.40030360000674,Objects\234b.jpg,mid,o,1.4414532000082545,None,,,,,,,,00036,001,2026-01-16_22h32.11.646,MST_test,2024.2.0,60.10998926313704,2026-01-16 22h32.26.137519 +0530,
104,0,105,s,0.9797994999971706,None,105,0,104,348.41638340000645,,,,,,,,,,,,,,,,,,,,,,,,,,,,,,,,,,,,,,,,,,,,,,,,,,348.40039589998196,348.41638340000645,348.9013398999814,348.9139643999806,348.9348125999968,348.9348125999968,348.9348125999968,349.92227369998,Objects\272b.jpg,pre,s,0.9797994999971706,None,,,,,,,,00036,001,2026-01-16_22h32.11.646,MST_test,2024.2.0,60.10998926313704,2026-01-16 22h32.26.137519 +0530,
105,0,106,n,1.513289900001837,None,106,0,105,349.93836609998834,,,,,,,,,,,,,,,,,,,,,,,,,,,,,,,,,,,,,,,,,,,,,,,,,,349.92236490000505,349.93836609998834,350.42341899999883,350.4378327000013,350.45681869998225,350.45681869998225,350.45681869998225,351.97940759998164,Foils\018a.jpg,none,n,1.513289900001837,None,,,,,,,,00036,001,2026-01-16_22h32.11.646,MST_test,2024.2.0,60.10998926313704,2026-01-16 22h32.26.137519 +0530,
106,0,107,s,1.9119251999945845,None,107,0,106,351.9954538999882,,,,,,,,,,,,,,,,,,,,,,,,,,,,,,,,,,,,,,,,,,,,,,,,,,351.9794994999829,351.9954538999882,352.4806733999867,352.4901137999841,352.5138955999864,352.5138955999864,352.5138955999864,354.43786309999996,Objects\308b.jpg,post,s,1.9119251999945845,None,,,,,,,,00036,001,2026-01-16_22h32.11.646,MST_test,2024.2.0,60.10998926313704,2026-01-16 22h32.26.137519 +0530,
107,0,108,s,2.3251556000031997,None,108,0,107,354.454387899983,,,,,,,,,,,,,,,,,,,,,,,,,,,,,,,,,,,,,,,,,,,,,,,,,,354.43795759999193,354.454387899983,354.93929019998177,354.94781189999776,354.97246099999757,354.97246099999757,354.97246099999757,357.29848850000417,Objects\337a.jpg,post,s,2.3251556000031997,None,,,,,,,,00036,001,2026-01-16_22h32.11.646,MST_test,2024.2.0,60.10998926313704,2026-01-16 22h32.26.137519 +0530,
108,0,109,o,1.017300500010606,None,109,0,108,357.31408819998614,,,,,,,,,,,,,,,,,,,,,,,,,,,,,,,,,,,,,,,,,,,,,,,,,,357.29859200000647,357.31408819998614,357.7994158999936,357.80733670000336,357.8325139999797,357.8325139999797,357.8325139999797,358.8533129999996,Objects\216a.jpg,mid,o,1.017300500010606,None,,,,,,,,00036,001,2026-01-16_22h32.11.646,MST_test,2024.2.0,60.10998926313704,2026-01-16 22h32.26.137519 +0530,
109,0,110,n,1.2377315000048839,None,110,0,109,358.86965919999056,,,,,,,,,,,,,,,,,,,,,,,,,,,,,,,,,,,,,,,,,,,,,,,,,,358.85340839999844,358.86965919999056,359.3549233999802,359.3645084000018,359.3879733000067,359.3879733000067,359.3879733000067,360.62693100000615,Foils\009a.jpg,none,n,1.2377315000048839,None,,,,,,,,00036,001,2026-01-16_22h32.11.646,MST_test,2024.2.0,60.10998926313704,2026-01-16 22h32.26.137519 +0530,
110,0,111,s,1.152470800006995,None,111,0,110,360.6425271999906,,,,,,,,,,,,,,,,,,,,,,,,,,,,,,,,,,,,,,,,,,,,,,,,,,360.62702099999296,360.6425271999906,361.12748520000605,361.1372402999841,361.1608525000047,361.1608525000047,361.1608525000047,362.31570499998634,Objects\027b.jpg,post,s,1.152470800006995,None,,,,,,,,00036,001,2026-01-16_22h32.11.646,MST_test,2024.2.0,60.10998926313704,2026-01-16 22h32.26.137519 +0530,
111,0,112,s,1.3352276000077836,None,112,0,111,362.3316527999996,,,,,,,,,,,,,,,,,,,,,,,,,,,,,,,,,,,,,,,,,,,,,,,,,,362.315795100003,362.3316527999996,362.81699579997803,362.83043089997955,362.8501057999965,362.8501057999965,362.8501057999965,364.18888839997817,Objects\336b.jpg,pre,s,1.3352276000077836,None,,,,,,,,00036,001,2026-01-16_22h32.11.646,MST_test,2024.2.0,60.10998926313704,2026-01-16 22h32.26.137519 +0530,
112,0,113,s,1.83146059999126,None,113,0,112,364.2049843999848,,,,,,,,,,,,,,,,,,,,,,,,,,,,,,,,,,,,,,,,,,,,,,,,,,364.1889827999985,364.2049843999848,364.6899510999792,364.69798349999473,364.7060990000027,364.7060990000027,364.7060990000027,366.54714340000646,Objects\241a.jpg,mid,s,1.83146059999126,None,,,,,,,,00036,001,2026-01-16_22h32.11.646,MST_test,2024.2.0,60.10998926313704,2026-01-16 22h32.26.137519 +0530,
113,0,114,o,1.2161840999906417,None,114,0,113,366.56313840000075,,,,,,,,,,,,,,,,,,,,,,,,,,,,,,,,,,,,,,,,,,,,,,,,,,366.54723809999996,366.56313840000075,367.0485369999951,367.06478419998894,367.0815766000014,367.0815766000014,367.0815766000014,368.30333840000094,Objects\310b.jpg,mid,o,1.2161840999906417,None,,,,,,,,00036,001,2026-01-16_22h32.11.646,MST_test,2024.2.0,60.10998926313704,2026-01-16 22h32.26.137519 +0530,
114,0,115,s,1.276324400008889,None,115,0,114,368.319292900007,,,,,,,,,,,,,,,,,,,,,,,,,,,,,,,,,,,,,,,,,,,,,,,,,,368.3034333999967,368.319292900007,368.80451759998687,368.81904869998107,368.8377294999955,368.8377294999955,368.8377294999955,370.12623739999253,Objects\098b.jpg,pre,s,1.276324400008889,None,,,,,,,,00036,001,2026-01-16_22h32.11.646,MST_test,2024.2.0,60.10998926313704,2026-01-16 22h32.26.137519 +0530,
115,0,116,s,1.2303330000140704,None,116,0,115,370.1424539999862,,,,,,,,,,,,,,,,,,,,,,,,,,,,,,,,,,,,,,,,,,,,,,,,,,370.12633539998205,370.1424539999862,370.6274165000068,370.63002719997894,370.6441314999829,370.6441314999829,370.6441314999829,371.8827702999988,Objects\317a.jpg,mid,s,1.2303330000140704,None,,,,,,,,00036,001,2026-01-16_22h32.11.646,MST_test,2024.2.0,60.10998926313704,2026-01-16 22h32.26.137519 +0530,
116,0,117,o,1.0883519999915734,None,117,0,116,371.898629000003,,,,,,,,,,,,,,,,,,,,,,,,,,,,,,,,,,,,,,,,,,,,,,,,,,371.88285949997953,371.898629000003,372.38388759997906,372.39143550000153,372.41691999998875,372.41691999998875,372.41691999998875,373.52167719998397,Objects\239a.jpg,pre,o,1.0883519999915734,None,,,,,,,,00036,001,2026-01-16_22h32.11.646,MST_test,2024.2.0,60.10998926313704,2026-01-16 22h32.26.137519 +0530,
117,0,118,s,1.2728186000022106,None,118,0,117,373.53768079998554,,,,,,,,,,,,,,,,,,,,,,,,,,,,,,,,,,,,,,,,,,,,,,,,,,373.5218023000052,373.53768079998554,374.02286609998555,374.0409154999943,374.05695820000255,374.05695820000255,374.05695820000255,375.3448081999959,Objects\363b.jpg,pre,s,1.2728186000022106,None,,,,,,,,00036,001,2026-01-16_22h32.11.646,MST_test,2024.2.0,60.10998926313704,2026-01-16 22h32.26.137519 +0530,
118,0,119,n,0.8907995000190567,None,119,0,118,375.3607325000048,,,,,,,,,,,,,,,,,,,,,,,,,,,,,,,,,,,,,,,,,,,,,,,,,,375.3449005000002,375.3607325000048,375.8457511999877,375.8601787999796,375.87918739998713,375.87918739998713,375.87918739998713,376.78297319999547,Foils\050a.jpg,none,n,0.8907995000190567,None,,,,,,,,00036,001,2026-01-16_22h32.11.646,MST_test,2024.2.0,60.10998926313704,2026-01-16 22h32.26.137519 +0530,
119,0,120,n,1.4530474999919534,None,120,0,119,376.7989786999824,,,,,,,,,,,,,,,,,,,,,,,,,,,,,,,,,,,,,,,,,,,,,,,,,,376.7830626999785,376.7989786999824,377.284224300005,377.29340039999806,377.31741409999086,377.31741409999086,377.31741409999086,378.7734676999971,Foils\020b.jpg,none,n,1.4530474999919534,None,,,,,,,,00036,001,2026-01-16_22h32.11.646,MST_test,2024.2.0,60.10998926313704,2026-01-16 22h32.26.137519 +0530,
120,0,121,s,1.0229703999939375,None,121,0,120,378.7893247999891,,,,,,,,,,,,,,,,,,,,,,,,,,,,,,,,,,,,,,,,,,,,,,,,,,378.77356410000357,378.7893247999891,379.27458689999185,379.2770987999975,379.2910176999867,379.2910176999867,379.2910176999867,380.3286226000055,Objects\041a.jpg,post,s,1.0229703999939375,None,,,,,,,,00036,001,2026-01-16_22h32.11.646,MST_test,2024.2.0,60.10998926313704,2026-01-16 22h32.26.137519 +0530,
121,0,122,s,1.514672299992526,None,122,0,121,380.34473979999893,,,,,,,,,,,,,,,,,,,,,,,,,,,,,,,,,,,,,,,,,,,,,,,,,,380.32871400000295,380.34473979999893,380.83054179998,380.8372545999882,380.8468576000014,380.8468576000014,380.8468576000014,382.36897079998744,Objects\329a.jpg,mid,s,1.514672299992526,None,,,,,,,,00036,001,2026-01-16_22h32.11.646,MST_test,2024.2.0,60.10998926313704,2026-01-16 22h32.26.137519 +0530,
122,0,123,s,1.0269843999994919,None,123,0,122,382.38519709999673,,,,,,,,,,,,,,,,,,,,,,,,,,,,,,,,,,,,,,,,,,,,,,,,,,382.3690781999903,382.38519709999673,382.8704189999844,382.8845780999982,382.9036442999786,382.9036442999786,382.9036442999786,383.9415617999912,Objects\037b.jpg,mid,s,1.0269843999994919,None,,,,,,,,00036,001,2026-01-16_22h32.11.646,MST_test,2024.2.0,60.10998926313704,2026-01-16 22h32.26.137519 +0530,
123,0,124,s,0.9986840000201482,None,124,0,123,383.9576612999954,,,,,,,,,,,,,,,,,,,,,,,,,,,,,,,,,,,,,,,,,,,,,,,,,,383.9416556000069,383.9576612999954,384.44246789999306,384.45208479999565,384.47594169998774,384.47594169998774,384.47594169998774,385.48000959999627,Foils\081a.jpg,none,s,0.9986840000201482,None,,,,,,,,00036,001,2026-01-16_22h32.11.646,MST_test,2024.2.0,60.10998926313704,2026-01-16 22h32.26.137519 +0530,
124,0,125,s,1.0524320999975316,None,125,0,124,385.4961004999932,,,,,,,,,,,,,,,,,,,,,,,,,,,,,,,,,,,,,,,,,,,,,,,,,,385.48010119999526,385.4961004999932,385.98132399999304,385.9886856999947,385.99725660000695,385.99725660000695,385.99725660000695,387.0522619999829,Objects\250a.jpg,post,s,1.0524320999975316,None,,,,,,,,00036,001,2026-01-16_22h32.11.646,MST_test,2024.2.0,60.10998926313704,2026-01-16 22h32.26.137519 +0530,
125,0,126,o,1.256819500005804,None,126,0,125,387.0682729999826,,,,,,,,,,,,,,,,,,,,,,,,,,,,,,,,,,,,,,,,,,,,,,,,,,387.05235179999727,387.0682729999826,387.5534734999819,387.56054909998784,387.5701722999802,387.5701722999802,387.5701722999802,388.84168650000356,Objects\101a.jpg,mid,o,1.256819500005804,None,,,,,,,,00036,001,2026-01-16_22h32.11.646,MST_test,2024.2.0,60.10998926313704,2026-01-16 22h32.26.137519 +0530,
126,0,127,o,1.8653599999961443,None,127,0,126,388.85801289998926,,,,,,,,,,,,,,,,,,,,,,,,,,,,,,,,,,,,,,,,,,,,,,,,,,388.8417768999934,388.85801289998926,389.34325229999376,389.34641480000573,389.3927505000029,389.3927505000029,389.3927505000029,391.2671780999808,Objects\075a.jpg,pre,o,1.8653599999961443,None,,,,,,,,00036,001,2026-01-16_22h32.11.646,MST_test,2024.2.0,60.10998926313704,2026-01-16 22h32.26.137519 +0530,
127,0,128,o,0.8170574999821838,None,128,0,127,391.28314660000615,,,,,,,,,,,,,,,,,,,,,,,,,,,,,,,,,,,,,,,,,,,,,,,,,,391.26727429998573,391.28314660000615,391.7683982999879,391.7708261999942,391.78487209999,391.78487209999,391.78487209999,392.6052381999907,Objects\135a.jpg,post,o,0.8170574999821838,None,,,,,,,,00036,001,2026-01-16_22h32.11.646,MST_test,2024.2.0,60.10998926313704,2026-01-16 22h32.26.137519 +0530,
128,0,129,o,0.8629059999948367,None,129,0,128,392.6211793999828,,,,,,,,,,,,,,,,,,,,,,,,,,,,,,,,,,,,,,,,,,,,,,,,,,392.60533120000036,392.6211793999828,393.106146599981,393.11216259998037,393.123104600003,393.123104600003,393.123104600003,393.9932240000053,Objects\231a.jpg,post,o,0.8629059999948367,None,,,,,,,,00036,001,2026-01-16_22h32.11.646,MST_test,2024.2.0,60.10998926313704,2026-01-16 22h32.26.137519 +0530,
129,0,130,n,0.9068348000000697,None,130,0,129,394.0092605999962,,,,,,,,,,,,,,,,,,,,,,,,,,,,,,,,,,,,,,,,,,,,,,,,,,393.9933191000018,394.0092605999962,394.4945900999883,394.50912489998154,394.5276878000004,394.5276878000004,394.5276878000004,395.4484550000052,Foils\049a.jpg,none,n,0.9068348000000697,None,,,,,,,,00036,001,2026-01-16_22h32.11.646,MST_test,2024.2.0,60.10998926313704,2026-01-16 22h32.26.137519 +0530,
130,0,131,s,1.2427274000074249,None,131,0,130,395.4643440999789,,,,,,,,,,,,,,,,,,,,,,,,,,,,,,,,,,,,,,,,,,,,,,,,,,395.44855370000005,395.4643440999789,395.9495335999818,395.9634543999855,395.9828777999792,395.9828777999792,395.9828777999792,397.23778440000024,Objects\346b.jpg,post,s,1.2427274000074249,None,,,,,,,,00036,001,2026-01-16_22h32.11.646,MST_test,2024.2.0,60.10998926313704,2026-01-16 22h32.26.137519 +0530,
131,0,132,s,2.5018529999942984,None,132,0,131,397.25394540000707,,,,,,,,,,,,,,,,,,,,,,,,,,,,,,,,,,,,,,,,,,,,,,,,,,397.23788840000634,397.25394540000707,397.73873959999764,397.7600822999957,397.77215299999807,397.77215299999807,397.77215299999807,400.2818232999998,Foils\066a.jpg,none,s,2.5018529999942984,None,,,,,,,,00036,001,2026-01-16_22h32.11.646,MST_test,2024.2.0,60.10998926313704,2026-01-16 22h32.26.137519 +0530,
132,0,133,n,1.3851496999850497,None,133,0,132,400.2981334000069,,,,,,,,,,,,,,,,,,,,,,,,,,,,,,,,,,,,,,,,,,,,,,,,,,400.2819125999813,400.2981334000069,400.7831277999794,400.7933441000059,400.8165066999791,400.8165066999791,400.8165066999791,402.20529739998165,Foils\002a.jpg,none,n,1.3851496999850497,None,,,,,,,,00036,001,2026-01-16_22h32.11.646,MST_test,2024.2.0,60.10998926313704,2026-01-16 22h32.26.137519 +0530,
133,0,134,s,1.2539162999892142,None,134,0,133,402.221461499983,,,,,,,,,,,,,,,,,,,,,,,,,,,,,,,,,,,,,,,,,,,,,,,,,,402.2053892999829,402.221461499983,402.70642179998686,402.7175466000044,402.7399028999789,402.7399028999789,402.7399028999789,403.99473380000563,Objects\248a.jpg,mid,s,1.2539162999892142,None,,,,,,,,00036,001,2026-01-16_22h32.11.646,MST_test,2024.2.0,60.10998926313704,2026-01-16 22h32.26.137519 +0530,
134,0,135,o,1.4880787000001874,None,135,0,134,404.01105780000216,,,,,,,,,,,,,,,,,,,,,,,,,,,,,,,,,,,,,,,,,,,,,,,,,,403.9948396999971,404.01105780000216,404.49601000000257,404.5041789999814,404.5294862999872,404.5294862999872,404.5294862999872,406.01858859998174,Objects\221a.jpg,mid,o,1.4880787000001874,None,,,,,,,,00036,001,2026-01-16_22h32.11.646,MST_test,2024.2.0,60.10998926313704,2026-01-16 22h32.26.137519 +0530,
135,0,136,s,1.0083773999940604,None,136,0,135,406.0346918999858,,,,,,,,,,,,,,,,,,,,,,,,,,,,,,,,,,,,,,,,,,,,,,,,,,406.01868459998514,406.0346918999858,406.5198975999956,406.5362718999968,406.55338359999587,406.55338359999587,406.55338359999587,407.5741718999925,Objects\379b.jpg,mid,s,1.0083773999940604,None,,,,,,,,00036,001,2026-01-16_22h32.11.646,MST_test,2024.2.0,60.10998926313704,2026-01-16 22h32.26.137519 +0530,
136,0,137,o,0.9578610000025947,None,137,0,136,407.590131200006,,,,,,,,,,,,,,,,,,,,,,,,,,,,,,,,,,,,,,,,,,,,,,,,,,407.57426540000597,407.590131200006,408.075362100004,408.07820329998503,408.09197789998143,408.09197789998143,408.09197789998143,409.06279639998684,Objects\016a.jpg,pre,o,0.9578610000025947,None,,,,,,,,00036,001,2026-01-16_22h32.11.646,MST_test,2024.2.0,60.10998926313704,2026-01-16 22h32.26.137519 +0530,
137,0,138,n,1.6207529999956023,None,138,0,137,409.07880319998367,,,,,,,,,,,,,,,,,,,,,,,,,,,,,,,,,,,,,,,,,,,,,,,,,,409.0628890999942,409.07880319998367,409.56406959999003,409.57382150000194,409.5972952999873,409.5972952999873,409.5972952999873,411.22033660000307,Foils\074a.jpg,none,n,1.6207529999956023,None,,,,,,,,00036,001,2026-01-16_22h32.11.646,MST_test,2024.2.0,60.10998926313704,2026-01-16 22h32.26.137519 +0530,
138,0,139,s,1.2792719000135548,None,139,0,138,411.23623589999625,,,,,,,,,,,,,,,,,,,,,,,,,,,,,,,,,,,,,,,,,,,,,,,,,,411.22043159999885,411.23623589999625,411.72157259998494,411.73618750000605,411.7546800999844,411.7546800999844,411.7546800999844,413.0433669000049,Objects\265b.jpg,mid,s,1.2792719000135548,None,,,,,,,,00036,001,2026-01-16_22h32.11.646,MST_test,2024.2.0,60.10998926313704,2026-01-16 22h32.26.137519 +0530,
139,0,140,o,2.137232600012794,None,140,0,139,413.0593132000067,,,,,,,,,,,,,,,,,,,,,,,,,,,,,,,,,,,,,,,,,,,,,,,,,,413.04346329998225,413.0593132000067,413.5445182999829,413.55201600000146,413.5608740999887,413.5608740999887,413.5608740999887,415.7025422999868,Objects\064a.jpg,pre,o,2.137232600012794,None,,,,,,,,00036,001,2026-01-16_22h32.11.646,MST_test,2024.2.0,60.10998926313704,2026-01-16 22h32.26.137519 +0530,
140,0,141,s,2.2304311000043526,None,141,0,140,415.7188577000052,,,,,,,,,,,,,,,,,,,,,,,,,,,,,,,,,,,,,,,,,,,,,,,,,,415.7026382999902,415.7188577000052,416.20368710000184,416.2107967000047,416.22016799999983,416.22016799999983,416.22016799999983,418.46226979998755,Objects\257a.jpg,post,s,2.2304311000043526,None,,,,,,,,00036,001,2026-01-16_22h32.11.646,MST_test,2024.2.0,60.10998926313704,2026-01-16 22h32.26.137519 +0530,
141,0,142,n,1.1569113000005018,None,142,0,141,418.47827099999995,,,,,,,,,,,,,,,,,,,,,,,,,,,,,,,,,,,,,,,,,,,,,,,,,,418.46236529998714,418.47827099999995,418.96364750000066,418.9782811999903,418.99675619998015,418.99675619998015,418.99675619998015,420.1681749999989,Foils\073a.jpg,none,n,1.1569113000005018,None,,,,,,,,00036,001,2026-01-16_22h32.11.646,MST_test,2024.2.0,60.10998926313704,2026-01-16 22h32.26.137519 +0530,
142,0,143,s,1.794422199978726,None,143,0,142,420.18450800000574,,,,,,,,,,,,,,,,,,,,,,,,,,,,,,,,,,,,,,,,,,,,,,,,,,420.1683272999944,420.18450800000574,420.6693629999936,420.6790664999862,420.7034488999925,420.7034488999925,420.7034488999925,422.50971319997916,Foils\017a.jpg,none,s,1.794422199978726,None,,,,,,,,00036,001,2026-01-16_22h32.11.646,MST_test,2024.2.0,60.10998926313704,2026-01-16 22h32.26.137519 +0530,
143,0,144,o,1.358895500015933,None,144,0,143,422.5257677999907,,,,,,,,,,,,,,,,,,,,,,,,,,,,,,,,,,,,,,,,,,,,,,,,,,422.50980400000117,422.5257677999907,423.0109748999821,423.01405929998145,423.02750299999025,423.02750299999025,423.02750299999025,424.3996221999987,Objects\077a.jpg,mid,o,1.358895500015933,None,,,,,,,,00036,001,2026-01-16_22h32.11.646,MST_test,2024.2.0,60.10998926313704,2026-01-16 22h32.26.137519 +0530,
144,0,145,n,1.0676959000120405,None,145,0,144,424.4159082999977,,,,,,,,,,,,,,,,,,,,,,,,,,,,,,,,,,,,,,,,,,,,,,,,,,424.3997168999922,424.4159082999977,424.9008254999935,424.9103329000063,424.9342904999794,424.9342904999794,424.9342904999794,426.00529519998236,Foils\121a.jpg,none,n,1.0676959000120405,None,,,,,,,,00036,001,2026-01-16_22h32.11.646,MST_test,2024.2.0,60.10998926313704,2026-01-16 22h32.26.137519 +0530,
145,0,146,s,1.8863318000221625,None,146,0,145,426.0213459999941,,,,,,,,,,,,,,,,,,,,,,,,,,,,,,,,,,,,,,,,,,,,,,,,,,426.00539219999337,426.0213459999941,426.5066152999934,426.5096613999922,426.52306919998955,426.52306919998955,426.52306919998955,428.4138299000042,Objects\102a.jpg,pre,s,1.8863318000221625,None,,,,,,,,00036,001,2026-01-16_22h32.11.646,MST_test,2024.2.0,60.10998926313704,2026-01-16 22h32.26.137519 +0530,
146,0,147,s,0.7270344999851659,None,147,0,146,428.42978409997886,,,,,,,,,,,,,,,,,,,,,,,,,,,,,,,,,,,,,,,,,,,,,,,,,,428.4139407000039,428.42978409997886,428.9151154999854,428.91792439998244,428.9316095999966,428.9316095999966,428.9316095999966,429.66816760000074,Objects\164a.jpg,mid,s,0.7270344999851659,None,,,,,,,,00036,001,2026-01-16_22h32.11.646,MST_test,2024.2.0,60.10998926313704,2026-01-16 22h32.26.137519 +0530,
147,0,148,s,1.2004794999957085,None,148,0,147,429.6843882999965,,,,,,,,,,,,,,,,,,,,,,,,,,,,,,,,,,,,,,,,,,,,,,,,,,429.66826310000033,429.6843882999965,430.16955180000514,430.17235249999794,430.1858801000053,430.1858801000053,430.1858801000053,431.3908552999783,Objects\141a.jpg,post,s,1.2004794999957085,None,,,,,,,,00036,001,2026-01-16_22h32.11.646,MST_test,2024.2.0,60.10998926313704,2026-01-16 22h32.26.137519 +0530,
148,0,149,s,1.3331377999857068,None,149,0,148,431.4069969999837,,,,,,,,,,,,,,,,,,,,,,,,,,,,,,,,,,,,,,,,,,,,,,,,,,431.3909470999788,431.4069969999837,431.8920653999958,431.9014382000023,431.9254331999982,431.9254331999982,431.9254331999982,433.2641195000033,Objects\112b.jpg,mid,s,1.3331377999857068,None,,,,,,,,00036,001,2026-01-16_22h32.11.646,MST_test,2024.2.0,60.10998926313704,2026-01-16 22h32.26.137519 +0530,
149,0,150,s,1.4677405999973416,None,150,0,149,433.2800893999811,,,,,,,,,,,,,,,,,,,,,,,,,,,,,,,,,,,,,,,,,,,,,,,,,,433.26421639998443,433.2800893999811,433.7652945999871,433.7803451999789,433.79852789998404,433.79852789998404,433.79852789998404,435.2710577999824,Objects\209b.jpg,pre,s,1.4677405999973416,None,,,,,,,,00036,001,2026-01-16_22h32.11.646,MST_test,2024.2.0,60.10998926313704,2026-01-16 22h32.26.137519 +0530,
,,,,,,,,,,,,,,,,,,,,,,,,,,,,,,,,,,,,,,,,,,,,,,,,,,,,,,,,,,,,,,,,,,,,,,,,435.2711200999911,435.2872329999809,435.2872329999809,437.27823599998374,space,1.9794323999958578,None,00036,001,2026-01-16_22h32.11.646,MST_test,2024.2.0,60.10998926313704,2026-01-16 22h32.26.137519 +0530,
