Sl_no,image_path,thisN,thisTrialN,thisRepN,key_resp_5.keys,key_resp_5.rt,key_resp_5.duration,key_resp_7.keys,key_resp_9.keys,key_resp_9.rt,key_resp_9.duration,key_resp_8.keys,key_resp_8.rt,key_resp_8.duration,practice.thisRepN,practice.thisTrialN,practice.thisN,trials.thisRepN,trials.thisTrialN,trials.thisN,thisRow.t,notes,welcome_page.started,text.started,key_resp.started,welcome_page.stopped,key_resp.keys,key_resp.rt,key_resp.duration,instructions.started,ins.started,key_resp_2.started,instructions.stopped,key_resp_2.keys,key_resp_2.rt,key_resp_2.duration,objects_only_instruction.started,text_3.started,key_resp_3.started,objects_only_instruction.stopped,key_resp_3.keys,key_resp_3.rt,key_resp_3.duration,ISI.started,text_4.started,ISI.stopped,practice_block.started,image.started,key_resp_5.started,text_5.started,practice_block.stopped,practice.key_resp_5.keys,practice.key_resp_5.rt,practice.key_resp_5.duration,indoor_outdoor.started,indoor_outdoor.stopped,practice.key_resp_7.keys,text_4.stopped,practice_to_main.started,text_2.started,key_resp_4.started,practice_to_main.stopped,key_resp_4.keys,key_resp_4.rt,key_resp_4.duration,objects.started,image_2.started,text_9.started,key_resp_9.started,objects.stopped,category,trials.key_resp_9.keys,trials.key_resp_9.rt,trials.key_resp_9.duration,encoding_task.started,encoding_task.stopped,trials.key_resp_8.keys,text_8.started,key_resp_8.started,trials.key_resp_8.rt,trials.key_resp_8.duration,end_experiment.started,text_6.started,key_resp_6.started,end_experiment.stopped,key_resp_6.keys,key_resp_6.rt,key_resp_6.duration,list_of_stimuli,encoding_task_accuracy,participant,session,date,expName,psychopyVersion,frameRate,expStart,
,,,,,,,,,,,,,,,,,,,,,,,0.003061200026422739,0.019642400031443685,0.019642400031443685,874.6013278000173,space,874.5669628999894,None,,,,,,,,,,,,,,,,,,,,,,,,,,,,,,,,,,,,,,,,,,,,,,,,,,,,,,,,,,,,,,00039,001,2026-01-17_11h27.57.476,MST_task,2024.2.0,59.791304435868895,2026-01-17 11h28.50.739949 +0530,
,,,,,,,,,,,,,,,,,,,,,,,,,,,,,,874.6013666000217,874.6166749999975,874.6166749999975,900.6259411000065,space,25.99340730003314,None,,,,,,,,,,,,,,,,,,,,,,,,,,,,,,,,,,,,,,,,,,,,,,,,,,,,,,,00039,001,2026-01-17_11h27.57.476,MST_task,2024.2.0,59.791304435868895,2026-01-17 11h28.50.739949 +0530,
,,,,,,,,,,,,,,,,,,,,,,,,,,,,,,,,,,,,,900.6259738000226,900.6422248000163,900.6422248000163,910.1593910999945,space,9.511379699979443,None,,,,,,,,,,,,,,,,,,,,,,,,,,,,,,,,,,,,,,,,,,,,,,,,00039,001,2026-01-17_11h27.57.476,MST_task,2024.2.0,59.791304435868895,2026-01-17 11h28.50.739949 +0530,
3,practice_images/037a.jpg,0,0,1,f,2.564001200022176,0.14375519996974617,None,,,,,,,1,0,0,,,,910.1921704999986,,,,,,,,,,,,,,,,,,,,,,,910.173712400021,910.1921704999986,910.6606435000431,910.6780560000334,910.6939050999936,910.6939050999936,910.6939050999936,913.671208899992,f,2.564001200022176,0.14375519996974617,913.6724695000448,913.6724888000172,None,,,,,,,,,,,,,,,,,,,,,,,,,,,,,,,,,,00039,001,2026-01-17_11h27.57.476,MST_task,2024.2.0,59.791304435868895,2026-01-17 11h28.50.739949 +0530,
9,practice_images/180a.jpg,1,1,1,f,1.87447899999097,0.11972790001891553,None,,,,,,,1,1,1,,,,913.6877433999907,,,,,,,,,,,,,,,,,,,,,,,913.6725578000187,913.6877433999907,914.1733553000377,914.1815449999995,914.206988800026,914.206988800026,914.206988800026,917.1834955000086,f,1.87447899999097,0.11972790001891553,917.1835439000279,917.1835685000406,None,,,,,,,,,,,,,,,,,,,,,,,,,,,,,,,,,,00039,001,2026-01-17_11h27.57.476,MST_task,2024.2.0,59.791304435868895,2026-01-17 11h28.50.739949 +0530,
8,practice_images/178a.jpg,2,2,1,f,1.4438506999867968,0.15198080003028736,None,,,,,,,1,2,2,,,,917.1999058999936,,,,,,,,,,,,,,,,,,,,,,,917.18363460002,917.1999058999936,917.6851352000376,917.6935318000033,917.7012084000162,917.7012084000162,917.7012084000162,920.6958564000088,f,1.4438506999867968,0.15198080003028736,920.6958948000101,920.6959069000441,None,,,,,,,,,,,,,,,,,,,,,,,,,,,,,,,,,,00039,001,2026-01-17_11h27.57.476,MST_task,2024.2.0,59.791304435868895,2026-01-17 11h28.50.739949 +0530,
7,practice_images/166a.jpg,3,3,1,f,1.059880000015255,0.20852509996620938,None,,,,,,,1,3,3,,,,920.7121975000482,,,,,,,,,,,,,,,,,,,,,,,920.6959746000357,920.7121975000482,921.1975611000089,921.2060511000454,921.2133155000047,921.2133155000047,921.2133155000047,924.2079800000065,f,1.059880000015255,0.20852509996620938,924.2080234000459,924.2080360000255,None,,,,,,,,,,,,,,,,,,,,,,,,,,,,,,,,,,00039,001,2026-01-17_11h27.57.476,MST_task,2024.2.0,59.791304435868895,2026-01-17 11h28.50.739949 +0530,
5,practice_images/139a.jpg,4,4,1,j,1.8280760999768972,0.15927669999655336,None,,,,,,,1,4,4,,,,924.2245252000284,,,,,,,,,,,,,,,,,,,,,,,924.2081039000186,924.2245252000284,924.7097510000458,924.7178841000423,924.7256401000195,924.7256401000195,924.7256401000195,927.7202960000141,j,1.8280760999768972,0.15927669999655336,927.7203334000078,927.7203492000117,None,,,,,,,,,,,,,,,,,,,,,,,,,,,,,,,,,,00039,001,2026-01-17_11h27.57.476,MST_task,2024.2.0,59.791304435868895,2026-01-17 11h28.50.739949 +0530,
1,practice_images/013a.jpg,5,5,1,j,1.306748399976641,0.1426725999917835,None,,,,,,,1,5,5,,,,927.7369088000269,,,,,,,,,,,,,,,,,,,,,,,927.7204169000033,927.7369088000269,928.2220234000124,928.2329963000375,928.2554206000059,928.2554206000059,928.2554206000059,931.2324376000324,j,1.306748399976641,0.1426725999917835,931.2339942000108,931.2343074000091,None,,,,,,,,,,,,,,,,,,,,,,,,,,,,,,,,,,00039,001,2026-01-17_11h27.57.476,MST_task,2024.2.0,59.791304435868895,2026-01-17 11h28.50.739949 +0530,
10,practice_images/182a.jpg,6,6,1,f,1.6590894000255503,0.14350110001396388,None,,,,,,,1,6,6,,,,931.2493826000136,,,,,,,,,,,,,,,,,,,,,,,931.2343805000419,931.2493826000136,931.7346307000262,931.7428289999953,931.7504933000309,931.7504933000309,931.7504933000309,934.7448900000309,f,1.6590894000255503,0.14350110001396388,934.7449523000396,934.7449654000229,None,931.7504933000309,,,,,,,,,,,,,,,,,,,,,,,,,,,,,,,,,00039,001,2026-01-17_11h27.57.476,MST_task,2024.2.0,59.791304435868895,2026-01-17 11h28.50.739949 +0530,
4,practice_images/002b.jpg,7,7,1,j,1.89855359995272,0.12034380005206913,None,,,,,,,1,7,7,,,,934.7616932000383,,,,,,,,,,,,,,,,,,,,,,,934.7450320000062,934.7616932000383,935.246682099998,935.2550547000137,935.2629212000174,935.2629212000174,935.2629212000174,938.2572352000279,j,1.89855359995272,0.12034380005206913,938.2572715000133,938.2572884000256,None,,,,,,,,,,,,,,,,,,,,,,,,,,,,,,,,,,00039,001,2026-01-17_11h27.57.476,MST_task,2024.2.0,59.791304435868895,2026-01-17 11h28.50.739949 +0530,
6,practice_images/158a.jpg,8,8,1,j,2.209010099992156,0.11172380001517013,None,,,,,,,1,8,8,,,,938.2740140000242,,,,,,,,,,,,,,,,,,,,,,,938.2573610999971,938.2740140000242,938.7593426000094,938.7675170000293,938.7924639999983,938.7924639999983,938.7924639999983,941.7695884000277,j,2.209010099992156,0.11172380001517013,941.7696247000131,941.769647100009,None,,,,,,,,,,,,,,,,,,,,,,,,,,,,,,,,,,00039,001,2026-01-17_11h27.57.476,MST_task,2024.2.0,59.791304435868895,2026-01-17 11h28.50.739949 +0530,
2,practice_images/031a.jpg,9,9,1,f,2.360305799986236,0.1770383999682963,None,,,,,,,1,9,9,,,,941.7862917000311,,,,,,,,,,,,,,,,,,,,,,,941.7697153000045,941.7862917000311,942.2713717000443,942.280148299993,942.3046837000293,942.3046837000293,942.3046837000293,945.2817424000241,f,2.360305799986236,0.1770383999682963,945.2817840999924,945.2817965000286,None,,,,,,,,,,,,,,,,,,,,,,,,,,,,,,,,,,00039,001,2026-01-17_11h27.57.476,MST_task,2024.2.0,59.791304435868895,2026-01-17 11h28.50.739949 +0530,
,,,,,,,,,,,,,,,,,,,,,,,,,,,,,,,,,,,,,,,,,,,,,,,,,,,,,,,,,,,945.2818421000266,945.2983081000275,945.2983081000275,971.975775400002,space,26.670897700008936,None,,,,,,,,,,,,,,,,,,,,,,,,,,00039,001,2026-01-17_11h27.57.476,MST_task,2024.2.0,59.791304435868895,2026-01-17 11h28.50.739949 +0530,
,Objects\353a.jpg,0,0,1,,,,,f,1.331080700038001,0.11188649997347966,None,,,,,,1,0,0,971.9917932000244,,,,,,,,,,,,,,,,,,,,,,,971.9764223000384,971.9917932000244,972.4769783000229,,,,,,,,,,,,,,,,,,,,972.5014585000463,972.5104935000418,972.5104935000418,972.5104935000418,975.4871791000478,shoe,f,1.331080700038001,0.11188649997347966,975.489107500005,975.4891266000341,None,,,,,,,,,,,,,,00039,001,2026-01-17_11h27.57.476,MST_task,2024.2.0,59.791304435868895,2026-01-17 11h28.50.739949 +0530,
,Objects\329a.jpg,1,0,2,,,,,f,1.8594920000177808,0.11976539995521307,None,,,,,,2,0,1,975.5037729000323,,,,,,,,,,,,,,,,,,,,,,,975.4891976999934,975.5037729000323,975.9892643000348,,,,,,,,,,,,976.0222308000084,,,,,,,,976.0057085000444,976.0222308000084,976.0222308000084,976.0222308000084,978.9993909000186,shoe,f,1.8594920000177808,0.11976539995521307,978.9996160000446,978.9996388000436,None,,,,,,,,,,,,,,00039,001,2026-01-17_11h27.57.476,MST_task,2024.2.0,59.791304435868895,2026-01-17 11h28.50.739949 +0530,
,Objects\331a.jpg,2,0,3,,,,,j,1.9000559999840334,0.12628709996351972,None,,,,,,3,0,2,979.0162275000475,,,,,,,,,,,,,,,,,,,,,,,978.9997607000405,979.0162275000475,979.5011402000091,,,,,,,,,,,,,,,,,,,,979.5175667000003,979.5346255000331,979.5346255000331,979.5346255000331,982.511971400003,shoe,j,1.9000559999840334,0.12628709996351972,982.5120130000287,982.5120251000044,None,,,,,,,,,,,,,,00039,001,2026-01-17_11h27.57.476,MST_task,2024.2.0,59.791304435868895,2026-01-17 11h28.50.739949 +0530,
,Objects\383a.jpg,3,0,4,,,,,f,1.9231322999694385,0.20688240003073588,None,,,,,,4,0,3,982.5283814000431,,,,,,,,,,,,,,,,,,,,,,,982.5120936000021,982.5283814000431,983.0135700000101,,,,,,,,,,,,,,,,,,,,983.0286067000125,983.0468983000028,983.0468983000028,983.0468983000028,986.0239532000269,shoe,f,1.9231322999694385,0.20688240003073588,986.0240006000386,986.0240126000135,None,,,,,,,,,,,,,,00039,001,2026-01-17_11h27.57.476,MST_task,2024.2.0,59.791304435868895,2026-01-17 11h28.50.739949 +0530,
,Objects\352a.jpg,4,0,5,,,,,f,1.3545658999937586,0.175668100011535,None,,,,,,5,0,4,986.0407877000398,,,,,,,,,,,,,,,,,,,,,,,986.0240811000112,986.0407877000398,986.5257453999948,,,,,,,,,,,,,,,,,,,,986.540205700032,986.5592249000329,986.5592249000329,986.5592249000329,989.5366697999998,shoe,f,1.3545658999937586,0.175668100011535,989.5367259000195,989.5367428000318,None,,,,,,,,,,,,,,00039,001,2026-01-17_11h27.57.476,MST_task,2024.2.0,59.791304435868895,2026-01-17 11h28.50.739949 +0530,
,Objects\069a.jpg,5,0,6,,,,,j,1.448848000029102,0.12000019999686629,None,,,,,,6,0,5,989.5529880000395,,,,,,,,,,,,,,,,,,,,,,,989.5368337000255,989.5529880000395,990.0382728000404,,,,,,,,,,,,,,,,,,,,990.056060700037,990.0723598999903,990.0723598999903,990.0723598999903,993.0485953000025,shoe,j,1.448848000029102,0.12000019999686629,993.0486524000298,993.0486648000078,None,,,,,,,,,,,,,,00039,001,2026-01-17_11h27.57.476,MST_task,2024.2.0,59.791304435868895,2026-01-17 11h28.50.739949 +0530,
,Objects\384a.jpg,6,0,7,,,,,f,1.3218587000155821,0.13609420001739636,None,,,,,,7,0,6,993.0653981000069,,,,,,,,,,,,,,,,,,,,,,,993.04877210001,993.0653981000069,993.5504206999904,,,,,,,,,,,,,,,,,,,,993.5612266000244,993.5839353000047,993.5839353000047,993.5839353000047,996.5609986000345,shoe,f,1.3218587000155821,0.13609420001739636,996.5610504000215,996.561062599998,None,,,,,,,,,,,,,,00039,001,2026-01-17_11h27.57.476,MST_task,2024.2.0,59.791304435868895,2026-01-17 11h28.50.739949 +0530,
,Objects\256a.jpg,7,0,8,,,,,f,2.464509099954739,0.13618090003728867,None,,,,,,8,0,7,996.5777283000061,,,,,,,,,,,,,,,,,,,,,,,996.5611312999972,996.5777283000061,997.0627772000153,,,,,,,,,,,,,,,,,,,,997.0802094000392,997.097017800028,997.097017800028,997.097017800028,1000.07329140004,indoor,f,2.464509099954739,0.13618090003728867,1000.0746153999935,1000.0746331000119,None,,,,,,,,,,,,,,00039,001,2026-01-17_11h27.57.476,MST_task,2024.2.0,59.791304435868895,2026-01-17 11h28.50.739949 +0530,
,Objects\070a.jpg,8,0,9,,,,,f,1.3932650999631733,0.1359791000140831,None,,,,,,9,0,8,1000.0898642000393,,,,,,,,,,,,,,,,,,,,,,,1000.0747012000065,1000.0898642000393,1000.5750631000265,,,,,,,,,,,,,,,,,,,,1000.5900188999949,1000.6083014000324,1000.6083014000324,1000.6083014000324,1003.585475000029,indoor,f,1.3932650999631733,0.1359791000140831,1003.5855173000018,1003.5855291000335,None,,,,,,,,,,,,,,00039,001,2026-01-17_11h27.57.476,MST_task,2024.2.0,59.791304435868895,2026-01-17 11h28.50.739949 +0530,
,Objects\342a.jpg,9,0,10,,,,,f,1.6244557999889366,0.1681381000089459,None,,,,,,10,0,9,1003.602293700038,,,,,,,,,,,,,,,,,,,,,,,1003.5856131000328,1003.602293700038,1004.088046000048,,,,,,,,,,,,,,,,,,,,1004.0971281999955,1004.1208504000097,1004.1208504000097,1004.1208504000097,1007.0979120000266,indoor,f,1.6244557999889366,0.1681381000089459,1007.0979689999949,1007.0979811000288,None,,,,,,,,,,,,,,00039,001,2026-01-17_11h27.57.476,MST_task,2024.2.0,59.791304435868895,2026-01-17 11h28.50.739949 +0530,
,Objects\010a.jpg,10,0,11,,,,,f,0.9294728999957442,0.15045719995396212,None,,,,,,11,0,10,1007.1145871999906,,,,,,,,,,,,,,,,,,,,,,,1007.0980540000019,1007.1145871999906,1007.5995470000198,,,,,,,,,,,,,,,,,,,,1007.6100650000153,1007.6330357000115,1007.6330357000115,1007.6330357000115,1010.6101989000454,indoor,f,0.9294728999957442,0.15045719995396212,1010.6102423000266,1010.6102541,None,,,,,,,,,,,,,,00039,001,2026-01-17_11h27.57.476,MST_task,2024.2.0,59.791304435868895,2026-01-17 11h28.50.739949 +0530,
,Objects\057a.jpg,11,0,12,,,,,f,1.3593610000098124,0.17614890000550076,None,,,,,,12,0,11,1010.626785600034,,,,,,,,,,,,,,,,,,,,,,,1010.6103662000387,1010.626785600034,1011.112419800018,,,,,,,,,,,,,,,,,,,,1011.1227243000176,1011.1456212000339,1011.1456212000339,1011.1456212000339,1014.1223748000339,indoor,f,1.3593610000098124,0.17614890000550076,1014.122425300011,1014.1224378999905,None,,,,,,,,,,,,,,00039,001,2026-01-17_11h27.57.476,MST_task,2024.2.0,59.791304435868895,2026-01-17 11h28.50.739949 +0530,
,Objects\243a.jpg,12,0,13,,,,,f,2.448204500018619,0.16018740000436082,None,,,,,,13,0,12,1014.1394619999919,,,,,,,,,,,,,,,,,,,,,,,1014.1229454000131,1014.1394619999919,1014.6243220000179,,,,,,,,,,,,,,,,,,,,1014.641016300011,1014.6576401999919,1014.6576401999919,1014.6576401999919,1017.6348200000357,indoor,f,2.448204500018619,0.16018740000436082,1017.6348625000101,1017.6348738000379,None,,,,,,,,,,,,,,00039,001,2026-01-17_11h27.57.476,MST_task,2024.2.0,59.791304435868895,2026-01-17 11h28.50.739949 +0530,
,Objects\364a.jpg,13,0,14,,,,,j,1.2315053999773227,0.15200000000186265,None,,,,,,14,0,13,1017.6513571999967,,,,,,,,,,,,,,,,,,,,,,,1017.6349407000234,1017.6513571999967,1018.1367249000468,,,,,,,,,,,,,,,,,,,,1018.1504119000165,1018.1699344000081,1018.1699344000081,1018.1699344000081,1021.1472218999988,indoor,j,1.2315053999773227,0.15200000000186265,1021.1472713000257,1021.1472838000045,None,,,,,,,,,,,,,,00039,001,2026-01-17_11h27.57.476,MST_task,2024.2.0,59.791304435868895,2026-01-17 11h28.50.739949 +0530,
,Objects\228a.jpg,14,0,15,,,,,j,2.327486800029874,0.13699869997799397,None,,,,,,15,0,14,1021.1639033000101,,,,,,,,,,,,,,,,,,,,,,,1021.1473613000126,1021.1639033000101,1021.6489100000472,,,,,,,,,,,,,,,,,,,,1021.6668087000144,1021.6822238000459,1021.6822238000459,1021.6822238000459,1024.6593634000164,shoe,j,2.327486800029874,0.13699869997799397,1024.6607911000028,1024.6608067000052,None,,,,,,,,,,,,,,00039,001,2026-01-17_11h27.57.476,MST_task,2024.2.0,59.791304435868895,2026-01-17 11h28.50.739949 +0530,
,Objects\307a.jpg,15,0,16,,,,,j,2.671000999980606,0.16763370000990108,None,,,,,,16,0,15,1024.6759620000375,,,,,,,,,,,,,,,,,,,,,,,1024.6608749000006,1024.6759620000375,1025.161193100037,,,,,,,,,,,,,,,,,,,,1025.1705779000185,1025.19439650001,1025.19439650001,1025.19439650001,1028.171567500045,shoe,j,2.671000999980606,0.16763370000990108,1028.171613100043,1028.171625900024,None,,,,,,,,,,,,,,00039,001,2026-01-17_11h27.57.476,MST_task,2024.2.0,59.791304435868895,2026-01-17 11h28.50.739949 +0530,
,Objects\302a.jpg,16,0,17,,,,,f,1.8864809999940917,0.16752410004846752,None,,,,,,17,0,16,1028.1884015999967,,,,,,,,,,,,,,,,,,,,,,,1028.1718640000327,1028.1884015999967,1028.6733590000076,,,,,,,,,,,,,,,,,,,,1028.6883559999987,1028.7068289000308,1028.7068289000308,1028.7068289000308,1031.6839679999975,shoe,f,1.8864809999940917,0.16752410004846752,1031.684011000034,1031.6840226000058,None,,,,,,,,,,,,,,00039,001,2026-01-17_11h27.57.476,MST_task,2024.2.0,59.791304435868895,2026-01-17 11h28.50.739949 +0530,
,Objects\338a.jpg,17,0,18,,,,,f,1.5113724999828264,0.1427356000058353,None,,,,,,18,0,17,1031.7006855999934,,,,,,,,,,,,,,,,,,,,,,,1031.684091300005,1031.7006855999934,1032.1858646000037,,,,,,,,,,,,,,,,,,,,1032.1996836000471,1032.2191121000214,1032.2191121000214,1032.2191121000214,1035.196158100036,shoe,f,1.5113724999828264,0.1427356000058353,1035.1962370999972,1035.1962521999958,None,,,,,,,,,,,,,,00039,001,2026-01-17_11h27.57.476,MST_task,2024.2.0,59.791304435868895,2026-01-17 11h28.50.739949 +0530,
,Objects\129a.jpg,18,0,19,,,,,f,1.5663456000038423,0.15182369999820367,None,,,,,,19,0,18,1035.2129786000005,,,,,,,,,,,,,,,,,,,,,,,1035.196585800033,1035.2129786000005,1035.6979628000408,,,,,,,,,,,,,,,,,,,,1035.7128729000106,1035.7314154999913,1035.7314154999913,1035.7314154999913,1038.7086040000431,shoe,f,1.5663456000038423,0.15182369999820367,1038.7086483000312,1038.7086889999919,None,,,,,,,,,,,,,,00039,001,2026-01-17_11h27.57.476,MST_task,2024.2.0,59.791304435868895,2026-01-17 11h28.50.739949 +0530,
,Objects\182a.jpg,19,0,20,,,,,f,1.27750579995336,0.15121560002444312,None,,,,,,20,0,19,1038.7251573000103,,,,,,,,,,,,,,,,,,,,,,,1038.7088011000305,1038.7251573000103,1039.211599500035,,,,,,,,,,,,,,,,,,,,1039.2211727999966,1039.2444238000317,1039.2444238000317,1039.2444238000317,1042.2208540000138,shoe,f,1.27750579995336,0.15121560002444312,1042.2208968999912,1042.2209093000274,None,,,,,,,,,,,,,,00039,001,2026-01-17_11h27.57.476,MST_task,2024.2.0,59.791304435868895,2026-01-17 11h28.50.739949 +0530,
,Objects\285a.jpg,20,0,21,,,,,f,1.6375657999888062,0.13539740000851452,None,,,,,,21,0,20,1042.2374626999954,,,,,,,,,,,,,,,,,,,,,,,1042.2209773000213,1042.2374626999954,1042.7226583000156,,,,,,,,,,,,,,,,,,,,1042.7326196000213,1042.755906800041,1042.755906800041,1042.755906800041,1045.7330445999978,shoe,f,1.6375657999888062,0.13539740000851452,1045.7331263000378,1045.7331412000349,None,,,,,,,,,,,,,,00039,001,2026-01-17_11h27.57.476,MST_task,2024.2.0,59.791304435868895,2026-01-17 11h28.50.739949 +0530,
,Objects\015a.jpg,21,0,22,,,,,f,1.9502396000316367,0.1666183999623172,None,,,,,,22,0,21,1045.7498854000005,,,,,,,,,,,,,,,,,,,,,,,1045.7332109000417,1045.7498854000005,1046.2348682000302,,,,,,,,,,,,,,,,,,,,1046.2460857999977,1046.2683132000384,1046.2683132000384,1046.2683132000384,1049.2454759000102,indoor,f,1.9502396000316367,0.1666183999623172,1049.2470902000205,1049.247109799995,None,,,,,,,,,,,,,,00039,001,2026-01-17_11h27.57.476,MST_task,2024.2.0,59.791304435868895,2026-01-17 11h28.50.739949 +0530,
,Objects\140a.jpg,22,0,23,,,,,f,2.2527247999678366,0.16057750000618398,None,,,,,,23,0,22,1049.262067200034,,,,,,,,,,,,,,,,,,,,,,,1049.2471808000118,1049.262067200034,1049.7473785000038,,,,,,,,,,,,,,,,,,,,1049.7567368000164,1049.7805039000232,1049.7805039000232,1049.7805039000232,1052.7576628000243,indoor,f,2.2527247999678366,0.16057750000618398,1052.7577080000192,1052.7577208000002,None,,,,,,,,,,,,,,00039,001,2026-01-17_11h27.57.476,MST_task,2024.2.0,59.791304435868895,2026-01-17 11h28.50.739949 +0530,
,Objects\227a.jpg,23,0,24,,,,,f,1.8838883999851532,0.130202200030908,None,,,,,,24,0,23,1052.7744678000454,,,,,,,,,,,,,,,,,,,,,,,1052.7580585000105,1052.7744678000454,1053.2594310000422,,,,,,,,,,,,,,,,,,,,1053.2725662000012,1053.292907199997,1053.292907199997,1053.292907199997,1056.2700714000384,indoor,f,1.8838883999851532,0.130202200030908,1056.2701215000125,1056.270153200021,None,,,,,,,,,,,,,,00039,001,2026-01-17_11h27.57.476,MST_task,2024.2.0,59.791304435868895,2026-01-17 11h28.50.739949 +0530,
,Objects\172a.jpg,24,0,25,,,,,j,0.8915770000312477,0.1454463999834843,None,,,,,,25,0,24,1056.286656500015,,,,,,,,,,,,,,,,,,,,,,,1056.2702329000458,1056.286656500015,1056.7718648000155,,,,,,,,,,,,,,,,,,,,1056.7813410999952,1056.8052431000397,1056.8052431000397,1056.8052431000397,1059.782248100033,indoor,j,0.8915770000312477,0.1454463999834843,1059.7822907000082,1059.7823023000383,None,,,,,,,,,,,,,,00039,001,2026-01-17_11h27.57.476,MST_task,2024.2.0,59.791304435868895,2026-01-17 11h28.50.739949 +0530,
,Objects\054a.jpg,25,0,26,,,,,f,2.1958592000300996,0.17595159995835274,None,,,,,,26,0,25,1059.7990876000258,,,,,,,,,,,,,,,,,,,,,,,1059.7824021000415,1059.7990876000258,1060.2840414000093,,,,,,,,,,,,,,,,,,,,1060.2937697000452,1060.3175071000005,1060.3175071000005,1060.3175071000005,1063.29465180001,indoor,f,2.1958592000300996,0.17595159995835274,1063.2946943000425,1063.2947063000174,None,,,,,,,,,,,,,,00039,001,2026-01-17_11h27.57.476,MST_task,2024.2.0,59.791304435868895,2026-01-17 11h28.50.739949 +0530,
,Objects\348a.jpg,26,0,27,,,,,f,1.411903100030031,0.12007189996074885,None,,,,,,27,0,26,1063.31137390004,,,,,,,,,,,,,,,,,,,,,,,1063.2947762000258,1063.31137390004,1063.7964921999956,,,,,,,,,,,,,,,,,,,,1063.8128116000444,1063.829690899991,1063.829690899991,1063.829690899991,1066.8068409000407,indoor,f,1.411903100030031,0.12007189996074885,1066.8068841000204,1066.806897100003,None,,,,,,,,,,,,,,00039,001,2026-01-17_11h27.57.476,MST_task,2024.2.0,59.791304435868895,2026-01-17 11h28.50.739949 +0530,
,Objects\016a.jpg,27,0,28,,,,,f,1.0204593000235036,0.14353970001684502,None,,,,,,28,0,27,1066.8237363999942,,,,,,,,,,,,,,,,,,,,,,,1066.806965900003,1066.8237363999942,1067.3093603000161,,,,,,,,,,,,,,,,,,,,1067.3270545999985,1067.341982300044,1067.341982300044,1067.341982300044,1070.3193224000279,indoor,f,1.0204593000235036,0.14353970001684502,1070.3193661000114,1070.3193781000446,None,,,,,,,,,,,,,,00039,001,2026-01-17_11h27.57.476,MST_task,2024.2.0,59.791304435868895,2026-01-17 11h28.50.739949 +0530,
,Objects\196a.jpg,28,0,29,,,,,f,1.6988221000065096,0.14429590001236647,None,,,,,,29,0,28,1070.335847200011,,,,,,,,,,,,,,,,,,,,,,,1070.3194575000089,1070.335847200011,1070.821084700001,,,,,,,,,,,,,,,,,,,,1070.8328237000387,1070.8542822000454,1070.8542822000454,1070.8542822000454,1073.8315970000112,shoe,f,1.6988221000065096,0.14429590001236647,1073.8330057000276,1073.8330243999953,None,,,,,,,,,,,,,,00039,001,2026-01-17_11h27.57.476,MST_task,2024.2.0,59.791304435868895,2026-01-17 11h28.50.739949 +0530,
,Objects\379a.jpg,29,0,30,,,,,j,1.1949865999631584,0.11113440000917763,None,,,,,,30,0,29,1073.8482762000058,,,,,,,,,,,,,,,,,,,,,,,1073.8330949000083,1073.8482762000058,1074.33327860001,,,,,,,,,,,,,,,,,,,,1074.3427496000077,1074.36670090002,1074.36670090002,1074.36670090002,1077.3437494999962,shoe,j,1.1949865999631584,0.11113440000917763,1077.3437935000402,1077.3438053000136,None,,,,,,,,,,,,,,00039,001,2026-01-17_11h27.57.476,MST_task,2024.2.0,59.791304435868895,2026-01-17 11h28.50.739949 +0530,
,Objects\305a.jpg,30,0,31,,,,,None,,,f,1.064531399984844,None,,,,31,0,30,1077.360561700014,,,,,,,,,,,,,,,,,,,,,,,1077.343933600001,1077.360561700014,1077.8455249000108,,,,,,,,,,,,,,,,,,,,1077.8565558000118,1077.8790088000242,1077.8790088000242,1077.8790088000242,1080.8561630999902,shoe,None,,,1080.8562015999923,1081.9437411000254,f,1080.8728342000395,1080.8728342000395,1.064531399984844,None,,,,,,,,,,00039,001,2026-01-17_11h27.57.476,MST_task,2024.2.0,59.791304435868895,2026-01-17 11h28.50.739949 +0530,
,Objects\168a.jpg,31,0,32,,,,,None,,,j,0.47358589997747913,None,,,,32,0,31,1081.9599997000187,,,,,,,,,,,,,,,,,,,,,,,1081.9438305000076,1081.9599997000187,1082.4449595999904,,,,,,,,,,,,,,,,,,,,1082.4544813000248,1082.4784565000446,1082.4784565000446,1082.4784565000446,1085.4557447000407,shoe,None,,,1085.4557849999983,1085.9579605000326,j,1085.4723433000036,1085.4723433000036,0.47358589997747913,None,,,,,,,,,,00039,001,2026-01-17_11h27.57.476,MST_task,2024.2.0,59.791304435868895,2026-01-17 11h28.50.739949 +0530,
,Objects\149a.jpg,32,0,33,,,,,j,1.012816600035876,0.1364035999868065,None,,,,,,33,0,32,1085.9740908000385,,,,,,,,,,,,,,,,,,,,,,,1085.9581128000282,1085.9740908000385,1086.4592579000164,,,,,,,,,,,,,,,,,,,,1086.4692431000294,1086.4923896000255,1086.4923896000255,1086.4923896000255,1089.4697930000257,shoe,j,1.012816600035876,0.1364035999868065,1089.4698361000046,1089.4698490000446,None,,,,,,,,,,,,,,00039,001,2026-01-17_11h27.57.476,MST_task,2024.2.0,59.791304435868895,2026-01-17 11h28.50.739949 +0530,
,Objects\194a.jpg,33,0,34,,,,,f,1.2285536999697797,0.15130830003181472,None,,,,,,34,0,33,1089.4864747000393,,,,,,,,,,,,,,,,,,,,,,,1089.47045600001,1089.4864747000393,1089.9713788999943,,,,,,,,,,,,,,,,,,,,1089.9878144999966,1090.0049246000126,1090.0049246000126,1090.0049246000126,1092.982050599996,shoe,f,1.2285536999697797,0.15130830003181472,1092.9820926000248,1092.9821050000028,None,,,,,,,,,,,,,,00039,001,2026-01-17_11h27.57.476,MST_task,2024.2.0,59.791304435868895,2026-01-17 11h28.50.739949 +0530,
,Objects\153a.jpg,34,0,35,,,,,f,1.43653159996029,0.1594899000483565,None,,,,,,35,0,34,1092.9986175000085,,,,,,,,,,,,,,,,,,,,,,,1092.9821744000074,1092.9986175000085,1093.4841924000066,,,,,,,,,,,,,,,,,,,,1093.4997972000274,1093.5169941000058,1093.5169941000058,1093.5169941000058,1096.494189399993,shoe,f,1.43653159996029,0.1594899000483565,1096.4942350999918,1096.494247100025,None,,,,,,,,,,,,,,00039,001,2026-01-17_11h27.57.476,MST_task,2024.2.0,59.791304435868895,2026-01-17 11h28.50.739949 +0530,
,Objects\065a.jpg,35,0,36,,,,,j,2.1162795000127517,0.15120869997190312,None,,,,,,36,0,35,1096.511072800029,,,,,,,,,,,,,,,,,,,,,,,1096.4944730999996,1096.511072800029,1096.995981200016,,,,,,,,,,,,,,,,,,,,1097.0069258000003,1097.0294068999938,1097.0294068999938,1097.0294068999938,1100.0075751999975,indoor,j,2.1162795000127517,0.15120869997190312,1100.0090343000484,1100.0090532000177,None,,,,,,,,,,,,,,00039,001,2026-01-17_11h27.57.476,MST_task,2024.2.0,59.791304435868895,2026-01-17 11h28.50.739949 +0530,
,Objects\066a.jpg,36,0,37,,,,,f,2.1160636999993585,0.11931380000896752,None,,,,,,37,0,36,1100.023359999992,,,,,,,,,,,,,,,,,,,,,,,1100.0091241000337,1100.023359999992,1100.5087400000193,,,,,,,,,,,,1100.5415753000416,,,,,,,,1100.5187309000175,1100.5415753000416,1100.5415753000416,1100.5415753000416,1103.519139800046,indoor,f,2.1160636999993585,0.11931380000896752,1103.5191892000148,1103.5192058000248,None,,,,,,,,,,,,,,00039,001,2026-01-17_11h27.57.476,MST_task,2024.2.0,59.791304435868895,2026-01-17 11h28.50.739949 +0530,
,Objects\380a.jpg,37,0,38,,,,,None,,,f,2.2421714999945834,None,,,,38,0,37,1103.5355658000335,,,,,,,,,,,,,,,,,,,,,,,1103.519273700018,1103.5355658000335,1104.0205277000205,,,,,,,,,,,,,,,,,,,,1104.0299126000027,1104.054009900021,1104.054009900021,1104.054009900021,1107.031215200026,indoor,None,,,1107.031329200021,1109.306714700011,f,1107.0477660000324,1107.0477660000324,2.2421714999945834,None,,,,,,,,,,00039,001,2026-01-17_11h27.57.476,MST_task,2024.2.0,59.791304435868895,2026-01-17 11h28.50.739949 +0530,
,Objects\336a.jpg,38,0,39,,,,,f,1.1361969000427052,0.16018790000816807,None,,,,,,39,0,38,1109.322680100042,,,,,,,,,,,,,,,,,,,,,,,1109.3068036000477,1109.322680100042,1109.8080627000309,,,,,,,,,,,,,,,,,,,,1109.8241541000316,1109.841148800042,1109.841148800042,1109.841148800042,1112.8184159999946,indoor,f,1.1361969000427052,0.16018790000816807,1112.8184591000318,1112.8184711000067,None,,,,,,,,,,,,,,00039,001,2026-01-17_11h27.57.476,MST_task,2024.2.0,59.791304435868895,2026-01-17 11h28.50.739949 +0530,
,Objects\162a.jpg,39,0,40,,,,,f,0.9358673999668099,0.1201230000006035,None,,,,,,40,0,39,1112.8349875000422,,,,,,,,,,,,,,,,,,,,,,,1112.8185418000212,1112.8349875000422,1113.32017250004,,,,,,,,,,,,,,,,,,,,1113.3356650000205,1113.3534605000168,1113.3534605000168,1113.3534605000168,1116.3305894000223,indoor,f,0.9358673999668099,0.1201230000006035,1116.3306456000428,1116.3306697999942,None,,,,,,,,,,,,,,00039,001,2026-01-17_11h27.57.476,MST_task,2024.2.0,59.791304435868895,2026-01-17 11h28.50.739949 +0530,
,Objects\142a.jpg,40,0,41,,,,,f,0.7196621000184678,0.15145329997176304,None,,,,,,41,0,40,1116.3473847000278,,,,,,,,,,,,,,,,,,,,,,,1116.3309111000272,1116.3473847000278,1116.8323980999994,,,,,,,,,,,,,,,,,,,,1116.8417959000217,1116.8658710000454,1116.8658710000454,1116.8658710000454,1119.8430121000274,indoor,f,0.7196621000184678,0.15145329997176304,1119.8433163000154,1119.8433319000178,None,,,,,,,,,,,,,,00039,001,2026-01-17_11h27.57.476,MST_task,2024.2.0,59.791304435868895,2026-01-17 11h28.50.739949 +0530,
,Objects\117a.jpg,41,0,42,,,,,f,1.815099100000225,0.1597312000230886,None,,,,,,42,0,41,1119.8595739000011,,,,,,,,,,,,,,,,,,,,,,,1119.8434052999946,1119.8595739000011,1120.3449560000445,,,,,,,,,,,,,,,,,,,,1120.3542478000163,1120.378049699997,1120.378049699997,1120.378049699997,1123.355183000036,indoor,f,1.815099100000225,0.1597312000230886,1123.3552246000036,1123.3552362000337,None,,,,,,,,,,,,,,00039,001,2026-01-17_11h27.57.476,MST_task,2024.2.0,59.791304435868895,2026-01-17 11h28.50.739949 +0530,
,Objects\311a.jpg,42,0,43,,,,,j,2.93519180000294,None,None,,,,,,43,0,42,1123.3719899000134,,,,,,,,,,,,,,,,,,,,,,,1123.3553299999912,1123.3719899000134,1123.8569965999923,,,,,,,,,,,,,,,,,,,,1123.8678481000243,1123.8905863999971,1123.8905863999971,1123.8905863999971,1126.8675965000293,shoe,j,2.93519180000294,None,1126.8691123000463,1126.869130600011,None,,,,,,,,,,,,,,00039,001,2026-01-17_11h27.57.476,MST_task,2024.2.0,59.791304435868895,2026-01-17 11h28.50.739949 +0530,
,Objects\341a.jpg,43,0,44,,,,,j,2.5116588000091724,0.13465220003854483,None,,,,,,44,0,43,1126.8842913000262,,,,,,,,,,,,,,,,,,,,,,,1126.8691985000041,1126.8842913000262,1127.3695439000148,,,,,,,,,,,,,,,,,,,,1127.3812461000052,1127.4026534000295,1127.4026534000295,1127.4026534000295,1130.3803607000154,shoe,j,2.5116588000091724,0.13465220003854483,1130.3804085000302,1130.3804207000067,None,,,,,,,,,,,,,,00039,001,2026-01-17_11h27.57.476,MST_task,2024.2.0,59.791304435868895,2026-01-17 11h28.50.739949 +0530,
,Objects\166a.jpg,44,0,45,,,,,f,2.774472099961713,0.16045309999026358,None,,,,,,45,0,44,1130.396321600012,,,,,,,,,,,,,,,,,,,,,,,1130.380489400006,1130.396321600012,1130.881592700025,,,,,,,,,,,,,,,,,,,,1130.8928681000252,1130.9147278000019,1130.9147278000019,1130.9147278000019,1133.8919155000476,shoe,f,2.774472099961713,0.16045309999026358,1133.8919575000182,1133.891968800046,None,,,,,,,,,,,,,,00039,001,2026-01-17_11h27.57.476,MST_task,2024.2.0,59.791304435868895,2026-01-17 11h28.50.739949 +0530,
,Objects\008a.jpg,45,0,46,,,,,f,1.4385920999920927,0.14379469997948036,None,,,,,,46,0,45,1133.9087558000465,,,,,,,,,,,,,,,,,,,,,,,1133.8920785000082,1133.9087558000465,1134.3937273000483,,,,,,,,,,,,,,,,,,,,1134.4032932000118,1134.4271970000118,1134.4271970000118,1134.4271970000118,1137.4041912000393,shoe,f,1.4385920999920927,0.14379469997948036,1137.4042372000404,1137.404248900013,None,,,,,,,,,,,,,,00039,001,2026-01-17_11h27.57.476,MST_task,2024.2.0,59.791304435868895,2026-01-17 11h28.50.739949 +0530,
,Objects\373a.jpg,46,0,47,,,,,j,1.1582078999490477,0.13626050000311807,None,,,,,,47,0,46,1137.420758799999,,,,,,,,,,,,,,,,,,,,,,,1137.4043589000357,1137.420758799999,1137.9060632000328,,,,,,,,,,,,,,,,,,,,1137.9202580000274,1137.9391931000282,1137.9391931000282,1137.9391931000282,1140.916496800026,shoe,j,1.1582078999490477,0.13626050000311807,1140.9165447000414,1140.916556900018,None,,,,,,,,,,,,,,00039,001,2026-01-17_11h27.57.476,MST_task,2024.2.0,59.791304435868895,2026-01-17 11h28.50.739949 +0530,
,Objects\226a.jpg,47,0,48,,,,,f,1.1188155999989249,0.14352189999772236,None,,,,,,48,0,47,1140.9339278000407,,,,,,,,,,,,,,,,,,,,,,,1140.9166709000128,1140.9339278000407,1141.4181251000264,,,,,,,,,,,,,,,,,,,,1141.4325080999988,1141.4516109999968,1141.4516109999968,1141.4516109999968,1144.4287550000008,shoe,f,1.1188155999989249,0.14352189999772236,1144.4289700000081,1144.4289830999915,None,,,,,,,,,,,,,,00039,001,2026-01-17_11h27.57.476,MST_task,2024.2.0,59.791304435868895,2026-01-17 11h28.50.739949 +0530,
,Objects\334a.jpg,48,0,49,,,,,j,2.061636600003112,0.11913400003686547,None,,,,,,49,0,48,1144.445354400028,,,,,,,,,,,,,,,,,,,,,,,1144.429056700028,1144.445354400028,1144.9305805000477,,,,,,,,,,,,,,,,,,,,1144.9448816000368,1144.964013800025,1144.964013800025,1144.964013800025,1147.9410435000318,shoe,j,2.061636600003112,0.11913400003686547,1147.9412579000345,1147.9412711000186,None,,,,,,,,,,,,,,00039,001,2026-01-17_11h27.57.476,MST_task,2024.2.0,59.791304435868895,2026-01-17 11h28.50.739949 +0530,
,Objects\356a.jpg,49,0,50,,,,,f,2.8937373000080697,None,None,,,,,,50,0,49,1147.957659000007,,,,,,,,,,,,,,,,,,,,,,,1147.9413412000285,1147.957659000007,1148.442880699993,,,,,,,,,,,,,,,,,,,,1148.458089200023,1148.4760968000046,1148.4760968000046,1148.4760968000046,1151.4532704000012,indoor,f,2.8937373000080697,None,1151.4549386000144,1151.4549619000172,None,,,,,,,,,,,,,,00039,001,2026-01-17_11h27.57.476,MST_task,2024.2.0,59.791304435868895,2026-01-17 11h28.50.739949 +0530,
,Objects\287a.jpg,50,0,51,,,,,f,2.3405780000030063,0.105230399989523,None,,,,,,51,0,50,1151.4700788000482,,,,,,,,,,,,,,,,,,,,,,,1151.455048200034,1151.4700788000482,1151.9550790000358,,,,,,,,,,,,,,,,,,,,1151.969203900022,1151.9885150000337,1151.9885150000337,1151.9885150000337,1154.9656488000182,indoor,f,2.3405780000030063,0.105230399989523,1154.9657138000475,1154.9657267000293,None,,,,,,,,,,,,,,00039,001,2026-01-17_11h27.57.476,MST_task,2024.2.0,59.791304435868895,2026-01-17 11h28.50.739949 +0530,
,Objects\273a.jpg,51,0,52,,,,,f,2.276656500005629,0.1196506000123918,None,,,,,,52,0,51,1154.9822586000082,,,,,,,,,,,,,,,,,,,,,,,1154.9657966000377,1154.9822586000082,1155.4675958000007,,,,,,,,,,,,,,,,,,,,1155.4814506000257,1155.5008231000393,1155.5008231000393,1155.5008231000393,1158.4775454000337,indoor,f,2.276656500005629,0.1196506000123918,1158.4776003000443,1158.4776133000269,None,,,,,,,,,,,,,,00039,001,2026-01-17_11h27.57.476,MST_task,2024.2.0,59.791304435868895,2026-01-17 11h28.50.739949 +0530,
,Objects\126a.jpg,52,0,53,,,,,f,2.0602983999997377,0.1278842000174336,None,,,,,,53,0,52,1158.494491600024,,,,,,,,,,,,,,,,,,,,,,,1158.4776934999973,1158.494491600024,1158.9797367000137,,,,,,,,,,,,,,,,,,,,1158.989294500032,1159.0132333000074,1159.0132333000074,1159.0132333000074,1161.9904429000453,indoor,f,2.0602983999997377,0.1278842000174336,1161.9904859000235,1161.990497699997,None,,,,,,,,,,,,,,00039,001,2026-01-17_11h27.57.476,MST_task,2024.2.0,59.791304435868895,2026-01-17 11h28.50.739949 +0530,
,Objects\019a.jpg,53,0,54,,,,,f,2.9560211000498384,None,None,,,,,,54,0,53,1162.0071620999952,,,,,,,,,,,,,,,,,,,,,,,1161.9905669,1162.0071620999952,1162.4923025000026,,,,,,,,,,,,,,,,,,,,1162.5016720000422,1162.5255530000431,1162.5255530000431,1162.5255530000431,1165.5027106000343,indoor,f,2.9560211000498384,None,1165.502755500027,1165.5027686000103,None,,,,,,,,,,,,,,00039,001,2026-01-17_11h27.57.476,MST_task,2024.2.0,59.791304435868895,2026-01-17 11h28.50.739949 +0530,
,Objects\252a.jpg,54,0,55,,,,,f,1.5958006999571808,0.12777389999246225,None,,,,,,55,0,54,1165.5191509000142,,,,,,,,,,,,,,,,,,,,,,,1165.5029421999934,1165.5191509000142,1166.004383600026,,,,,,,,,,,,,,,,,,,,1166.0138099000324,1166.0377191000152,1166.0377191000152,1166.0377191000152,1169.0147345000296,indoor,f,1.5958006999571808,0.12777389999246225,1169.0148153000046,1169.0148303000024,None,,,,,,,,,,,,,,00039,001,2026-01-17_11h27.57.476,MST_task,2024.2.0,59.791304435868895,2026-01-17 11h28.50.739949 +0530,
,Objects\183a.jpg,55,0,56,,,,,j,2.771673599956557,0.1518894000328146,None,,,,,,56,0,55,1169.0315640000044,,,,,,,,,,,,,,,,,,,,,,,1169.0149015000206,1169.0315640000044,1169.5164949000464,,,,,,,,,,,,,,,,,,,,1169.5263937000418,1169.5500189000159,1169.5500189000159,1169.5500189000159,1172.5271619000123,indoor,j,2.771673599956557,0.1518894000328146,1172.527223800018,1172.5272375000059,None,,,,,,,,,,,,,,00039,001,2026-01-17_11h27.57.476,MST_task,2024.2.0,59.791304435868895,2026-01-17 11h28.50.739949 +0530,
,Objects\157a.jpg,56,0,57,,,,,None,,,f,2.6019239999586716,None,,,,57,0,56,1172.5437014999916,,,,,,,,,,,,,,,,,,,,,,,1172.527305399999,1172.5437014999916,1173.0297448000056,,,,,,,,,,,,,,,,,,,,1173.0403929000022,1173.0635360000306,1173.0635360000306,1173.0635360000306,1176.0393296999973,shoe,None,,,1176.0415493000182,1178.666120000009,f,1176.05617180001,1176.05617180001,2.6019239999586716,None,,,,,,,,,,00039,001,2026-01-17_11h27.57.476,MST_task,2024.2.0,59.791304435868895,2026-01-17 11h28.50.739949 +0530,
,Objects\017a.jpg,57,0,58,,,,,None,,,f,2.0305163000011817,None,,,,58,0,57,1178.6822171999956,,,,,,,,,,,,,,,,,,,,,,,1178.6662702000467,1178.6822171999956,1179.1675010000472,,,,,,,,,,,,,,,,,,,,1179.1772167000454,1179.2006847000448,1179.2006847000448,1179.2006847000448,1182.1784198000096,shoe,None,,,1182.178494199994,1184.2354633000214,f,1182.1945237000473,1182.1945237000473,2.0305163000011817,None,,,,,,,,,,00039,001,2026-01-17_11h27.57.476,MST_task,2024.2.0,59.791304435868895,2026-01-17 11h28.50.739949 +0530,
,Objects\104a.jpg,58,0,59,,,,,f,0.8955388000467792,0.1437036999850534,None,,,,,,59,0,58,1184.2519336999976,,,,,,,,,,,,,,,,,,,,,,,1184.2355738000479,1184.2519336999976,1184.7367972999928,,,,,,,,,,,,,,,,,,,,1184.746190200036,1184.770444200025,1184.770444200025,1184.770444200025,1187.7474615999963,shoe,f,0.8955388000467792,0.1437036999850534,1187.747503600025,1187.7475163000054,None,,,,,,,,,,,,,,00039,001,2026-01-17_11h27.57.476,MST_task,2024.2.0,59.791304435868895,2026-01-17 11h28.50.739949 +0530,
,Objects\080a.jpg,59,0,60,,,,,f,2.8869193000136875,None,None,,,,,,60,0,59,1187.7640132000088,,,,,,,,,,,,,,,,,,,,,,,1187.7476252000197,1187.7640132000088,1188.249673400016,,,,,,,,,,,,,,,,,,,,1188.2626005000202,1188.282643100014,1188.282643100014,1188.282643100014,1191.2593044000096,shoe,f,2.8869193000136875,None,1191.2593452000292,1191.2593576000072,None,,,,,,,,,,,,,,00039,001,2026-01-17_11h27.57.476,MST_task,2024.2.0,59.791304435868895,2026-01-17 11h28.50.739949 +0530,
,Objects\110a.jpg,60,0,61,,,,,f,0.8792841999675147,0.143519000033848,None,,,,,,61,0,60,1191.2761361000012,,,,,,,,,,,,,,,,,,,,,,,1191.259425199998,1191.2761361000012,1191.7611380000017,,,,,,,,,,,,,,,,,,,,1191.7721611000015,1191.7945706000319,1191.7945706000319,1191.7945706000319,1194.7719771999982,shoe,f,0.8792841999675147,0.143519000033848,1194.7721772000077,1194.7721894000424,None,,,,,,,,,,,,,,00039,001,2026-01-17_11h27.57.476,MST_task,2024.2.0,59.791304435868895,2026-01-17 11h28.50.739949 +0530,
,Objects\369a.jpg,61,0,62,,,,,f,0.8144084000377916,0.16040099994279444,None,,,,,,62,0,61,1194.788418900047,,,,,,,,,,,,,,,,,,,,,,,1194.7722610000055,1194.788418900047,1195.273506700003,,,,,,,,,,,,,,,,,,,,1195.28333450004,1195.3067506999942,1195.3067506999942,1195.3067506999942,1198.2840338000096,shoe,f,0.8144084000377916,0.16040099994279444,1198.2840883000172,1198.284100000048,None,,,,,,,,,,,,,,00039,001,2026-01-17_11h27.57.476,MST_task,2024.2.0,59.791304435868895,2026-01-17 11h28.50.739949 +0530,
,Objects\246a.jpg,62,0,63,,,,,f,1.0862787999794818,0.1839246000163257,None,,,,,,63,0,62,1198.3007351999986,,,,,,,,,,,,,,,,,,,,,,,1198.2844766000053,1198.3007351999986,1198.785709400021,,,,,,,,,,,,,,,,,,,,1198.795554100012,1198.8192894000094,1198.8192894000094,1198.8192894000094,1201.7961846000399,shoe,f,1.0862787999794818,0.1839246000163257,1201.796237600036,1201.7962497000117,None,,,,,,,,,,,,,,00039,001,2026-01-17_11h27.57.476,MST_task,2024.2.0,59.791304435868895,2026-01-17 11h28.50.739949 +0530,
,Objects\223a.jpg,63,0,64,,,,,j,0.8938771999673918,0.16759740002453327,None,,,,,,64,0,63,1201.8130441000103,,,,,,,,,,,,,,,,,,,,,,,1201.7963186000125,1201.8130441000103,1202.2981227000128,,,,,,,,,,,,,,,,,,,,1202.3084827000275,1202.3314767000265,1202.3314767000265,1202.3314767000265,1205.3086830000393,indoor,j,0.8938771999673918,0.16759740002453327,1205.3106951999944,1205.3107133000158,None,,,,,,,,,,,,,,00039,001,2026-01-17_11h27.57.476,MST_task,2024.2.0,59.791304435868895,2026-01-17 11h28.50.739949 +0530,
,Objects\278a.jpg,64,0,65,,,,,f,2.541407699987758,0.17577800003346056,None,,,,,,65,0,64,1205.325200900028,,,,,,,,,,,,,,,,,,,,,,,1205.3107921000337,1205.325200900028,1205.8106996000279,,,,,,,,,,,,1205.843648500042,,,,,,,,1205.8268793000025,1205.843648500042,1205.843648500042,1205.843648500042,1208.8209617999964,indoor,f,2.541407699987758,0.17577800003346056,1208.8210038000252,1208.8210182000184,None,,,,,,,,,,,,,,00039,001,2026-01-17_11h27.57.476,MST_task,2024.2.0,59.791304435868895,2026-01-17 11h28.50.739949 +0530,
,Objects\173a.jpg,65,0,66,,,,,f,1.1651271000155248,0.14408120000734925,None,,,,,,66,0,65,1208.837624900043,,,,,,,,,,,,,,,,,,,,,,,1208.8213516999967,1208.837624900043,1209.3226184000378,,,,,,,,,,,,,,,,,,,,1209.3384444999974,1209.3561688000336,1209.3561688000336,1209.3561688000336,1212.333482200047,indoor,f,1.1651271000155248,0.14408120000734925,1212.333528499992,1212.3335404000245,None,,,,,,,,,,,,,,00039,001,2026-01-17_11h27.57.476,MST_task,2024.2.0,59.791304435868895,2026-01-17 11h28.50.739949 +0530,
,Objects\090a.jpg,66,0,67,,,,,j,2.7488994000013918,0.1365836999611929,None,,,,,,67,0,66,1212.3498053000076,,,,,,,,,,,,,,,,,,,,,,,1212.3336078000139,1212.3498053000076,1212.8351511000074,,,,,,,,,,,,,,,,,,,,1212.844795000041,1212.868304500007,1212.868304500007,1212.868304500007,1215.8454484000104,indoor,j,2.7488994000013918,0.1365836999611929,1215.8454889000277,1215.8455006000004,None,,,,,,,,,,,,,,00039,001,2026-01-17_11h27.57.476,MST_task,2024.2.0,59.791304435868895,2026-01-17 11h28.50.739949 +0530,
,Objects\188a.jpg,67,0,68,,,,,f,0.7650891999946907,0.18363729998236522,None,,,,,,68,0,67,1215.8624192000134,,,,,,,,,,,,,,,,,,,,,,,1215.845715000003,1215.8624192000134,1216.3473856000346,,,,,,,,,,,,,,,,,,,,1216.3577462999965,1216.380665100005,1216.380665100005,1216.380665100005,1219.3576911000418,indoor,f,0.7650891999946907,0.18363729998236522,1219.357745699992,1219.3577574000228,None,,,,,,,,,,,,,,00039,001,2026-01-17_11h27.57.476,MST_task,2024.2.0,59.791304435868895,2026-01-17 11h28.50.739949 +0530,
,Objects\270a.jpg,68,0,69,,,,,j,0.7248193999985233,0.16727600002195686,None,,,,,,69,0,68,1219.374534100003,,,,,,,,,,,,,,,,,,,,,,,1219.3579705000157,1219.374534100003,1219.8595262000454,,,,,,,,,,,,,,,,,,,,1219.8723418000154,1219.8929680000292,1219.8929680000292,1219.8929680000292,1222.8701085000066,indoor,j,0.7248193999985233,0.16727600002195686,1222.8704109000391,1222.8704239000217,None,,,,,,,,,,,,,,00039,001,2026-01-17_11h27.57.476,MST_task,2024.2.0,59.791304435868895,2026-01-17 11h28.50.739949 +0530,
,Objects\303a.jpg,69,0,70,,,,,j,1.9558956999680959,0.14331640000455081,None,,,,,,70,0,69,1222.8867063000216,,,,,,,,,,,,,,,,,,,,,,,1222.870498400007,1222.8867063000216,1223.3720604000264,,,,,,,,,,,,,,,,,,,,1223.3921029000194,1223.4059888000484,1223.4059888000484,1223.4059888000484,1226.3826104000327,indoor,j,1.9558956999680959,0.14331640000455081,1226.3826518999995,1226.3826637000311,None,,,,,,,,,,,,,,00039,001,2026-01-17_11h27.57.476,MST_task,2024.2.0,59.791304435868895,2026-01-17 11h28.50.739949 +0530,
,Objects\371a.jpg,70,0,71,,,,,j,1.4988162000081502,0.16096700000343844,None,,,,,,71,0,70,1226.3990072000306,,,,,,,,,,,,,,,,,,,,,,,1226.3827299000113,1226.3990072000306,1226.8844164000475,,,,,,,,,,,,,,,,,,,,1226.9007573000272,1226.9186622000416,1226.9186622000416,1226.9186622000416,1229.8945835999912,shoe,j,1.4988162000081502,0.16096700000343844,1229.8968200000236,1229.8968382000457,None,,,,,,,,,,,,,,00039,001,2026-01-17_11h27.57.476,MST_task,2024.2.0,59.791304435868895,2026-01-17 11h28.50.739949 +0530,
,Objects\357a.jpg,71,0,72,,,,,f,2.22721649997402,0.15173470001900569,None,,,,,,72,0,71,1229.911414900038,,,,,,,,,,,,,,,,,,,,,,,1229.8969581000274,1229.911414900038,1230.3968389999936,,,,,,,,,,,,1230.430733300047,,,,,,,,1230.412805000029,1230.430733300047,1230.430733300047,1230.430733300047,1233.4072163000237,shoe,f,2.22721649997402,0.15173470001900569,1233.4072589999996,1233.4072725000442,None,,,,,,,,,,,,,,00039,001,2026-01-17_11h27.57.476,MST_task,2024.2.0,59.791304435868895,2026-01-17 11h28.50.739949 +0530,
,Objects\128a.jpg,72,0,73,,,,,f,1.2995106999878772,0.19943430001148954,None,,,,,,73,0,72,1233.423627400014,,,,,,,,,,,,,,,,,,,,,,,1233.4073394000297,1233.423627400014,1233.9088831000263,,,,,,,,,,,,,,,,,,,,1233.9179537000018,1233.9422058000346,1233.9422058000346,1233.9422058000346,1236.9193377000047,shoe,f,1.2995106999878772,0.19943430001148954,1236.9193926000153,1236.9194042000454,None,,,,,,,,,,,,,,00039,001,2026-01-17_11h27.57.476,MST_task,2024.2.0,59.791304435868895,2026-01-17 11h28.50.739949 +0530,
,Objects\222a.jpg,73,0,74,,,,,j,1.081971999956295,0.11224350001430139,None,,,,,,74,0,73,1236.9358944999985,,,,,,,,,,,,,,,,,,,,,,,1236.919474800001,1236.9358944999985,1237.4213335000095,,,,,,,,,,,,,,,,,,,,1237.4369710000465,1237.4552242000354,1237.4552242000354,1237.4552242000354,1240.4314944000216,shoe,j,1.081971999956295,0.11224350001430139,1240.4315468000132,1240.4315590000479,None,,,,,,,,,,,,,,00039,001,2026-01-17_11h27.57.476,MST_task,2024.2.0,59.791304435868895,2026-01-17 11h28.50.739949 +0530,
,Objects\217a.jpg,74,0,75,,,,,f,2.2504355999990366,0.14388690004125237,None,,,,,,75,0,74,1240.4483206000295,,,,,,,,,,,,,,,,,,,,,,,1240.431629300001,1240.4483206000295,1240.9332965000067,,,,,,,,,,,,,,,,,,,,1240.949031200027,1240.9667575000203,1240.9667575000203,1240.9667575000203,1243.9438866000273,shoe,f,2.2504355999990366,0.14388690004125237,1243.9441941000405,1243.9442183999927,None,,,,,,,,,,,,,,00039,001,2026-01-17_11h27.57.476,MST_task,2024.2.0,59.791304435868895,2026-01-17 11h28.50.739949 +0530,
,Objects\191a.jpg,75,0,76,,,,,f,1.0179631999926642,0.12828659999649972,None,,,,,,76,0,75,1243.9604936999967,,,,,,,,,,,,,,,,,,,,,,,1243.9442880999995,1243.9604936999967,1244.4458649000153,,,,,,,,,,,,,,,,,,,,1244.460812000034,1244.478935800027,1244.478935800027,1244.478935800027,1247.4563456000178,shoe,f,1.0179631999926642,0.12828659999649972,1247.4563948000432,1247.456428000005,None,,,,,,,,,,,,,,00039,001,2026-01-17_11h27.57.476,MST_task,2024.2.0,59.791304435868895,2026-01-17 11h28.50.739949 +0530,
,Objects\313a.jpg,76,0,77,,,,,j,0.7538136999937706,0.12802040000678971,None,,,,,,77,0,76,1247.4729107000167,,,,,,,,,,,,,,,,,,,,,,,1247.4568182000075,1247.4729107000167,1247.9579994000378,,,,,,,,,,,,,,,,,,,,1247.9678300000378,1247.991472600028,1247.991472600028,1247.991472600028,1250.9686580999987,shoe,j,0.7538136999937706,0.12802040000678971,1250.9687036999967,1250.9687164000352,None,,,,,,,,,,,,,,00039,001,2026-01-17_11h27.57.476,MST_task,2024.2.0,59.791304435868895,2026-01-17 11h28.50.739949 +0530,
,Objects\115a.jpg,77,0,78,,,,,f,0.7617057000170462,0.1836407000082545,None,,,,,,78,0,77,1250.9852450000471,,,,,,,,,,,,,,,,,,,,,,,1250.9687922000303,1250.9852450000471,1251.4704592000344,,,,,,,,,,,,,,,,,,,,1251.4825058000279,1251.5037037000293,1251.5037037000293,1251.5037037000293,1254.4809629000374,indoor,f,0.7617057000170462,0.1836407000082545,1254.482171300042,1254.4821896000067,None,,,,,,,,,,,,,,00039,001,2026-01-17_11h27.57.476,MST_task,2024.2.0,59.791304435868895,2026-01-17 11h28.50.739949 +0530,
,Objects\237a.jpg,78,0,79,,,,,j,1.1934981999802403,0.1601410000002943,None,,,,,,79,0,78,1254.497559600044,,,,,,,,,,,,,,,,,,,,,,,1254.4822596000158,1254.497559600044,1254.9831266000401,,,,,,,,,,,,,,,,,,,,1254.9988059000461,1255.0159911999945,1255.0159911999945,1255.0159911999945,1257.9931970000034,indoor,j,1.1934981999802403,0.1601410000002943,1257.9932505000033,1257.993262300035,None,,,,,,,,,,,,,,00039,001,2026-01-17_11h27.57.476,MST_task,2024.2.0,59.791304435868895,2026-01-17 11h28.50.739949 +0530,
,Objects\088a.jpg,79,0,80,,,,,f,1.264456800010521,0.1921157999895513,None,,,,,,80,0,79,1258.009974500048,,,,,,,,,,,,,,,,,,,,,,,1257.9933336999966,1258.009974500048,1258.4950950000202,,,,,,,,,,,,,,,,,,,,1258.5098349000327,1258.5284282999928,1258.5284282999928,1258.5284282999928,1261.5054147000192,indoor,f,1.264456800010521,0.1921157999895513,1261.5056197000085,1261.5056322000455,None,,,,,,,,,,,,,,00039,001,2026-01-17_11h27.57.476,MST_task,2024.2.0,59.791304435868895,2026-01-17 11h28.50.739949 +0530,
,Objects\210a.jpg,80,0,81,,,,,j,2.057139999989886,0.17562870000256225,None,,,,,,81,0,80,1261.5220012000063,,,,,,,,,,,,,,,,,,,,,,,1261.5057238000445,1261.5220012000063,1262.0073454999947,,,,,,,,,,,,,,,,,,,,1262.020336000016,1262.0405543000088,1262.0405543000088,1262.0405543000088,1265.0182732000249,indoor,j,2.057139999989886,0.17562870000256225,1265.0183231999981,1265.0183352000313,None,,,,,,,,,,,,,,00039,001,2026-01-17_11h27.57.476,MST_task,2024.2.0,59.791304435868895,2026-01-17 11h28.50.739949 +0530,
,Objects\092a.jpg,81,0,82,,,,,j,2.2643587000202388,0.13603619998320937,None,,,,,,82,0,81,1265.034408300009,,,,,,,,,,,,,,,,,,,,,,,1265.0184039000305,1265.034408300009,1265.519504100026,,,,,,,,,,,,,,,,,,,,1265.5341470999992,1265.5529891999904,1265.5529891999904,1265.5529891999904,1268.529995000048,indoor,j,2.2643587000202388,0.13603619998320937,1268.5300354000065,1268.5300474000396,None,,,,,,,,,,,,,,00039,001,2026-01-17_11h27.57.476,MST_task,2024.2.0,59.791304435868895,2026-01-17 11h28.50.739949 +0530,
,Objects\051a.jpg,82,0,83,,,,,j,2.1998879999737255,0.1591785000055097,None,,,,,,83,0,82,1268.546509900014,,,,,,,,,,,,,,,,,,,,,,,1268.5301120000076,1268.546509900014,1269.0319357000408,,,,,,,,,,,,,,,,,,,,1269.0411626000423,1269.0656328000478,1269.0656328000478,1269.0656328000478,1272.0423055000138,indoor,j,2.1998879999737255,0.1591785000055097,1272.0423464000341,1272.0423582000076,None,,,,,,,,,,,,,,00039,001,2026-01-17_11h27.57.476,MST_task,2024.2.0,59.791304435868895,2026-01-17 11h28.50.739949 +0530,
,Objects\131a.jpg,83,0,84,,,,,f,0.9441504999995232,0.1514222000259906,None,,,,,,84,0,83,1272.0590167000191,,,,,,,,,,,,,,,,,,,,,,,1272.0424267000053,1272.0590167000191,1272.5441299999948,,,,,,,,,,,,,,,,,,,,1272.5538444000413,1272.5773348000366,1272.5773348000366,1272.5773348000366,1275.5549601000384,indoor,f,0.9441504999995232,0.1514222000259906,1275.555006300041,1275.555019100022,None,,,,,,,,,,,,,,00039,001,2026-01-17_11h27.57.476,MST_task,2024.2.0,59.791304435868895,2026-01-17 11h28.50.739949 +0530,
,Objects\350a.jpg,84,0,85,,,,,j,1.7927099000080489,0.14289769995957613,None,,,,,,85,0,84,1275.5719119000132,,,,,,,,,,,,,,,,,,,,,,,1275.5550893000327,1275.5719119000132,1276.0562817000318,,,,,,,,,,,,,,,,,,,,1276.07348250004,1276.0897534000105,1276.0897534000105,1276.0897534000105,1279.066901800048,shoe,j,1.7927099000080489,0.14289769995957613,1279.068427900027,1279.0684467999963,None,,,,,,,,,,,,,,00039,001,2026-01-17_11h27.57.476,MST_task,2024.2.0,59.791304435868895,2026-01-17 11h28.50.739949 +0530,
,Objects\116a.jpg,85,0,86,,,,,f,2.511488099989947,0.16741489997366443,None,,,,,,86,0,85,1279.083500800014,,,,,,,,,,,,,,,,,,,,,,,1279.0685171000077,1279.083500800014,1279.5689856000245,,,,,,,,,,,,,,,,,,,,1279.5837953000446,1279.60192440002,1279.60192440002,1279.60192440002,1282.5790840000263,shoe,f,2.511488099989947,0.16741489997366443,1282.5791802000022,1282.5792007000418,None,,,,,,,,,,,,,,00039,001,2026-01-17_11h27.57.476,MST_task,2024.2.0,59.791304435868895,2026-01-17 11h28.50.739949 +0530,
,Objects\344a.jpg,86,0,87,,,,,j,1.1025201000156812,0.1279717999859713,None,,,,,,87,0,86,1282.595912000048,,,,,,,,,,,,,,,,,,,,,,,1282.5793081000447,1282.595912000048,1283.080909900018,,,,,,,,,,,,,,,,,,,,1283.0951085000415,1283.1146629000432,1283.1146629000432,1283.1146629000432,1286.0914761000313,shoe,j,1.1025201000156812,0.1279717999859713,1286.091663500003,1286.0916904000333,None,,,,,,,,,,,,,,00039,001,2026-01-17_11h27.57.476,MST_task,2024.2.0,59.791304435868895,2026-01-17 11h28.50.739949 +0530,
,Objects\198a.jpg,87,0,88,,,,,f,2.366997800010722,0.1436223000055179,None,,,,,,88,0,87,1286.1080818999908,,,,,,,,,,,,,,,,,,,,,,,1286.0917631000048,1286.1080818999908,1286.5934154000133,,,,,,,,,,,,,,,,,,,,1286.6079516000464,1286.626530700014,1286.626530700014,1286.626530700014,1289.6039630000014,shoe,f,2.366997800010722,0.1436223000055179,1289.6040048000286,1289.6040165000013,None,,,,,,,,,,,,,,00039,001,2026-01-17_11h27.57.476,MST_task,2024.2.0,59.791304435868895,2026-01-17 11h28.50.739949 +0530,
,Objects\174a.jpg,88,0,89,,,,,j,2.886277200013865,None,None,,,,,,89,0,88,1289.6203868000302,,,,,,,,,,,,,,,,,,,,,,,1289.604084199993,1289.6203868000302,1290.1057801000425,,,,,,,,,,,,,,,,,,,,1290.1155405000318,1290.138821600005,1290.138821600005,1290.138821600005,1293.1159597000224,shoe,j,2.886277200013865,None,1293.1160118000116,1293.1160234000417,None,,,,,,,,,,,,,,00039,001,2026-01-17_11h27.57.476,MST_task,2024.2.0,59.791304435868895,2026-01-17 11h28.50.739949 +0530,
,Objects\167a.jpg,89,0,90,,,,,f,1.3740141000016592,0.07995240000309423,None,,,,,,90,0,89,1293.1334064000403,,,,,,,,,,,,,,,,,,,,,,,1293.116270300001,1293.1334064000403,1293.6179459000123,,,,,,,,,,,,,,,,,,,,1293.6277624000213,1293.6512524000136,1293.6512524000136,1293.6512524000136,1296.6284123000223,shoe,f,1.3740141000016592,0.07995240000309423,1296.6286149999942,1296.6286278000334,None,,,,,,,,,,,,,,00039,001,2026-01-17_11h27.57.476,MST_task,2024.2.0,59.791304435868895,2026-01-17 11h28.50.739949 +0530,
,Objects\027a.jpg,90,0,91,,,,,f,0.8060306000406854,0.07159399997908622,None,,,,,,91,0,90,1296.6451205000049,,,,,,,,,,,,,,,,,,,,,,,1296.6286966000334,1296.6451205000049,1297.130407300021,,,,,,,,,,,,,,,,,,,,1297.1401366000064,1297.1634257000405,1297.1634257000405,1297.1634257000405,1300.1407154999906,shoe,f,0.8060306000406854,0.07159399997908622,1300.1407670000335,1300.14077920001,None,,,,,,,,,,,,,,00039,001,2026-01-17_11h27.57.476,MST_task,2024.2.0,59.791304435868895,2026-01-17 11h28.50.739949 +0530,
,Objects\148a.jpg,91,0,92,,,,,f,2.7656085999915376,0.12041040003532544,None,,,,,,92,0,91,1300.157391500019,,,,,,,,,,,,,,,,,,,,,,,1300.1408651000238,1300.157391500019,1300.6423759000027,,,,,,,,,,,,,,,,,,,,1300.6535562000354,1300.675846200029,1300.675846200029,1300.675846200029,1303.652980600018,indoor,f,2.7656085999915376,0.12041040003532544,1303.6547912000096,1303.6548094000318,None,,,,,,,,,,,,,,00039,001,2026-01-17_11h27.57.476,MST_task,2024.2.0,59.791304435868895,2026-01-17 11h28.50.739949 +0530,
,Objects\098a.jpg,92,0,93,,,,,f,1.6694326999713667,0.12005190004128963,None,,,,,,93,0,92,1303.6695214000065,,,,,,,,,,,,,,,,,,,,,,,1303.6548800000455,1303.6695214000065,1304.155136700021,,,,,,,,,,,,1304.1880287000095,,,,,,,,1304.1648324000416,1304.1880287000095,1304.1880287000095,1304.1880287000095,1307.1654719000217,indoor,f,1.6694326999713667,0.12005190004128963,1307.165528600046,1307.1655415000278,None,,,,,,,,,,,,,,00039,001,2026-01-17_11h27.57.476,MST_task,2024.2.0,59.791304435868895,2026-01-17 11h28.50.739949 +0530,
,Objects\134a.jpg,93,0,94,,,,,f,1.2445287000155076,0.08076609997078776,None,,,,,,94,0,93,1307.1819949999917,,,,,,,,,,,,,,,,,,,,,,,1307.1656096000224,1307.1819949999917,1307.6674205000163,,,,,,,,,,,,,,,,,,,,1307.6770512000076,1307.7003109999932,1307.7003109999932,1307.7003109999932,1310.6775014000013,indoor,f,1.2445287000155076,0.08076609997078776,1310.6775564000127,1310.6775685000466,None,,,,,,,,,,,,,,00039,001,2026-01-17_11h27.57.476,MST_task,2024.2.0,59.791304435868895,2026-01-17 11h28.50.739949 +0530,
,Objects\225a.jpg,94,0,95,,,,,f,1.9171555999782868,0.0880528999841772,None,,,,,,95,0,94,1310.6942877999973,,,,,,,,,,,,,,,,,,,,,,,1310.6778201000416,1310.6942877999973,1311.179280100041,,,,,,,,,,,,,,,,,,,,1311.190015100001,1311.2127439000178,1311.2127439000178,1311.2127439000178,1314.1904520000098,indoor,f,1.9171555999782868,0.0880528999841772,1314.1905217000167,1314.1905415999936,None,,,,,,,,,,,,,,00039,001,2026-01-17_11h27.57.476,MST_task,2024.2.0,59.791304435868895,2026-01-17 11h28.50.739949 +0530,
,Objects\151a.jpg,95,0,96,,,,,f,0.9559347999747843,0.09777740004938096,None,,,,,,96,0,95,1314.2073410000303,,,,,,,,,,,,,,,,,,,,,,,1314.1906552000437,1314.2073410000303,1314.6925009000115,,,,,,,,,,,,,,,,,,,,1314.7036189000355,1314.725422299991,1314.725422299991,1314.725422299991,1317.702449500037,indoor,f,0.9559347999747843,0.09777740004938096,1317.7024930000189,1317.7025047999923,None,,,,,,,,,,,,,,00039,001,2026-01-17_11h27.57.476,MST_task,2024.2.0,59.791304435868895,2026-01-17 11h28.50.739949 +0530,
,Objects\354a.jpg,96,0,97,,,,,f,2.660222700040322,0.031652599980589,None,,,,,,97,0,96,1317.7190673000296,,,,,,,,,,,,,,,,,,,,,,,1317.702574199997,1317.7190673000296,1318.204062200035,,,,,,,,,,,,,,,,,,,,1318.2176056000171,1318.2374991000397,1318.2374991000397,1318.2374991000397,1321.2146548000164,indoor,f,2.660222700040322,0.031652599980589,1321.2146996000083,1321.214712200046,None,,,,,,,,,,,,,,00039,001,2026-01-17_11h27.57.476,MST_task,2024.2.0,59.791304435868895,2026-01-17 11h28.50.739949 +0530,
,Objects\165a.jpg,97,0,98,,,,,f,1.3882395999971777,0.06406770000467077,None,,,,,,98,0,97,1321.2312274000142,,,,,,,,,,,,,,,,,,,,,,,1321.2147897999967,1321.2312274000142,1321.7164327999926,,,,,,,,,,,,,,,,,,,,1321.731030200026,1321.7495343000046,1321.7495343000046,1321.7495343000046,1324.7269835000043,indoor,f,1.3882395999971777,0.06406770000467077,1324.7270293000038,1324.7270411000354,None,,,,,,,,,,,,,,00039,001,2026-01-17_11h27.57.476,MST_task,2024.2.0,59.791304435868895,2026-01-17 11h28.50.739949 +0530,
,Objects\324a.jpg,98,0,99,,,,,f,2.5559032000019215,0.1274398000095971,None,,,,,,99,0,98,1324.7435353000183,,,,,,,,,,,,,,,,,,,,,,,1324.7271476000315,1324.7435353000183,1325.228808999993,,,,,,,,,,,,,,,,,,,,1325.2450813000323,1325.2619813000201,1325.2619813000201,1325.2619813000201,1328.238977800007,shoe,f,2.5559032000019215,0.1274398000095971,1328.2404660000466,1328.2404839000083,None,,,,,,,,,,,,,,00039,001,2026-01-17_11h27.57.476,MST_task,2024.2.0,59.791304435868895,2026-01-17 11h28.50.739949 +0530,
,Objects\266a.jpg,99,0,100,,,,,None,,,f,0.08077270002104342,None,,,,100,0,99,1328.255790300027,,,,,,,,,,,,,,,,,,,,,,,1328.2405891999952,1328.255790300027,1328.7407498999964,,,,,,,,,,,,,,,,,,,,1328.7574398000143,1328.7742373000365,1328.7742373000365,1328.7742373000365,1331.7515451000072,shoe,None,,,1331.7515922000166,1331.8523070000228,f,1331.7679790999973,1331.7679790999973,0.08077270002104342,None,,,,,,,,,,00039,001,2026-01-17_11h27.57.476,MST_task,2024.2.0,59.791304435868895,2026-01-17 11h28.50.739949 +0530,
,Objects\290a.jpg,100,0,101,,,,,j,1.5819218000397086,0.08805019996361807,None,,,,,,101,0,100,1331.868323200033,,,,,,,,,,,,,,,,,,,,,,,1331.852395199996,1331.868323200033,1332.3536650000024,,,,,,,,,,,,,,,,,,,,1332.3681927000289,1332.3868900000234,1332.3868900000234,1332.3868900000234,1335.3639112000237,shoe,j,1.5819218000397086,0.08805019996361807,1335.3639809000306,1335.3639974000398,None,,,,,,,,,,,,,,00039,001,2026-01-17_11h27.57.476,MST_task,2024.2.0,59.791304435868895,2026-01-17 11h28.50.739949 +0530,
,Objects\275a.jpg,101,0,102,,,,,f,1.7822095999727026,0.07199600001331419,None,,,,,,102,0,101,1335.3807533000363,,,,,,,,,,,,,,,,,,,,,,,1335.36434010003,1335.3807533000363,1335.8659231000347,,,,,,,,,,,,,,,,,,,,1335.880738100037,1335.899191100034,1335.899191100034,1335.899191100034,1338.8764850000152,shoe,f,1.7822095999727026,0.07199600001331419,1338.8765275999904,1338.876539800025,None,,,,,,,,,,,,,,00039,001,2026-01-17_11h27.57.476,MST_task,2024.2.0,59.791304435868895,2026-01-17 11h28.50.739949 +0530,
,Objects\325a.jpg,102,0,103,,,,,f,1.949445799982641,0.12001459999009967,None,,,,,,103,0,102,1338.8930621000472,,,,,,,,,,,,,,,,,,,,,,,1338.8766106000403,1338.8930621000472,1339.3780012000352,,,,,,,,,,,,,,,,,,,,1339.3925098000327,1339.4116883000243,1339.4116883000243,1339.4116883000243,1342.3886250000214,shoe,f,1.949445799982641,0.12001459999009967,1342.3890444000135,1342.3890571999946,None,,,,,,,,,,,,,,00039,001,2026-01-17_11h27.57.476,MST_task,2024.2.0,59.791304435868895,2026-01-17 11h28.50.739949 +0530,
,Objects\164a.jpg,103,0,104,,,,,f,2.2217762999935076,0.17497499997261912,None,,,,,,104,0,103,1342.40521300002,,,,,,,,,,,,,,,,,,,,,,,1342.3891272000037,1342.40521300002,1342.8904581000097,,,,,,,,,,,,,,,,,,,,1342.905234100006,1342.9242766000098,1342.9242766000098,1342.9242766000098,1345.900815400004,shoe,f,2.2217762999935076,0.17497499997261912,1345.900857300032,1345.9008691000054,None,,,,,,,,,,,,,,00039,001,2026-01-17_11h27.57.476,MST_task,2024.2.0,59.791304435868895,2026-01-17 11h28.50.739949 +0530,
,Objects\007a.jpg,104,0,105,,,,,j,2.0689883999875747,0.12758630001917481,None,,,,,,105,0,104,1345.9177610999905,,,,,,,,,,,,,,,,,,,,,,,1345.9009740000474,1345.9177610999905,1346.402613800019,,,,,,,,,,,,,,,,,,,,1346.412036099995,1346.4361074999906,1346.4361074999906,1346.4361074999906,1349.4133922000183,shoe,j,2.0689883999875747,0.12758630001917481,1349.4134380000178,1349.413451600005,None,,,,,,,,,,,,,,00039,001,2026-01-17_11h27.57.476,MST_task,2024.2.0,59.791304435868895,2026-01-17 11h28.50.739949 +0530,
,Objects\058a.jpg,105,0,106,,,,,f,0.8536965999519452,0.12673660001019016,None,,,,,,106,0,105,1349.4300731000258,,,,,,,,,,,,,,,,,,,,,,,1349.4135198000004,1349.4300731000258,1349.9150654000114,,,,,,,,,,,,,,,,,,,,1349.9255770000163,1349.9482687000418,1349.9482687000418,1349.9482687000418,1352.9253989999997,indoor,f,0.8536965999519452,0.12673660001019016,1352.9266141999979,1352.9266317000147,None,,,,,,,,,,,,,,00039,001,2026-01-17_11h27.57.476,MST_task,2024.2.0,59.791304435868895,2026-01-17 11h28.50.739949 +0530,
,Objects\299a.jpg,106,0,107,,,,,j,1.2762507000006735,0.09692009998252615,None,,,,,,107,0,106,1352.9422270000214,,,,,,,,,,,,,,,,,,,,,,,1352.9267030000337,1352.9422270000214,1353.427454299992,,,,,,,,,,,,,,,,,,,,1353.4439416000387,1353.460794500017,1353.460794500017,1353.460794500017,1356.4379934000317,indoor,j,1.2762507000006735,0.09692009998252615,1356.4380402000388,1356.438052500016,None,,,,,,,,,,,,,,00039,001,2026-01-17_11h27.57.476,MST_task,2024.2.0,59.791304435868895,2026-01-17 11h28.50.739949 +0530,
,Objects\170a.jpg,107,0,108,,,,,None,,,f,0.49863260000711307,None,,,,108,0,107,1356.4546128000366,,,,,,,,,,,,,,,,,,,,,,,1356.438127100002,1356.4546128000366,1356.939776400046,,,,,,,,,,,,,,,,,,,,1356.9539126000018,1356.9730575000285,1356.9730575000285,1356.9730575000285,1359.9502685000189,indoor,None,,,1359.9503064000164,1360.4691814000253,f,1359.9670083000092,1359.9670083000092,0.49863260000711307,None,,,,,,,,,,00039,001,2026-01-17_11h27.57.476,MST_task,2024.2.0,59.791304435868895,2026-01-17 11h28.50.739949 +0530,
,Objects\033a.jpg,108,0,109,,,,,f,0.7732403000118211,0.16015449998667464,None,,,,,,109,0,108,1360.4853716000216,,,,,,,,,,,,,,,,,,,,,,,1360.4692907000426,1360.4853716000216,1360.9708511999925,,,,,,,,,,,,,,,,,,,,1360.9814286000328,1361.0038117000367,1361.0038117000367,1361.0038117000367,1363.9809664000059,indoor,f,0.7732403000118211,0.16015449998667464,1363.9810080000316,1363.981020600011,None,,,,,,,,,,,,,,00039,001,2026-01-17_11h27.57.476,MST_task,2024.2.0,59.791304435868895,2026-01-17 11h28.50.739949 +0530,
,Objects\147a.jpg,109,0,110,,,,,f,2.428632600000128,0.14436019997810945,None,,,,,,110,0,109,1363.9977810000419,,,,,,,,,,,,,,,,,,,,,,,1363.9810905000195,1363.9977810000419,1364.4827694999985,,,,,,,,,,,,,,,,,,,,1364.492415500048,1364.5162241000216,1364.5162241000216,1364.5162241000216,1367.4933246000437,indoor,f,2.428632600000128,0.14436019997810945,1367.4933665000135,1367.4933782000444,None,,,,,,,,,,,,,,00039,001,2026-01-17_11h27.57.476,MST_task,2024.2.0,59.791304435868895,2026-01-17 11h28.50.739949 +0530,
,Objects\221a.jpg,110,0,111,,,,,j,1.1167053999961354,0.1374171000206843,None,,,,,,111,0,110,1367.5097907000454,,,,,,,,,,,,,,,,,,,,,,,1367.4934488,1367.5097907000454,1367.9950866000145,,,,,,,,,,,,,,,,,,,,1368.0099715000251,1368.0283219999983,1368.0283219999983,1368.0283219999983,1371.0053857000312,indoor,j,1.1167053999961354,0.1374171000206843,1371.0054278000025,1371.0054394000326,None,,,,,,,,,,,,,,00039,001,2026-01-17_11h27.57.476,MST_task,2024.2.0,59.791304435868895,2026-01-17 11h28.50.739949 +0530,
,Objects\081a.jpg,111,0,112,,,,,None,,,f,0.51452030002838,None,,,,112,0,111,1371.022822000028,,,,,,,,,,,,,,,,,,,,,,,1371.0055086000357,1371.022822000028,1371.5072336000158,,,,,,,,,,,,,,,,,,,,1371.5257160000037,1371.5406713000266,1371.5406713000266,1371.5406713000266,1374.5176955999923,indoor,None,,,1374.5177413999918,1375.0534482999938,f,1374.5346338000381,1374.5346338000381,0.51452030002838,None,,,,,,,,,,00039,001,2026-01-17_11h27.57.476,MST_task,2024.2.0,59.791304435868895,2026-01-17 11h28.50.739949 +0530,
,Objects\245a.jpg,112,0,113,,,,,f,0.9246468000346795,0.1692007999517955,None,,,,,,113,0,112,1375.0697285000351,,,,,,,,,,,,,,,,,,,,,,,1375.0535368000274,1375.0697285000351,1375.5548126000213,,,,,,,,,,,,,,,,,,,,1375.5663254000247,1375.5881754000438,1375.5881754000438,1375.5881754000438,1378.5653372000088,shoe,f,0.9246468000346795,0.1692007999517955,1378.566873600008,1378.566891900031,None,,,,,,,,,,,,,,00039,001,2026-01-17_11h27.57.476,MST_task,2024.2.0,59.791304435868895,2026-01-17 11h28.50.739949 +0530,
,Objects\156a.jpg,113,0,114,,,,,j,1.589343599975109,0.13525260001188144,None,,,,,,114,0,113,1378.5820390000008,,,,,,,,,,,,,,,,,,,,,,,1378.566963099991,1378.5820390000008,1379.0671126000234,,,,,,,,,,,,,,,,,,,,1379.0768286000239,1379.100340200006,1379.100340200006,1379.100340200006,1382.0774893999915,shoe,j,1.589343599975109,0.13525260001188144,1382.0775314000202,1382.077543499996,None,,,,,,,,,,,,,,00039,001,2026-01-17_11h27.57.476,MST_task,2024.2.0,59.791304435868895,2026-01-17 11h28.50.739949 +0530,
,Objects\286a.jpg,114,0,115,,,,,j,2.1808855999843217,0.13620950002223253,None,,,,,,115,0,114,1382.0943269000272,,,,,,,,,,,,,,,,,,,,,,,1382.0776448000106,1382.0943269000272,1382.5792787999962,,,,,,,,,,,,,,,,,,,,1382.5931259000208,1382.612763800018,1382.612763800018,1382.612763800018,1385.5899034000468,shoe,j,2.1808855999843217,0.13620950002223253,1385.5899448000127,1385.5899564000429,None,,,,,,,,,,,,,,00039,001,2026-01-17_11h27.57.476,MST_task,2024.2.0,59.791304435868895,2026-01-17 11h28.50.739949 +0530,
,Objects\309a.jpg,115,0,116,,,,,f,1.0761751999962144,0.19140140002127737,None,,,,,,116,0,115,1385.6065037000226,,,,,,,,,,,,,,,,,,,,,,,1385.5900269999984,1385.6065037000226,1386.0922743999981,,,,,,,,,,,,,,,,,,,,1386.1061242000433,1386.1250830999925,1386.1250830999925,1386.1250830999925,1389.1022318000323,shoe,f,1.0761751999962144,0.19140140002127737,1389.102314400021,1389.102334299998,None,,,,,,,,,,,,,,00039,001,2026-01-17_11h27.57.476,MST_task,2024.2.0,59.791304435868895,2026-01-17 11h28.50.739949 +0530,
,Objects\163a.jpg,116,0,117,,,,,j,2.05185970000457,0.15951339999446645,None,,,,,,117,0,116,1389.1189214999904,,,,,,,,,,,,,,,,,,,,,,,1389.1024109999998,1389.1189214999904,1389.6039069000399,,,,,,,,,,,,,,,,,,,,1389.6200529999915,1389.6375116000418,1389.6375116000418,1389.6375116000418,1392.6145191999967,shoe,j,2.05185970000457,0.15951339999446645,1392.6147058000206,1392.6147184000001,None,,,,,,,,,,,,,,00039,001,2026-01-17_11h27.57.476,MST_task,2024.2.0,59.791304435868895,2026-01-17 11h28.50.739949 +0530,
,Objects\279a.jpg,117,0,118,,,,,j,1.3957760999910533,0.12840460002189502,None,,,,,,118,0,117,1392.631116900011,,,,,,,,,,,,,,,,,,,,,,,1392.6147878000047,1392.631116900011,1393.1165842000046,,,,,,,,,,,,,,,,,,,,1393.1263190000318,1393.1495675000479,1393.1495675000479,1393.1495675000479,1396.126719199994,shoe,j,1.3957760999910533,0.12840460002189502,1396.1267725999933,1396.126784800028,None,,,,,,,,,,,,,,00039,001,2026-01-17_11h27.57.476,MST_task,2024.2.0,59.791304435868895,2026-01-17 11h28.50.739949 +0530,
,Objects\071a.jpg,118,0,119,,,,,j,2.45156339998357,0.1359097000095062,None,,,,,,119,0,118,1396.1435262000305,,,,,,,,,,,,,,,,,,,,,,,1396.1269998000353,1396.1435262000305,1396.6284871000098,,,,,,,,,,,,,,,,,,,,1396.6382166999974,1396.6619677999988,1396.6619677999988,1396.6619677999988,1399.6391121000051,shoe,j,2.45156339998357,0.1359097000095062,1399.639154500037,1399.6391664000112,None,,,,,,,,,,,,,,00039,001,2026-01-17_11h27.57.476,MST_task,2024.2.0,59.791304435868895,2026-01-17 11h28.50.739949 +0530,
,Objects\207a.jpg,119,0,120,,,,,f,1.5314466999843717,0.12079559999983758,None,,,,,,120,0,119,1399.6556931000086,,,,,,,,,,,,,,,,,,,,,,,1399.639273400011,1399.6556931000086,1400.1409399000113,,,,,,,,,,,,,,,,,,,,1400.1563436000142,1400.174135200039,1400.174135200039,1400.174135200039,1403.1514459000318,indoor,f,1.5314466999843717,0.12079559999983758,1403.1530443000374,1403.1530649000197,None,,,,,,,,,,,,,,00039,001,2026-01-17_11h27.57.476,MST_task,2024.2.0,59.791304435868895,2026-01-17 11h28.50.739949 +0530,
,Objects\084a.jpg,120,0,121,,,,,f,1.7631501000141725,0.15220830001635477,None,,,,,,121,0,120,1403.1686377000296,,,,,,,,,,,,,,,,,,,,,,,1403.1531386999995,1403.1686377000296,1403.653397200047,,,,,,,,,,,,1403.6866096000304,,,,,,,,1403.6681047000457,1403.6866096000304,1403.6866096000304,1403.6866096000304,1406.664510200033,indoor,f,1.7631501000141725,0.15220830001635477,1406.6645729000447,1406.664586400031,None,,,,,,,,,,,,,,00039,001,2026-01-17_11h27.57.476,MST_task,2024.2.0,59.791304435868895,2026-01-17 11h28.50.739949 +0530,
,Objects\099a.jpg,121,0,122,,,,,f,2.0335421999916434,0.13665150001179427,None,,,,,,122,0,121,1406.6803019000217,,,,,,,,,,,,,,,,,,,,,,,1406.6646647000453,1406.6803019000217,1407.1658212000038,,,,,,,,,,,,,,,,,,,,1407.1755526000052,1407.1998363000457,1407.1998363000457,1407.1998363000457,1410.17661580001,indoor,f,2.0335421999916434,0.13665150001179427,1410.1766597999958,1410.176672200032,None,,,,,,,,,,,,,,00039,001,2026-01-17_11h27.57.476,MST_task,2024.2.0,59.791304435868895,2026-01-17 11h28.50.739949 +0530,
,Objects\248a.jpg,122,0,123,,,,,f,2.2985439999611117,0.1355934000457637,None,,,,,,123,0,122,1410.1926055999938,,,,,,,,,,,,,,,,,,,,,,,1410.1767435999936,1410.1926055999938,1410.6779342000373,,,,,,,,,,,,,,,,,,,,1410.694632800005,1410.7110531000071,1410.7110531000071,1410.7110531000071,1413.688301999995,indoor,f,2.2985439999611117,0.1355934000457637,1413.6883575000102,1413.6883695000433,None,,,,,,,,,,,,,,00039,001,2026-01-17_11h27.57.476,MST_task,2024.2.0,59.791304435868895,2026-01-17 11h28.50.739949 +0530,
,Objects\202a.jpg,123,0,124,,,,,j,2.473410499980673,0.10464420000789687,None,,,,,,124,0,123,1413.7051296000136,,,,,,,,,,,,,,,,,,,,,,,1413.6884383000433,1413.7051296000136,1414.1900272000348,,,,,,,,,,,,,,,,,,,,1414.2041294000228,1414.2234831000096,1414.2234831000096,1414.2234831000096,1417.2006117000128,indoor,j,2.473410499980673,0.10464420000789687,1417.2006532000378,1417.2006653000135,None,,,,,,,,,,,,,,00039,001,2026-01-17_11h27.57.476,MST_task,2024.2.0,59.791304435868895,2026-01-17 11h28.50.739949 +0530,
,Objects\215a.jpg,124,0,125,,,,,f,0.9293594000046141,0.1361998000065796,None,,,,,,125,0,124,1417.2172894999967,,,,,,,,,,,,,,,,,,,,,,,1417.2007324000006,1417.2172894999967,1417.7023977999925,,,,,,,,,,,,,,,,,,,,1417.7189717,1417.7357587000006,1417.7357587000006,1417.7357587000006,1420.7128750000265,indoor,f,0.9293594000046141,0.1361998000065796,1420.7129284000257,1420.7129405000014,None,,,,,,,,,,,,,,00039,001,2026-01-17_11h27.57.476,MST_task,2024.2.0,59.791304435868895,2026-01-17 11h28.50.739949 +0530,
,Objects\366a.jpg,125,0,126,,,,,j,1.9609245999599807,0.13601070002187043,None,,,,,,126,0,125,1420.7296170000336,,,,,,,,,,,,,,,,,,,,,,,1420.7130105000106,1420.7296170000336,1421.2146004000097,,,,,,,,,,,,,,,,,,,,1421.2241791000124,1421.24804700003,1421.24804700003,1421.24804700003,1424.2252443000325,indoor,j,1.9609245999599807,0.13601070002187043,1424.2252853999962,1424.225297100027,None,,,,,,,,,,,,,,00039,001,2026-01-17_11h27.57.476,MST_task,2024.2.0,59.791304435868895,2026-01-17 11h28.50.739949 +0530,
,Objects\028a.jpg,126,0,127,,,,,j,1.5129325999878347,0.14407760003814474,None,,,,,,127,0,126,1424.2417873000377,,,,,,,,,,,,,,,,,,,,,,,1424.225365500024,1424.2417873000377,1424.7271411000402,,,,,,,,,,,,,,,,,,,,1424.7381976000033,1424.7602294000098,1424.7602294000098,1424.7602294000098,1427.737566900032,shoe,j,1.5129325999878347,0.14407760003814474,1427.7397001000354,1427.7397180999978,None,,,,,,,,,,,,,,00039,001,2026-01-17_11h27.57.476,MST_task,2024.2.0,59.791304435868895,2026-01-17 11h28.50.739949 +0530,
,Objects\072a.jpg,127,0,128,,,,,f,2.104644900013227,0.1513991000247188,None,,,,,,128,0,127,1427.7542107999907,,,,,,,,,,,,,,,,,,,,,,,1427.7398397999932,1427.7542107999907,1428.2393513999996,,,,,,,,,,,,1428.2726497999975,,,,,,,,1428.248651300033,1428.2726497999975,1428.2726497999975,1428.2726497999975,1431.24977460003,shoe,f,2.104644900013227,0.1513991000247188,1431.2499771000003,1431.2500024000183,None,,,,,,,,,,,,,,00039,001,2026-01-17_11h27.57.476,MST_task,2024.2.0,59.791304435868895,2026-01-17 11h28.50.739949 +0530,
,Objects\118a.jpg,128,0,129,,,,,f,2.6001988999778405,0.1516509000211954,None,,,,,,129,0,128,1431.2663828000077,,,,,,,,,,,,,,,,,,,,,,,1431.2500737000373,1431.2663828000077,1431.751574599999,,,,,,,,,,,,,,,,,,,,1431.7637145000044,1431.7848334000446,1431.7848334000446,1431.7848334000446,1434.7619820000255,shoe,f,2.6001988999778405,0.1516509000211954,1434.7620247000013,1434.7620371000376,None,,,,,,,,,,,,,,00039,001,2026-01-17_11h27.57.476,MST_task,2024.2.0,59.791304435868895,2026-01-17 11h28.50.739949 +0530,
,Objects\239a.jpg,129,0,130,,,,,f,1.8803727000486106,0.1354355999501422,None,,,,,,130,0,129,1434.7788134000148,,,,,,,,,,,,,,,,,,,,,,,1434.76210490003,1434.7788134000148,1435.2637688000104,,,,,,,,,,,,,,,,,,,,1435.2815363000263,1435.2972393000382,1435.2972393000382,1435.2972393000382,1438.2744831000455,shoe,f,1.8803727000486106,0.1354355999501422,1438.2747928000172,1438.2748055999982,None,,,,,,,,,,,,,,00039,001,2026-01-17_11h27.57.476,MST_task,2024.2.0,59.791304435868895,2026-01-17 11h28.50.739949 +0530,
,Objects\296a.jpg,130,0,131,,,,,j,1.4242075000074692,0.1199862000066787,None,,,,,,131,0,130,1438.2909910000162,,,,,,,,,,,,,,,,,,,,,,,1438.274873699993,1438.2909910000162,1438.776372399996,,,,,,,,,,,,,,,,,,,,1438.7898950999952,1438.8094430000056,1438.8094430000056,1438.8094430000056,1441.7868989999988,shoe,j,1.4242075000074692,0.1199862000066787,1441.7869415000314,1441.7869535000063,None,,,,,,,,,,,,,,00039,001,2026-01-17_11h27.57.476,MST_task,2024.2.0,59.791304435868895,2026-01-17 11h28.50.739949 +0530,
,Objects\106a.jpg,131,0,132,,,,,f,1.9432773000444286,0.18370719999074936,None,,,,,,132,0,131,1441.8034023999935,,,,,,,,,,,,,,,,,,,,,,,1441.7871908000088,1441.8034023999935,1442.2883762000129,,,,,,,,,,,,,,,,,,,,1442.3033303000266,1442.3218590000179,1442.3218590000179,1442.3218590000179,1445.298886100005,shoe,f,1.9432773000444286,0.18370719999074936,1445.2989287000382,1445.2989413000178,None,,,,,,,,,,,,,,00039,001,2026-01-17_11h27.57.476,MST_task,2024.2.0,59.791304435868895,2026-01-17 11h28.50.739949 +0530,
,Objects\332a.jpg,132,0,133,,,,,j,0.9838202000246383,0.1518000999931246,None,,,,,,133,0,132,1445.3163233000087,,,,,,,,,,,,,,,,,,,,,,,1445.2990769000025,1445.3163233000087,1445.8006593000027,,,,,,,,,,,,,,,,,,,,1445.8147065000376,1445.8341403999948,1445.8341403999948,1445.8341403999948,1448.8117323000333,shoe,j,0.9838202000246383,0.1518000999931246,1448.8117750000092,1448.811791300017,None,,,,,,,,,,,,,,00039,001,2026-01-17_11h27.57.476,MST_task,2024.2.0,59.791304435868895,2026-01-17 11h28.50.739949 +0530,
,Objects\086a.jpg,133,0,134,,,,,j,1.9590705999871716,0.16001260001212358,None,,,,,,134,0,133,1448.8278726999997,,,,,,,,,,,,,,,,,,,,,,,1448.8118567999918,1448.8278726999997,1449.3131208000123,,,,,,,,,,,,,,,,,,,,1449.3293252000003,1449.3463265000028,1449.3463265000028,1449.3463265000028,1452.323456800019,indoor,j,1.9590705999871716,0.16001260001212358,1452.3247028000187,1452.324721800047,None,,,,,,,,,,,,,,00039,001,2026-01-17_11h27.57.476,MST_task,2024.2.0,59.791304435868895,2026-01-17 11h28.50.739949 +0530,
,Objects\314a.jpg,134,0,135,,,,,None,,,j,3.1330311999772675,None,,,,135,0,134,1452.3405228000483,,,,,,,,,,,,,,,,,,,,,,,1452.324792600004,1452.3405228000483,1452.8252602000139,,,,,,,,,,,,,,,,,,,,1452.8402093000477,1452.8587454000372,1452.8587454000372,1452.8587454000372,1455.835889500042,indoor,None,,,1455.8359274000395,1458.9977313000127,j,1455.8526148000383,1455.8526148000383,3.1330311999772675,None,,,,,,,,,,00039,001,2026-01-17_11h27.57.476,MST_task,2024.2.0,59.791304435868895,2026-01-17 11h28.50.739949 +0530,
,Objects\186a.jpg,135,0,136,,,,,f,1.7813204000121914,0.15935670002363622,None,,,,,,136,0,135,1459.014027600002,,,,,,,,,,,,,,,,,,,,,,,1458.9978286999976,1459.014027600002,1459.4989426000393,,,,,,,,,,,,,,,,,,,,1459.5158108000178,1459.5324407000444,1459.5324407000444,1459.5324407000444,1462.509586900007,indoor,f,1.7813204000121914,0.15935670002363622,1462.5096505000256,1462.5096626000013,None,,,,,,,,,,,,,,00039,001,2026-01-17_11h27.57.476,MST_task,2024.2.0,59.791304435868895,2026-01-17 11h28.50.739949 +0530,
,Objects\042a.jpg,136,0,137,,,,,f,1.2131748999818228,0.16754070000024512,None,,,,,,137,0,136,1462.526252700016,,,,,,,,,,,,,,,,,,,,,,,1462.5098818000406,1462.526252700016,1463.011262600019,,,,,,,,,,,,,,,,,,,,1463.0207618999993,1463.0447639999911,1463.0447639999911,1463.0447639999911,1466.022126100026,indoor,f,1.2131748999818228,0.16754070000024512,1466.0221695000073,1466.0221819000435,None,,,,,,,,,,,,,,00039,001,2026-01-17_11h27.57.476,MST_task,2024.2.0,59.791304435868895,2026-01-17 11h28.50.739949 +0530,
,Objects\199a.jpg,137,0,138,,,,,j,1.3567077000043355,0.10381160001270473,None,,,,,,138,0,137,1466.0381527999998,,,,,,,,,,,,,,,,,,,,,,,1466.0222525999998,1466.0381527999998,1466.5233674999909,,,,,,,,,,,,,,,,,,,,1466.5376183000044,1466.5565860000206,1466.5565860000206,1466.5565860000206,1469.533742300002,indoor,j,1.3567077000043355,0.10381160001270473,1469.5337915000273,1469.5338211000198,None,,,,,,,,,,,,,,00039,001,2026-01-17_11h27.57.476,MST_task,2024.2.0,59.791304435868895,2026-01-17 11h28.50.739949 +0530,
,Objects\003a.jpg,138,0,139,,,,,None,,,j,0.06722319999244064,None,,,,139,0,138,1469.5505640000338,,,,,,,,,,,,,,,,,,,,,,,1469.5340441000299,1469.5505640000338,1470.035537000047,,,,,,,,,,,,,,,,,,,,1470.0526710000122,1470.0690044999938,1470.0690044999938,1470.0690044999938,1473.046330000041,indoor,None,,,1473.0463685000432,1473.147341700038,j,1473.0629023000365,1473.0629023000365,0.06722319999244064,None,,,,,,,,,,00039,001,2026-01-17_11h27.57.476,MST_task,2024.2.0,59.791304435868895,2026-01-17 11h28.50.739949 +0530,
,Objects\130a.jpg,139,0,140,,,,,f,1.5919550000107847,0.19187440001405776,None,,,,,,140,0,139,1473.1630978000467,,,,,,,,,,,,,,,,,,,,,,,1473.1474257000373,1473.1630978000467,1473.648306200048,,,,,,,,,,,,,,,,,,,,1473.6576258999994,1473.6815448999987,1473.6815448999987,1473.6815448999987,1476.6587639999925,indoor,f,1.5919550000107847,0.19187440001405776,1476.6588058000198,1476.6588181999978,None,,,,,,,,,,,,,,00039,001,2026-01-17_11h27.57.476,MST_task,2024.2.0,59.791304435868895,2026-01-17 11h28.50.739949 +0530,
,Objects\096a.jpg,140,0,141,,,,,f,1.7667016999912448,0.2001023999764584,None,,,,,,141,0,140,1476.6755105000339,,,,,,,,,,,,,,,,,,,,,,,1476.6588920000358,1476.6755105000339,1477.1605173000135,,,,,,,,,,,,,,,,,,,,1477.1718856000225,1477.1939608000102,1477.1939608000102,1477.1939608000102,1480.1710348000051,shoe,f,1.7667016999912448,0.2001023999764584,1480.173060800007,1480.173079900036,None,,,,,,,,,,,,,,00039,001,2026-01-17_11h27.57.476,MST_task,2024.2.0,59.791304435868895,2026-01-17 11h28.50.739949 +0530,
,Objects\261a.jpg,141,0,142,,,,,f,0.7669831000384875,0.18448709999211133,None,,,,,,142,0,141,1480.1879569000448,,,,,,,,,,,,,,,,,,,,,,,1480.1731497000437,1480.1879569000448,1480.673190100002,,,,,,,,,,,,1480.7062646000413,,,,,,,,1480.688647700008,1480.7062646000413,1480.7062646000413,1480.7062646000413,1483.6834604000323,shoe,f,0.7669831000384875,0.18448709999211133,1483.6835042000166,1483.6835176000022,None,,,,,,,,,,,,,,00039,001,2026-01-17_11h27.57.476,MST_task,2024.2.0,59.791304435868895,2026-01-17 11h28.50.739949 +0530,
,Objects\004a.jpg,142,0,143,,,,,j,2.4550967999966815,0.1763115999638103,None,,,,,,143,0,142,1483.6999988000025,,,,,,,,,,,,,,,,,,,,,,,1483.6837141000433,1483.6999988000025,1484.1852090000175,,,,,,,,,,,,,,,,,,,,1484.1996263000183,1484.2184403000283,1484.2184403000283,1484.2184403000283,1487.1955877,shoe,j,2.4550967999966815,0.1763115999638103,1487.1956301000318,1487.1956668000203,None,,,,,,,,,,,,,,00039,001,2026-01-17_11h27.57.476,MST_task,2024.2.0,59.791304435868895,2026-01-17 11h28.50.739949 +0530,
,Objects\321a.jpg,143,0,144,,,,,f,0.8544925000169314,0.19217529997695237,None,,,,,,144,0,143,1487.2125508000026,,,,,,,,,,,,,,,,,,,,,,,1487.195735700021,1487.2125508000026,1487.6973778000101,,,,,,,,,,,,,,,,,,,,1487.7120003000018,1487.7308828000096,1487.7308828000096,1487.7308828000096,1490.707885300042,shoe,f,0.8544925000169314,0.19217529997695237,1490.7079629999935,1490.7079790999996,None,,,,,,,,,,,,,,00039,001,2026-01-17_11h27.57.476,MST_task,2024.2.0,59.791304435868895,2026-01-17 11h28.50.739949 +0530,
,Objects\026a.jpg,144,0,145,,,,,f,2.0062571999733336,0.15932830004021525,None,,,,,,145,0,144,1490.7253114000196,,,,,,,,,,,,,,,,,,,,,,,1490.7081957000191,1490.7253114000196,1491.2096805000328,,,,,,,,,,,,,,,,,,,,1491.224983400025,1491.2431526000146,1491.2431526000146,1491.2431526000146,1494.2202940999996,shoe,f,2.0062571999733336,0.15932830004021525,1494.22033500002,1494.220346999995,None,,,,,,,,,,,,,,00039,001,2026-01-17_11h27.57.476,MST_task,2024.2.0,59.791304435868895,2026-01-17 11h28.50.739949 +0530,
,Objects\109a.jpg,145,0,146,,,,,None,,,j,0.13160960003733635,None,,,,146,0,145,1494.2369127999991,,,,,,,,,,,,,,,,,,,,,,,1494.2204496000195,1494.2369127999991,1494.7220933000208,,,,,,,,,,,,,,,,,,,,1494.7326876000152,1494.7558407000033,1494.7558407000033,1494.7558407000033,1497.732612300024,shoe,None,,,1497.7327977000386,1497.883716500015,j,1497.749196000048,1497.749196000048,0.13160960003733635,None,,,,,,,,,,00039,001,2026-01-17_11h27.57.476,MST_task,2024.2.0,59.791304435868895,2026-01-17 11h28.50.739949 +0530,
,Objects\235a.jpg,146,0,147,,,,,j,2.4468439999618568,0.15963599999668077,None,,,,,,147,0,146,1497.899854200019,,,,,,,,,,,,,,,,,,,,,,,1497.883845400007,1497.899854200019,1498.3850189000368,,,,,,,,,,,,,,,,,,,,1498.3995092000114,1498.4182837000117,1498.4182837000117,1498.4182837000117,1501.3956132000312,shoe,j,2.4468439999618568,0.15963599999668077,1501.395655100001,1501.3956677000388,None,,,,,,,,,,,,,,00039,001,2026-01-17_11h27.57.476,MST_task,2024.2.0,59.791304435868895,2026-01-17 11h28.50.739949 +0530,
,Objects\236a.jpg,147,0,148,,,,,f,2.0163251999765635,0.14311459998134524,None,,,,,,148,0,147,1501.4120274000452,,,,,,,,,,,,,,,,,,,,,,,1501.3957352000289,1501.4120274000452,1501.897473799996,,,,,,,,,,,,,,,,,,,,1501.9169645000366,1501.9304490000359,1501.9304490000359,1501.9304490000359,1504.907607900037,indoor,f,2.0163251999765635,0.14311459998134524,1504.9088475000462,1504.90886700002,None,,,,,,,,,,,,,,00039,001,2026-01-17_11h27.57.476,MST_task,2024.2.0,59.791304435868895,2026-01-17 11h28.50.739949 +0530,
,Objects\255a.jpg,148,0,149,,,,,f,2.2149207000038587,0.15158280002651736,None,,,,,,149,0,148,1504.9244466000237,,,,,,,,,,,,,,,,,,,,,,,1504.908937500033,1504.9244466000237,1505.4094567000284,,,,,,,,,,,,,,,,,,,,1505.423889800033,1505.442881199997,1505.442881199997,1505.442881199997,1508.4200322999968,indoor,f,2.2149207000038587,0.15158280002651736,1508.4200738000218,1508.4200858999975,None,,,,,,,,,,,,,,00039,001,2026-01-17_11h27.57.476,MST_task,2024.2.0,59.791304435868895,2026-01-17 11h28.50.739949 +0530,
,Objects\310a.jpg,149,0,150,,,,,j,1.413998200034257,0.16820709995226935,None,,,,,,150,0,149,1508.4366298000095,,,,,,,,,,,,,,,,,,,,,,,1508.4201556000044,1508.4366298000095,1508.9225132000283,,,,,,,,,,,,,,,,,,,,1508.9391444000066,1508.9551733999979,1508.9551733999979,1508.9551733999979,1511.9322371000308,indoor,j,1.413998200034257,0.16820709995226935,1511.9322795000044,1511.9322914000368,None,,,,,,,,,,,,,,00039,001,2026-01-17_11h27.57.476,MST_task,2024.2.0,59.791304435868895,2026-01-17 11h28.50.739949 +0530,
,Objects\368a.jpg,150,0,151,,,,,f,0.7976824000361376,0.19174300000304356,None,,,,,,151,0,150,1511.9490451000165,,,,,,,,,,,,,,,,,,,,,,,1511.9326281000394,1511.9490451000165,1512.4340069000027,,,,,,,,,,,,,,,,,,,,1512.4481146000326,1512.4676183999982,1512.4676183999982,1512.4676183999982,1515.4448014000081,indoor,f,0.7976824000361376,0.19174300000304356,1515.4448519000434,1515.444864500023,None,,,,,,,,,,,,,,00039,001,2026-01-17_11h27.57.476,MST_task,2024.2.0,59.791304435868895,2026-01-17 11h28.50.739949 +0530,
,Objects\102a.jpg,151,0,152,,,,,f,0.9503033000510186,0.17523389996495098,None,,,,,,152,0,151,1515.4612240000279,,,,,,,,,,,,,,,,,,,,,,,1515.4449344000313,1515.4612240000279,1515.9464293000055,,,,,,,,,,,,,,,,,,,,1515.9614856000408,1515.9796559000388,1515.9796559000388,1515.9796559000388,1518.956813900033,indoor,f,0.9503033000510186,0.17523389996495098,1518.9568580000196,1518.956870199996,None,,,,,,,,,,,,,,00039,001,2026-01-17_11h27.57.476,MST_task,2024.2.0,59.791304435868895,2026-01-17 11h28.50.739949 +0530,
,Objects\265a.jpg,152,0,153,,,,,j,2.012706600013189,0.16801170003600419,None,,,,,,153,0,152,1518.9736361000105,,,,,,,,,,,,,,,,,,,,,,,1518.957084900001,1518.9736361000105,1519.4586109000375,,,,,,,,,,,,,,,,,,,,1519.4747897000052,1519.4920734000043,1519.4920734000043,1519.4920734000043,1522.4694958000327,indoor,j,2.012706600013189,0.16801170003600419,1522.4695464000106,1522.4695590999909,None,,,,,,,,,,,,,,00039,001,2026-01-17_11h27.57.476,MST_task,2024.2.0,59.791304435868895,2026-01-17 11h28.50.739949 +0530,
,Objects\292a.jpg,153,0,154,,,,,None,,,f,0.08310510002775118,None,,,,154,0,153,1522.4858186999918,,,,,,,,,,,,,,,,,,,,,,,1522.4696269000415,1522.4858186999918,1522.971019699995,,,,,,,,,,,,,,,,,,,,1522.9844338000403,1523.004370700044,1523.004370700044,1523.004370700044,1525.9819019000279,indoor,None,,,1525.9819416000391,1526.082602300041,f,1525.9987295000465,1525.9987295000465,0.08310510002775118,None,,,,,,,,,,00039,001,2026-01-17_11h27.57.476,MST_task,2024.2.0,59.791304435868895,2026-01-17 11h28.50.739949 +0530,
,Objects\076a.jpg,154,0,155,,,,,f,1.328185599995777,0.1762429000227712,None,,,,,,155,0,154,1526.098581600003,,,,,,,,,,,,,,,,,,,,,,,1526.0827052000095,1526.098581600003,1526.5835422000382,,,,,,,,,,,,,,,,,,,,1526.6006208000472,1526.6170287000132,1526.6170287000132,1526.6170287000132,1529.5941626999993,shoe,f,1.328185599995777,0.1762429000227712,1529.5963359000161,1529.5963544000406,None,,,,,,,,,,,,,,00039,001,2026-01-17_11h27.57.476,MST_task,2024.2.0,59.791304435868895,2026-01-17 11h28.50.739949 +0530,
,Objects\219a.jpg,155,0,156,,,,,f,1.2239861999987625,0.1354509000084363,None,,,,,,156,0,155,1529.6107658999972,,,,,,,,,,,,,,,,,,,,,,,1529.5964610000374,1529.6107658999972,1530.096355100046,,,,,,,,,,,,1530.129342100001,,,,,,,,1530.1062810000149,1530.129342100001,1530.129342100001,1530.129342100001,1533.1063622999936,shoe,f,1.2239861999987625,0.1354509000084363,1533.1064161999966,1533.1064309999929,None,,,,,,,,,,,,,,00039,001,2026-01-17_11h27.57.476,MST_task,2024.2.0,59.791304435868895,2026-01-17 11h28.50.739949 +0530,
,Objects\045a.jpg,156,0,157,,,,,j,1.9592302000382915,0.13798629998927936,None,,,,,,157,0,156,1533.1231823000126,,,,,,,,,,,,,,,,,,,,,,,1533.1064975000336,1533.1231823000126,1533.6081365999999,,,,,,,,,,,,,,,,,,,,1533.618660200038,1533.6416174000478,1533.6416174000478,1533.6416174000478,1536.6189454999985,shoe,j,1.9592302000382915,0.13798629998927936,1536.6190006000106,1536.6190123000415,None,,,,,,,,,,,,,,00039,001,2026-01-17_11h27.57.476,MST_task,2024.2.0,59.791304435868895,2026-01-17 11h28.50.739949 +0530,
,Objects\204a.jpg,157,0,158,,,,,f,0.8313078000210226,0.17707889998564497,None,,,,,,158,0,157,1536.635356600047,,,,,,,,,,,,,,,,,,,,,,,1536.6191171000246,1536.635356600047,1537.120742900006,,,,,,,,,,,,,,,,,,,,1537.1305712000467,1537.153797100007,1537.153797100007,1537.153797100007,1540.1311462000012,shoe,f,0.8313078000210226,0.17707889998564497,1540.1311913999962,1540.13120350003,None,,,,,,,,,,,,,,00039,001,2026-01-17_11h27.57.476,MST_task,2024.2.0,59.791304435868895,2026-01-17 11h28.50.739949 +0530,
,Objects\339a.jpg,158,0,159,,,,,f,1.526718900015112,0.11186290002660826,None,,,,,,159,0,158,1540.1478025999968,,,,,,,,,,,,,,,,,,,,,,,1540.1312768000062,1540.1478025999968,1540.632902900048,,,,,,,,,,,,,,,,,,,,1540.6472315000137,1540.666224799992,1540.666224799992,1540.666224799992,1543.6433704000083,shoe,f,1.526718900015112,0.11186290002660826,1543.643689599994,1543.6437022000318,None,,,,,,,,,,,,,,00039,001,2026-01-17_11h27.57.476,MST_task,2024.2.0,59.791304435868895,2026-01-17 11h28.50.739949 +0530,
,Objects\301a.jpg,159,0,160,,,,,f,2.7987240999937057,0.1278959999908693,None,,,,,,160,0,159,1543.660048699996,,,,,,,,,,,,,,,,,,,,,,,1543.6437764000148,1543.660048699996,1544.145286700048,,,,,,,,,,,,,,,,,,,,1544.1616568000172,1544.1788037000224,1544.1788037000224,1544.1788037000224,1547.1555486000143,shoe,f,2.7987240999937057,0.1278959999908693,1547.1556037000264,1547.1556264000246,None,,,,,,,,,,,,,,00039,001,2026-01-17_11h27.57.476,MST_task,2024.2.0,59.791304435868895,2026-01-17 11h28.50.739949 +0530,
,Objects\232a.jpg,160,0,161,,,,,f,2.886015199997928,None,None,,,,,,161,0,160,1547.172382400022,,,,,,,,,,,,,,,,,,,,,,,1547.1558558000252,1547.172382400022,1547.657349999994,,,,,,,,,,,,,,,,,,,,1547.6715892000357,1547.69096550002,1547.69096550002,1547.69096550002,1550.6678609999944,shoe,f,2.886015199997928,None,1550.6679033000255,1550.667916300008,None,,,,,,,,,,,,,,00039,001,2026-01-17_11h27.57.476,MST_task,2024.2.0,59.791304435868895,2026-01-17 11h28.50.739949 +0530,
,Objects\113a.jpg,161,0,162,,,,,f,2.094691700011026,0.11180590000003576,None,,,,,,162,0,161,1550.6847683000378,,,,,,,,,,,,,,,,,,,,,,,1550.6680223000003,1550.6847683000378,1551.169820900017,,,,,,,,,,,,,,,,,,,,1551.1869096000446,1551.203113000025,1551.203113000025,1551.203113000025,1554.1804383000126,indoor,f,2.094691700011026,0.11180590000003576,1554.18208410003,1554.1821031,None,,,,,,,,,,,,,,00039,001,2026-01-17_11h27.57.476,MST_task,2024.2.0,59.791304435868895,2026-01-17 11h28.50.739949 +0530,
,Objects\220a.jpg,162,0,163,,,,,j,1.8463912000297569,0.09554369997931644,None,,,,,,163,0,162,1554.1968633999932,,,,,,,,,,,,,,,,,,,,,,,1554.1821739000152,1554.1968633999932,1554.6824275000254,,,,,,,,,,,,1554.7153067000327,,,,,,,,1554.6999792000279,1554.7153067000327,1554.7153067000327,1554.7153067000327,1557.692444699991,indoor,j,1.8463912000297569,0.09554369997931644,1557.6924895000411,1557.6925026000245,None,,,,,,,,,,,,,,00039,001,2026-01-17_11h27.57.476,MST_task,2024.2.0,59.791304435868895,2026-01-17 11h28.50.739949 +0530,
,Objects\181a.jpg,163,0,164,,,,,j,0.902060899999924,0.1513977999566123,None,,,,,,164,0,163,1557.7092897000257,,,,,,,,,,,,,,,,,,,,,,,1557.6925694000092,1557.7092897000257,1558.1942372000194,,,,,,,,,,,,,,,,,,,,1558.211936000036,1558.2277130000293,1558.2277130000293,1558.2277130000293,1561.205334600003,indoor,j,0.902060899999924,0.1513977999566123,1561.2053817000124,1561.2053943999927,None,,,,,,,,,,,,,,00039,001,2026-01-17_11h27.57.476,MST_task,2024.2.0,59.791304435868895,2026-01-17 11h28.50.739949 +0530,
,Objects\105a.jpg,164,0,165,,,,,f,1.5895626999554224,0.15252990002045408,None,,,,,,165,0,164,1561.221491000033,,,,,,,,,,,,,,,,,,,,,,,1561.2054669000208,1561.221491000033,1561.7066682000295,,,,,,,,,,,,,,,,,,,,1561.7162928000325,1561.739904600021,1561.739904600021,1561.739904600021,1564.7172560000326,indoor,f,1.5895626999554224,0.15252990002045408,1564.71729890001,1564.7173111000448,None,,,,,,,,,,,,,,00039,001,2026-01-17_11h27.57.476,MST_task,2024.2.0,59.791304435868895,2026-01-17 11h28.50.739949 +0530,
,Objects\141a.jpg,165,0,166,,,,,j,2.5092193000018597,0.1517759999842383,None,,,,,,166,0,165,1564.7338776999968,,,,,,,,,,,,,,,,,,,,,,,1564.7174213000108,1564.7338776999968,1565.2188287000172,,,,,,,,,,,,,,,,,,,,1565.2282354999916,1565.2524100000155,1565.2524100000155,1565.2524100000155,1568.2294624000206,indoor,j,2.5092193000018597,0.1517759999842383,1568.229669000022,1568.2296818000032,None,,,,,,,,,,,,,,00039,001,2026-01-17_11h27.57.476,MST_task,2024.2.0,59.791304435868895,2026-01-17 11h28.50.739949 +0530,
,Objects\138a.jpg,166,0,167,,,,,j,2.284346700005699,0.14412269997410476,None,,,,,,167,0,166,1568.246064100007,,,,,,,,,,,,,,,,,,,,,,,1568.22975150001,1568.246064100007,1568.731370900001,,,,,,,,,,,,,,,,,,,,1568.7411261000088,1568.7647323000128,1568.7647323000128,1568.7647323000128,1571.7416337000323,indoor,j,2.284346700005699,0.14412269997410476,1571.7416762000066,1571.7416879000375,None,,,,,,,,,,,,,,00039,001,2026-01-17_11h27.57.476,MST_task,2024.2.0,59.791304435868895,2026-01-17 11h28.50.739949 +0530,
,Objects\288a.jpg,167,0,168,,,,,f,0.9241136999917217,0.14474999997764826,None,,,,,,168,0,167,1571.758475300041,,,,,,,,,,,,,,,,,,,,,,,1571.7417581000482,1571.758475300041,1572.2434780000476,,,,,,,,,,,,,,,,,,,,1572.258519600029,1572.276905100036,1572.276905100036,1572.276905100036,1575.2540471000248,indoor,f,0.9241136999917217,0.14474999997764826,1575.254100500024,1575.2541125999996,None,,,,,,,,,,,,,,00039,001,2026-01-17_11h27.57.476,MST_task,2024.2.0,59.791304435868895,2026-01-17 11h28.50.739949 +0530,
,Objects\101a.jpg,168,0,169,,,,,f,1.3797052000300027,0.18470559996785596,None,,,,,,169,0,168,1575.2706689999904,,,,,,,,,,,,,,,,,,,,,,,1575.254181700002,1575.2706689999904,1575.7558522000327,,,,,,,,,,,,,,,,,,,,1575.7736182000372,1575.7891002999968,1575.7891002999968,1575.7891002999968,1578.767013100034,shoe,f,1.3797052000300027,0.18470559996785596,1578.7685208000476,1578.7685435000458,None,,,,,,,,,,,,,,00039,001,2026-01-17_11h27.57.476,MST_task,2024.2.0,59.791304435868895,2026-01-17 11h28.50.739949 +0530,
,Objects\094a.jpg,169,0,170,,,,,f,2.2519266000017524,0.14345249999314547,None,,,,,,170,0,169,1578.7830620000022,,,,,,,,,,,,,,,,,,,,,,,1578.7686315000174,1578.7830620000022,1579.2686367999995,,,,,,,,,,,,1579.3016478000209,,,,,,,,1579.278172100021,1579.3016478000209,1579.3016478000209,1579.3016478000209,1582.2788525000215,shoe,f,2.2519266000017524,0.14345249999314547,1582.2788957000012,1582.2789095999906,None,,,,,,,,,,,,,,00039,001,2026-01-17_11h27.57.476,MST_task,2024.2.0,59.791304435868895,2026-01-17 11h28.50.739949 +0530,
,Objects\359a.jpg,170,0,171,,,,,f,2.4518016999936663,0.14313189999666065,None,,,,,,171,0,170,1582.2953176000156,,,,,,,,,,,,,,,,,,,,,,,1582.2790184000041,1582.2953176000156,1582.7806610999978,,,,,,,,,,,,,,,,,,,,1582.7970600000117,1582.8136912999908,1582.8136912999908,1582.8136912999908,1585.7911126000108,shoe,f,2.4518016999936663,0.14313189999666065,1585.7911593000172,1585.7911720999982,None,,,,,,,,,,,,,,00039,001,2026-01-17_11h27.57.476,MST_task,2024.2.0,59.791304435868895,2026-01-17 11h28.50.739949 +0530,
,Objects\208a.jpg,171,0,172,,,,,f,2.707038199994713,0.183981699985452,None,,,,,,172,0,171,1585.8076887000352,,,,,,,,,,,,,,,,,,,,,,,1585.7912462000386,1585.8076887000352,1586.2928902000422,,,,,,,,,,,,,,,,,,,,1586.3063361000386,1586.3260126000387,1586.3260126000387,1586.3260126000387,1589.3031125999987,shoe,f,2.707038199994713,0.183981699985452,1589.3031671000062,1589.303178900038,None,,,,,,,,,,,,,,00039,001,2026-01-17_11h27.57.476,MST_task,2024.2.0,59.791304435868895,2026-01-17 11h28.50.739949 +0530,
,Objects\381a.jpg,172,0,173,,,,,j,1.6751890000305139,0.16795899998396635,None,,,,,,173,0,172,1589.3202457000152,,,,,,,,,,,,,,,,,,,,,,,1589.303246400028,1589.3202457000152,1589.8049438000307,,,,,,,,,,,,,,,,,,,,1589.8231643000036,1589.8384150000056,1589.8384150000056,1589.8384150000056,1592.8156270000036,shoe,j,1.6751890000305139,0.16795899998396635,1592.81566870003,1592.8156805000035,None,,,,,,,,,,,,,,00039,001,2026-01-17_11h27.57.476,MST_task,2024.2.0,59.791304435868895,2026-01-17 11h28.50.739949 +0530,
,Objects\362a.jpg,173,0,174,,,,,f,1.355760200007353,0.17522199999075383,None,,,,,,174,0,173,1592.8323246000218,,,,,,,,,,,,,,,,,,,,,,,1592.815785999992,1592.8323246000218,1593.3173545000027,,,,,,,,,,,,,,,,,,,,1593.331197099993,1593.3505888000363,1593.3505888000363,1593.3505888000363,1596.3277672000113,shoe,f,1.355760200007353,0.17522199999075383,1596.3278081000317,1596.3278202000074,None,,,,,,,,,,,,,,00039,001,2026-01-17_11h27.57.476,MST_task,2024.2.0,59.791304435868895,2026-01-17 11h28.50.739949 +0530,
,Objects\178a.jpg,174,0,175,,,,,f,0.9537986000068486,0.17686639999737963,None,,,,,,175,0,174,1596.3445930000162,,,,,,,,,,,,,,,,,,,,,,,1596.3279061000212,1596.3445930000162,1596.829622899997,,,,,,,,,,,,,,,,,,,,1596.8447990000132,1596.8631301000132,1596.8631301000132,1596.8631301000132,1599.840273000009,shoe,f,0.9537986000068486,0.17686639999737963,1599.840314900037,1599.8403266000096,None,,,,,,,,,,,,,,00039,001,2026-01-17_11h27.57.476,MST_task,2024.2.0,59.791304435868895,2026-01-17 11h28.50.739949 +0530,
,Objects\107a.jpg,175,0,176,,,,,j,2.7544630999909714,0.19244199997046962,None,,,,,,176,0,175,1599.8568589999923,,,,,,,,,,,,,,,,,,,,,,,1599.8403947000043,1599.8568589999923,1600.3419639000203,,,,,,,,,,,,,,,,,,,,1600.3522932000342,1600.3752406000276,1600.3752406000276,1600.3752406000276,1603.3523573999992,indoor,j,2.7544630999909714,0.19244199997046962,1603.3535833000205,1603.3536024999921,None,,,,,,,,,,,,,,00039,001,2026-01-17_11h27.57.476,MST_task,2024.2.0,59.791304435868895,2026-01-17 11h28.50.739949 +0530,
,Objects\238a.jpg,176,0,177,,,,,f,1.1619540000101551,0.14364849997218698,None,,,,,,177,0,176,1603.3692898000008,,,,,,,,,,,,,,,,,,,,,,,1603.3536733000074,1603.3692898000008,1603.8541793000186,,,,,,,,,,,,,,,,,,,,1603.8713596000453,1603.887742699997,1603.887742699997,1603.887742699997,1606.8647601000266,indoor,f,1.1619540000101551,0.14364849997218698,1606.8648094999953,1606.8648219000315,None,,,,,,,,,,,,,,00039,001,2026-01-17_11h27.57.476,MST_task,2024.2.0,59.791304435868895,2026-01-17 11h28.50.739949 +0530,
,Objects\257a.jpg,177,0,178,,,,,f,2.337866200017743,0.1355811000103131,None,,,,,,178,0,177,1606.8816716000438,,,,,,,,,,,,,,,,,,,,,,,1606.8648902000277,1606.8816716000438,1607.3665680999984,,,,,,,,,,,,,,,,,,,,1607.3801460000104,1607.3997911000042,1607.3997911000042,1607.3997911000042,1610.3769129000138,indoor,f,2.337866200017743,0.1355811000103131,1610.3769652000046,1610.376977100037,None,,,,,,,,,,,,,,00039,001,2026-01-17_11h27.57.476,MST_task,2024.2.0,59.791304435868895,2026-01-17 11h28.50.739949 +0530,
,Objects\068a.jpg,178,0,179,,,,,j,2.0652926999609917,0.12797040003351867,None,,,,,,179,0,178,1610.3937754000071,,,,,,,,,,,,,,,,,,,,,,,1610.3770440000226,1610.3937754000071,1610.8788529000012,,,,,,,,,,,,,,,,,,,,1610.8935832999996,1610.9122025000397,1610.9122025000397,1610.9122025000397,1613.8893604000332,indoor,j,2.0652926999609917,0.12797040003351867,1613.8894013999961,1613.889412700024,None,,,,,,,,,,,,,,00039,001,2026-01-17_11h27.57.476,MST_task,2024.2.0,59.791304435868895,2026-01-17 11h28.50.739949 +0530,
,Objects\190a.jpg,179,0,180,,,,,f,1.3681700000306591,0.14395019999938086,None,,,,,,180,0,179,1613.9059461000143,,,,,,,,,,,,,,,,,,,,,,,1613.8894813000225,1613.9059461000143,1614.3911436999915,,,,,,,,,,,,,,,,,,,,1614.400530999992,1614.424982800032,1614.424982800032,1614.424982800032,1617.4015814000159,indoor,f,1.3681700000306591,0.14395019999938086,1617.401632299996,1617.4016459000413,None,,,,,,,,,,,,,,00039,001,2026-01-17_11h27.57.476,MST_task,2024.2.0,59.791304435868895,2026-01-17 11h28.50.739949 +0530,
,Objects\231a.jpg,180,0,181,,,,,j,2.729415900015738,0.10266049997881055,None,,,,,,181,0,180,1617.41854340001,,,,,,,,,,,,,,,,,,,,,,,1617.4017259000102,1617.41854340001,1617.903360299999,,,,,,,,,,,,,,,,,,,,1617.920950300002,1617.9369790999917,1617.9369790999917,1617.9369790999917,1620.914161099994,indoor,j,2.729415900015738,0.10266049997881055,1620.9142024000175,1620.9142142999917,None,,,,,,,,,,,,,,00039,001,2026-01-17_11h27.57.476,MST_task,2024.2.0,59.791304435868895,2026-01-17 11h28.50.739949 +0530,
