thisN,thisTrialN,thisRepN,key_resp_3.keys,key_resp_3.rt,key_resp_3.duration,trials.thisRepN,trials.thisTrialN,trials.thisN,thisRow.t,notes,intro_page.started,text.started,key_resp.started,intro_page.stopped,key_resp.keys,key_resp.rt,key_resp.duration,instructions.started,text_2.started,key_resp_2.started,instructions.stopped,key_resp_2.keys,key_resp_2.rt,key_resp_2.duration,demo1.started,image_1.started,image_2.started,text_7.started,key_resp_6.started,text_9.started,demo1.stopped,key_resp_6.keys,key_resp_6.rt,key_resp_6.duration,demo3.started,image_5.started,image_6.started,text_11.started,text_12.started,key_resp_8.started,demo3.stopped,key_resp_8.keys,key_resp_8.rt,key_resp_8.duration,demo_conclusion.started,text_13.started,key_resp_9.started,demo_conclusion.stopped,key_resp_9.keys,key_resp_9.rt,key_resp_9.duration,start_test.started,text_6.started,key_resp_5.started,start_test.stopped,key_resp_5.keys,key_resp_5.rt,key_resp_5.duration,ISI.started,text_4.started,text_4.stopped,ISI.stopped,routine_1.started,image.started,text_3.started,key_resp_3.started,routine_1.stopped,image_path,position_of_stimuli,trials.key_resp_3.keys,trials.key_resp_3.rt,trials.key_resp_3.duration,End_page.started,text_5.started,key_resp_4.started,End_page.stopped,key_resp_4.keys,key_resp_4.rt,key_resp_4.duration,participant,session,date,expName,psychopyVersion,frameRate,expStart,
,,,,,,,,,,,0.0019412000001466367,0.004093999999895459,0.004093999999895459,4.489164399999936,space,4.473862599999848,None,,,,,,,,,,,,,,,,,,,,,,,,,,,,,,,,,,,,,,,,,,,,,,,,,,,,,,,,,,,,,,,00030,001,2025-11-15_18h38.22.342,MST_test,2024.2.0,59.93831148988586,2025-11-15 18h38.29.553193 +0530,
,,,,,,,,,,,,,,,,,,4.489215099999456,4.503729199999725,4.503729199999725,23.603165399999853,space,19.094863799999985,None,,,,,,,,,,,,,,,,,,,,,,,,,,,,,,,,,,,,,,,,,,,,,,,,,,,,,,,,00030,001,2025-11-15_18h38.22.342,MST_test,2024.2.0,59.93831148988586,2025-11-15 18h38.29.553193 +0530,
,,,,,,,,,,,,,,,,,,,,,,,,,23.603269799999907,23.619708700000047,23.619708700000047,23.619708700000047,23.619708700000047,23.619708700000047,33.88823989999946,space,10.258540600000742,None,,,,,,,,,,,,,,,,,,,,,,,,,,,,,,,,,,,,,,,,,,,,,,00030,001,2025-11-15_18h38.22.342,MST_test,2024.2.0,59.93831148988586,2025-11-15 18h38.29.553193 +0530,
,,,,,,,,,,,,,,,,,,,,,,,,,,,,,,,,,,,33.888332499999706,33.90156949999982,33.90156949999982,33.90156949999982,33.90156949999982,33.90156949999982,40.28681760000018,space,6.3763552999998865,None,,,,,,,,,,,,,,,,,,,,,,,,,,,,,,,,,,,,00030,001,2025-11-15_18h38.22.342,MST_test,2024.2.0,59.93831148988586,2025-11-15 18h38.29.553193 +0530,
,,,,,,,,,,,,,,,,,,,,,,,,,,,,,,,,,,,,,,,,,,,,,40.28692769999998,40.30100130000028,40.30100130000028,69.98617279999962,space,29.673938800000542,None,,,,,,,,,,,,,,,,,,,,,,,,,,,,,00030,001,2025-11-15_18h38.22.342,MST_test,2024.2.0,59.93831148988586,2025-11-15 18h38.29.553193 +0530,
,,,,,,,,,,,,,,,,,,,,,,,,,,,,,,,,,,,,,,,,,,,,,,,,,,,,69.98630580000008,70.01114499999949,70.01114499999949,142.53672879999976,space,72.51499630000035,None,,,,,,,,,,,,,,,,,,,,,,00030,001,2025-11-15_18h38.22.342,MST_test,2024.2.0,59.93831148988586,2025-11-15 18h38.29.553193 +0530,
0,0,1,s,15.134436500000447,None,1,0,0,142.5506505000003,,,,,,,,,,,,,,,,,,,,,,,,,,,,,,,,,,,,,,,,,,,,,,,,,,142.5470190999995,142.5506505000003,143.06345229999988,143.03509339999982,143.0606760999999,143.06345229999988,143.06345229999988,143.06345229999988,158.2024468999998,Foils\098a.jpg,none,s,15.134436500000447,None,,,,,,,,00030,001,2025-11-15_18h38.22.342,MST_test,2024.2.0,59.93831148988586,2025-11-15 18h38.29.553193 +0530,
1,0,2,s,13.61402739999994,None,2,0,1,158.21743659999993,,,,,,,,,,,,,,,,,,,,,,,,,,,,,,,,,,,,,,,,,,,,,,,,,,158.2026810999996,158.21743659999993,158.7203730000001,158.70173160000013,158.71776429999954,158.7203730000001,158.7203730000001,158.7203730000001,172.33655670000007,Objects\361b.jpg,mid,s,13.61402739999994,None,,,,,,,,00030,001,2025-11-15_18h38.22.342,MST_test,2024.2.0,59.93831148988586,2025-11-15 18h38.29.553193 +0530,
2,0,3,s,8.458536600000116,None,3,0,2,172.35086989999945,,,,,,,,,,,,,,,,,,,,,,,,,,,,,,,,,,,,,,,,,,,,,,,,,,172.3369475999998,172.35086989999945,172.8513866000003,172.83511099999942,172.84585309999966,172.8513866000003,172.8513866000003,172.8513866000003,181.32017149999956,Objects\242a.jpg,pre,s,8.458536600000116,None,,,,,,,,00030,001,2025-11-15_18h38.22.342,MST_test,2024.2.0,59.93831148988586,2025-11-15 18h38.29.553193 +0530,
3,0,4,o,10.995609600000535,None,4,0,3,181.33419979999962,,,,,,,,,,,,,,,,,,,,,,,,,,,,,,,,,,,,,,,,,,,,,,,,,,181.32054489999973,181.33419979999962,181.8343033000001,181.81884869999976,181.82712329999958,181.8343033000001,181.8343033000001,181.8343033000001,192.83657889999995,Objects\082a.jpg,pre,o,10.995609600000535,None,,,,,,,,00030,001,2025-11-15_18h38.22.342,MST_test,2024.2.0,59.93831148988586,2025-11-15 18h38.29.553193 +0530,
4,0,5,o,4.335189600000376,None,5,0,4,192.85083200000008,,,,,,,,,,,,,,,,,,,,,,,,,,,,,,,,,,,,,,,,,,,,,,,,,,192.8369272,192.85083200000008,193.35136669999974,193.33541100000002,193.3456987999998,193.35136669999974,193.35136669999974,193.35136669999974,197.70301049999944,Objects\211a.jpg,mid,o,4.335189600000376,None,,,,,,,,00030,001,2025-11-15_18h38.22.342,MST_test,2024.2.0,59.93831148988586,2025-11-15 18h38.29.553193 +0530,
5,0,6,s,7.348774699999922,None,6,0,5,197.7175011999998,,,,,,,,,,,,,,,,,,,,,,,,,,,,,,,,,,,,,,,,,,,,,,,,,,197.70334869999988,197.7175011999998,198.2179054999997,198.20231429999967,198.20877180000025,198.2179054999997,198.2179054999997,198.2179054999997,205.57000619999963,Objects\315a.jpg,mid,s,7.348774699999922,None,,,,,,,,00030,001,2025-11-15_18h38.22.342,MST_test,2024.2.0,59.93831148988586,2025-11-15 18h38.29.553193 +0530,
6,0,7,n,5.060845999999401,None,7,0,6,205.58405119999952,,,,,,,,,,,,,,,,,,,,,,,,,,,,,,,,,,,,,,,,,,,,,,,,,,205.5703601999994,205.58405119999952,206.08905869999944,206.06876790000024,206.08645009999964,206.08905869999944,206.08905869999944,206.08905869999944,211.15346539999973,Foils\002a.jpg,none,n,5.060845999999401,None,,,,,,,,00030,001,2025-11-15_18h38.22.342,MST_test,2024.2.0,59.93831148988586,2025-11-15 18h38.29.553193 +0530,
7,0,8,o,4.655984799999715,None,8,0,7,211.1674527999994,,,,,,,,,,,,,,,,,,,,,,,,,,,,,,,,,,,,,,,,,,,,,,,,,,211.15382020000015,211.1674527999994,211.67825470000025,211.6519088999994,211.67547469999954,211.67825470000025,211.67825470000025,211.67825470000025,216.33716089999962,Objects\231b.jpg,mid,o,4.655984799999715,None,,,,,,,,00030,001,2025-11-15_18h38.22.342,MST_test,2024.2.0,59.93831148988586,2025-11-15 18h38.29.553193 +0530,
8,0,9,o,4.3628308000006655,None,9,0,8,216.35088910000013,,,,,,,,,,,,,,,,,,,,,,,,,,,,,,,,,,,,,,,,,,,,,,,,,,216.33756339999945,216.35088910000013,216.8513149999999,216.83479859999989,216.83904489999986,216.8513149999999,216.8513149999999,216.8513149999999,221.21918230000028,Objects\101a.jpg,pre,o,4.3628308000006655,None,,,,,,,,00030,001,2025-11-15_18h38.22.342,MST_test,2024.2.0,59.93831148988586,2025-11-15 18h38.29.553193 +0530,
9,0,10,o,3.535728200000449,None,10,0,9,221.23400930000025,,,,,,,,,,,,,,,,,,,,,,,,,,,,,,,,,,,,,,,,,,,,,,,,,,221.21940639999957,221.23400930000025,221.73417419999987,221.71839089999958,221.72418629999993,221.73417419999987,221.73417419999987,221.73417419999987,225.2863854999996,Objects\108a.jpg,post,o,3.535728200000449,None,,,,,,,,00030,001,2025-11-15_18h38.22.342,MST_test,2024.2.0,59.93831148988586,2025-11-15 18h38.29.553193 +0530,
10,0,11,o,3.5727535000005446,None,11,0,10,225.30081439999958,,,,,,,,,,,,,,,,,,,,,,,,,,,,,,,,,,,,,,,,,,,,,,,,,,225.28672970000025,225.30081439999958,225.80138439999973,225.7850171,225.7917768999996,225.80138439999973,225.80138439999973,225.80138439999973,229.38695240000015,Objects\371a.jpg,post,o,3.5727535000005446,None,,,,,,,,00030,001,2025-11-15_18h38.22.342,MST_test,2024.2.0,59.93831148988586,2025-11-15 18h38.29.553193 +0530,
11,0,12,o,7.589481699999851,None,12,0,11,229.40083989999948,,,,,,,,,,,,,,,,,,,,,,,,,,,,,,,,,,,,,,,,,,,,,,,,,,229.38735739999993,229.40083989999948,229.90426089999983,229.88497480000024,229.9016862999997,229.90426089999983,229.90426089999983,229.90426089999983,237.5030225999999,Objects\155b.jpg,mid,o,7.589481699999851,None,,,,,,,,00030,001,2025-11-15_18h38.22.342,MST_test,2024.2.0,59.93831148988586,2025-11-15 18h38.29.553193 +0530,
12,0,13,o,3.0183938000000126,None,13,0,12,237.51745740000024,,,,,,,,,,,,,,,,,,,,,,,,,,,,,,,,,,,,,,,,,,,,,,,,,,237.50340439999945,237.51745740000024,238.02075590000004,238.00203539999984,238.0184349000001,238.02075590000004,238.02075590000004,238.02075590000004,241.05288550000023,Objects\380b.jpg,post,o,3.0183938000000126,None,,,,,,,,00030,001,2025-11-15_18h38.22.342,MST_test,2024.2.0,59.93831148988586,2025-11-15 18h38.29.553193 +0530,
13,0,14,s,4.198057699999481,None,14,0,13,241.06746219999968,,,,,,,,,,,,,,,,,,,,,,,,,,,,,,,,,,,,,,,,,,,,,,,,,,241.05324219999966,241.06746219999968,241.56803839999975,241.55200390000027,241.56143989999964,241.56803839999975,241.56803839999975,241.56803839999975,245.76996150000014,Objects\207a.jpg,post,s,4.198057699999481,None,,,,,,,,00030,001,2025-11-15_18h38.22.342,MST_test,2024.2.0,59.93831148988586,2025-11-15 18h38.29.553193 +0530,
14,0,15,s,4.846169800000098,None,15,0,14,245.78404820000014,,,,,,,,,,,,,,,,,,,,,,,,,,,,,,,,,,,,,,,,,,,,,,,,,,245.77037819999987,245.78404820000014,246.2877109000001,246.26867159999983,246.28503529999944,246.2877109000001,246.2877109000001,246.2877109000001,251.1365168000002,Objects\135b.jpg,mid,s,4.846169800000098,None,,,,,,,,00030,001,2025-11-15_18h38.22.342,MST_test,2024.2.0,59.93831148988586,2025-11-15 18h38.29.553193 +0530,
15,0,16,s,3.458844499999941,None,16,0,15,251.1507713000001,,,,,,,,,,,,,,,,,,,,,,,,,,,,,,,,,,,,,,,,,,,,,,,,,,251.1368381000002,251.1507713000001,251.6512318999994,251.63542059999963,251.64194450000014,251.6512318999994,251.6512318999994,251.6512318999994,255.11998179999955,Objects\085a.jpg,mid,s,3.458844499999941,None,,,,,,,,00030,001,2025-11-15_18h38.22.342,MST_test,2024.2.0,59.93831148988586,2025-11-15 18h38.29.553193 +0530,
16,0,17,n,3.0251363000006677,None,17,0,16,255.1339954999994,,,,,,,,,,,,,,,,,,,,,,,,,,,,,,,,,,,,,,,,,,,,,,,,,,255.1203605999999,255.1339954999994,255.63755609999953,255.6189975999996,255.6351794000002,255.63755609999953,255.63755609999953,255.63755609999953,258.66964629999984,Objects\331b.jpg,post,n,3.0251363000006677,None,,,,,,,,00030,001,2025-11-15_18h38.22.342,MST_test,2024.2.0,59.93831148988586,2025-11-15 18h38.29.553193 +0530,
17,0,18,o,10.389853900000162,None,18,0,17,258.68402289999995,,,,,,,,,,,,,,,,,,,,,,,,,,,,,,,,,,,,,,,,,,,,,,,,,,258.66995469999983,258.68402289999995,259.18420679999963,259.1686615999997,259.1771444999995,259.18420679999963,259.18420679999963,259.18420679999963,269.5863281000002,Objects\118a.jpg,pre,o,10.389853900000162,None,,,,,,,,00030,001,2025-11-15_18h38.22.342,MST_test,2024.2.0,59.93831148988586,2025-11-15 18h38.29.553193 +0530,
18,0,19,o,1.92951979999998,None,19,0,18,269.6008259,,,,,,,,,,,,,,,,,,,,,,,,,,,,,,,,,,,,,,,,,,,,,,,,,,269.58672209999986,269.6008259,270.1009518000001,270.08524709999983,270.0936176999994,270.1009518000001,270.1009518000001,270.1009518000001,272.0368493999995,Objects\020a.jpg,mid,o,1.92951979999998,None,,,,,,,,00030,001,2025-11-15_18h38.22.342,MST_test,2024.2.0,59.93831148988586,2025-11-15 18h38.29.553193 +0530,
19,0,20,o,1.3990653999999267,None,20,0,19,272.0507687999998,,,,,,,,,,,,,,,,,,,,,,,,,,,,,,,,,,,,,,,,,,,,,,,,,,272.0372252999996,272.0507687999998,272.55094929999996,272.5353931999998,272.54162709999946,272.55094929999996,272.55094929999996,272.55094929999996,273.95335539999996,Objects\103a.jpg,pre,o,1.3990653999999267,None,,,,,,,,00030,001,2025-11-15_18h38.22.342,MST_test,2024.2.0,59.93831148988586,2025-11-15 18h38.29.553193 +0530,
20,0,21,o,2.0860474000000977,None,21,0,20,273.96756879999975,,,,,,,,,,,,,,,,,,,,,,,,,,,,,,,,,,,,,,,,,,,,,,,,,,273.9537187999995,273.96756879999975,274.4717141000001,274.4521525,274.4693843999994,274.4717141000001,274.4717141000001,274.4717141000001,276.5695870999998,Foils\066a.jpg,none,o,2.0860474000000977,None,,,,,,,,00030,001,2025-11-15_18h38.22.342,MST_test,2024.2.0,59.93831148988586,2025-11-15 18h38.29.553193 +0530,
21,0,22,n,6.012795699999515,None,22,0,21,276.5840293000001,,,,,,,,,,,,,,,,,,,,,,,,,,,,,,,,,,,,,,,,,,,,,,,,,,276.5699268999997,276.5840293000001,277.0892770999999,277.06864549999955,277.08682709999994,277.0892770999999,277.0892770999999,277.0892770999999,283.11951150000004,Objects\223b.jpg,mid,n,6.012795699999515,None,,,,,,,,00030,001,2025-11-15_18h38.22.342,MST_test,2024.2.0,59.93831148988586,2025-11-15 18h38.29.553193 +0530,
22,0,23,n,3.6357326999996076,None,23,0,22,283.13400790000014,,,,,,,,,,,,,,,,,,,,,,,,,,,,,,,,,,,,,,,,,,,,,,,,,,283.11982179999995,283.13400790000014,283.6345408999996,283.6181326999995,283.63192400000025,283.6345408999996,283.6345408999996,283.6345408999996,287.2869596999999,Foils\f6.jpg,none,n,3.6357326999996076,None,,,,,,,,00030,001,2025-11-15_18h38.22.342,MST_test,2024.2.0,59.93831148988586,2025-11-15 18h38.29.553193 +0530,
23,0,24,n,2.5049126000003525,None,24,0,23,287.3008761000001,,,,,,,,,,,,,,,,,,,,,,,,,,,,,,,,,,,,,,,,,,,,,,,,,,287.2872989999996,287.3008761000001,287.80517559999953,287.7853476999999,287.8025250999999,287.80517559999953,287.80517559999953,287.80517559999953,290.3200307999996,Objects\352b.jpg,post,n,2.5049126000003525,None,,,,,,,,00030,001,2025-11-15_18h38.22.342,MST_test,2024.2.0,59.93831148988586,2025-11-15 18h38.29.553193 +0530,
24,0,25,n,6.091259499999978,None,25,0,24,290.33426450000024,,,,,,,,,,,,,,,,,,,,,,,,,,,,,,,,,,,,,,,,,,,,,,,,,,290.32042569999976,290.33426450000024,290.83470429999943,290.8188795999995,290.82750899999974,290.83470429999943,290.83470429999943,290.83470429999943,296.93681860000015,Objects\111a.jpg,post,n,6.091259499999978,None,,,,,,,,00030,001,2025-11-15_18h38.22.342,MST_test,2024.2.0,59.93831148988586,2025-11-15 18h38.29.553193 +0530,
25,0,26,s,3.773175500000434,None,26,0,25,296.95094919999974,,,,,,,,,,,,,,,,,,,,,,,,,,,,,,,,,,,,,,,,,,,,,,,,,,296.9371781,296.95094919999974,297.4727485000003,297.4353100999997,297.4698558,297.4727485000003,297.4727485000003,297.4727485000003,301.25364850000005,Objects\350b.jpg,pre,s,3.773175500000434,None,,,,,,,,00030,001,2025-11-15_18h38.22.342,MST_test,2024.2.0,59.93831148988586,2025-11-15 18h38.29.553193 +0530,
26,0,27,s,8.28614639999978,None,27,0,26,301.2675816000001,,,,,,,,,,,,,,,,,,,,,,,,,,,,,,,,,,,,,,,,,,,,,,,,,,301.2539790999999,301.2675816000001,301.7680995999999,301.7521684000003,301.7606329,301.7680995999999,301.7680995999999,301.7680995999999,310.06950700000016,Objects\015a.jpg,post,s,8.28614639999978,None,,,,,,,,00030,001,2025-11-15_18h38.22.342,MST_test,2024.2.0,59.93831148988586,2025-11-15 18h38.29.553193 +0530,
27,0,28,n,4.184427899999719,None,28,0,27,310.0840983999997,,,,,,,,,,,,,,,,,,,,,,,,,,,,,,,,,,,,,,,,,,,,,,,,,,310.06985259999965,310.0840983999997,310.6057638000002,310.5687777000003,310.6032445999999,310.6057638000002,310.6057638000002,310.6057638000002,314.8033876999998,Objects\049b.jpg,mid,n,4.184427899999719,None,,,,,,,,00030,001,2025-11-15_18h38.22.342,MST_test,2024.2.0,59.93831148988586,2025-11-15 18h38.29.553193 +0530,
28,0,29,n,6.552243799999815,None,29,0,28,314.81763729999966,,,,,,,,,,,,,,,,,,,,,,,,,,,,,,,,,,,,,,,,,,,,,,,,,,314.8037678999999,314.81763729999966,315.3176390999997,315.3021130999996,315.3089480999997,315.3176390999997,315.3176390999997,315.3176390999997,321.88600719999977,Objects\252a.jpg,mid,n,6.552243799999815,None,,,,,,,,00030,001,2025-11-15_18h38.22.342,MST_test,2024.2.0,59.93831148988586,2025-11-15 18h38.29.553193 +0530,
29,0,30,n,6.5303349000005255,None,30,0,29,321.90072020000025,,,,,,,,,,,,,,,,,,,,,,,,,,,,,,,,,,,,,,,,,,,,,,,,,,321.88635019999947,321.90072020000025,322.4040951999996,322.3851242999999,322.40179629999966,322.4040951999996,322.4040951999996,322.4040951999996,328.93684349999967,Foils\058a.jpg,none,n,6.5303349000005255,None,,,,,,,,00030,001,2025-11-15_18h38.22.342,MST_test,2024.2.0,59.93831148988586,2025-11-15 18h38.29.553193 +0530,
30,0,31,s,3.6751365999998598,None,31,0,30,328.9508635000002,,,,,,,,,,,,,,,,,,,,,,,,,,,,,,,,,,,,,,,,,,,,,,,,,,328.9372301000003,328.9508635000002,329.4510640999997,329.43499789999987,329.44248179999977,329.4510640999997,329.4510640999997,329.4510640999997,333.13518529999965,Objects\172a.jpg,mid,s,3.6751365999998598,None,,,,,,,,00030,001,2025-11-15_18h38.22.342,MST_test,2024.2.0,59.93831148988586,2025-11-15 18h38.29.553193 +0530,
31,0,32,n,6.936260999999831,None,32,0,31,333.15066359999946,,,,,,,,,,,,,,,,,,,,,,,,,,,,,,,,,,,,,,,,,,,,,,,,,,333.1353449999997,333.15066359999946,333.6538706000001,333.63525370000025,333.651433,333.6538706000001,333.6538706000001,333.6538706000001,340.60318110000026,Objects\106b.jpg,mid,n,6.936260999999831,None,,,,,,,,00030,001,2025-11-15_18h38.22.342,MST_test,2024.2.0,59.93831148988586,2025-11-15 18h38.29.553193 +0530,
32,0,33,s,4.152125800000249,None,33,0,32,340.61744459999954,,,,,,,,,,,,,,,,,,,,,,,,,,,,,,,,,,,,,,,,,,,,,,,,,,340.6035732,340.61744459999954,341.1175704999996,341.10207530000025,341.1113035999997,341.1175704999996,341.1175704999996,341.1175704999996,345.28674520000004,Objects\037a.jpg,post,s,4.152125800000249,None,,,,,,,,00030,001,2025-11-15_18h38.22.342,MST_test,2024.2.0,59.93831148988586,2025-11-15 18h38.29.553193 +0530,
33,0,34,s,2.2923366000004535,None,34,0,33,345.3009169999996,,,,,,,,,,,,,,,,,,,,,,,,,,,,,,,,,,,,,,,,,,,,,,,,,,345.28710150000006,345.3009169999996,345.80145209999955,345.7848632999994,345.7936651,345.80145209999955,345.80145209999955,345.80145209999955,348.10327080000025,Objects\250a.jpg,mid,s,2.2923366000004535,None,,,,,,,,00030,001,2025-11-15_18h38.22.342,MST_test,2024.2.0,59.93831148988586,2025-11-15 18h38.29.553193 +0530,
34,0,35,n,4.721223100000316,None,35,0,34,348.11741149999943,,,,,,,,,,,,,,,,,,,,,,,,,,,,,,,,,,,,,,,,,,,,,,,,,,348.10365209999964,348.11741149999943,348.62140679999993,348.6021442000001,348.6186087999995,348.62140679999993,348.62140679999993,348.62140679999993,353.3534843999996,Foils\101b.jpg,none,n,4.721223100000316,None,,,,,,,,00030,001,2025-11-15_18h38.22.342,MST_test,2024.2.0,59.93831148988586,2025-11-15 18h38.29.553193 +0530,
35,0,36,s,6.333905899999991,None,36,0,35,353.36736070000006,,,,,,,,,,,,,,,,,,,,,,,,,,,,,,,,,,,,,,,,,,,,,,,,,,353.3538331,353.36736070000006,353.8718695999996,353.8517406000001,353.8695719999996,353.8718695999996,353.8718695999996,353.8718695999996,360.21995199999947,Foils\057a.jpg,none,s,6.333905899999991,None,,,,,,,,00030,001,2025-11-15_18h38.22.342,MST_test,2024.2.0,59.93831148988586,2025-11-15 18h38.29.553193 +0530,
36,0,37,n,1.5731445000001258,None,37,0,36,360.23409470000024,,,,,,,,,,,,,,,,,,,,,,,,,,,,,,,,,,,,,,,,,,,,,,,,,,360.2203219000003,360.23409470000024,360.73726799999986,360.718801,360.7349132999998,360.73726799999986,360.73726799999986,360.73726799999986,362.32006850000016,Objects\285b.jpg,post,n,1.5731445000001258,None,,,,,,,,00030,001,2025-11-15_18h38.22.342,MST_test,2024.2.0,59.93831148988586,2025-11-15 18h38.29.553193 +0530,
37,0,38,o,4.587544799999705,None,38,0,37,362.3337163999995,,,,,,,,,,,,,,,,,,,,,,,,,,,,,,,,,,,,,,,,,,,,,,,,,,362.3206040999994,362.3337163999995,362.8346652,362.81854250000015,362.82434079999985,362.8346652,362.8346652,362.8346652,367.43591409999954,Objects\322a.jpg,pre,o,4.587544799999705,None,,,,,,,,00030,001,2025-11-15_18h38.22.342,MST_test,2024.2.0,59.93831148988586,2025-11-15 18h38.29.553193 +0530,
38,0,39,o,2.4386232999995627,None,39,0,38,367.4506958000002,,,,,,,,,,,,,,,,,,,,,,,,,,,,,,,,,,,,,,,,,,,,,,,,,,367.43631449999975,367.4506958000002,367.9513992000002,367.9350070999999,367.9426023999995,367.9513992000002,367.9513992000002,367.9513992000002,370.40299609999965,Objects\210a.jpg,mid,o,2.4386232999995627,None,,,,,,,,00030,001,2025-11-15_18h38.22.342,MST_test,2024.2.0,59.93831148988586,2025-11-15 18h38.29.553193 +0530,
39,0,40,o,2.9860607999999047,None,40,0,39,370.4173458999994,,,,,,,,,,,,,,,,,,,,,,,,,,,,,,,,,,,,,,,,,,,,,,,,,,370.40342580000015,370.4173458999994,370.9237253000001,370.9023312999998,370.92098239999996,370.9237253000001,370.9237253000001,370.9237253000001,373.9195377999995,Objects\251b.jpg,post,o,2.9860607999999047,None,,,,,,,,00030,001,2025-11-15_18h38.22.342,MST_test,2024.2.0,59.93831148988586,2025-11-15 18h38.29.553193 +0530,
40,0,41,o,2.353470600000037,None,41,0,40,373.93383689999973,,,,,,,,,,,,,,,,,,,,,,,,,,,,,,,,,,,,,,,,,,,,,,,,,,373.9199596999997,373.93383689999973,374.43691750000016,374.41878069999984,374.43418550000024,374.43691750000016,374.43691750000016,374.43691750000016,376.80326909999985,Objects\042b.jpg,pre,o,2.353470600000037,None,,,,,,,,00030,001,2025-11-15_18h38.22.342,MST_test,2024.2.0,59.93831148988586,2025-11-15 18h38.29.553193 +0530,
41,0,42,s,4.404827899999873,None,42,0,41,376.8173188999999,,,,,,,,,,,,,,,,,,,,,,,,,,,,,,,,,,,,,,,,,,,,,,,,,,376.8035775999997,376.8173188999999,377.3215325000001,377.3019432000001,377.3191233999996,377.3215325000001,377.3215325000001,377.3215325000001,381.7363395000002,Objects\116b.jpg,mid,s,4.404827899999873,None,,,,,,,,00030,001,2025-11-15_18h38.22.342,MST_test,2024.2.0,59.93831148988586,2025-11-15 18h38.29.553193 +0530,
42,0,43,n,3.199348899999677,None,43,0,42,381.7508012999997,,,,,,,,,,,,,,,,,,,,,,,,,,,,,,,,,,,,,,,,,,,,,,,,,,381.7367535000003,381.7508012999997,382.25473189999957,382.2350569,382.25245189999987,382.25473189999957,382.25473189999957,382.25473189999957,385.4698467999997,Objects\314b.jpg,pre,n,3.199348899999677,None,,,,,,,,00030,001,2025-11-15_18h38.22.342,MST_test,2024.2.0,59.93831148988586,2025-11-15 18h38.29.553193 +0530,
43,0,44,s,1.9674480000003314,None,44,0,43,385.4838928999998,,,,,,,,,,,,,,,,,,,,,,,,,,,,,,,,,,,,,,,,,,,,,,,,,,385.4702500000003,385.4838928999998,385.99030029999994,385.9684728000002,385.9879542999997,385.99030029999994,385.99030029999994,385.99030029999994,387.9697765000001,Objects\102b.jpg,post,s,1.9674480000003314,None,,,,,,,,00030,001,2025-11-15_18h38.22.342,MST_test,2024.2.0,59.93831148988586,2025-11-15 18h38.29.553193 +0530,
44,0,45,s,2.5573567999999796,None,45,0,44,387.9839614000002,,,,,,,,,,,,,,,,,,,,,,,,,,,,,,,,,,,,,,,,,,,,,,,,,,387.9701391999997,387.9839614000002,388.48832719999973,388.4686222,388.4857869999996,388.48832719999973,388.48832719999973,388.48832719999973,391.05311410000013,Objects\053b.jpg,pre,s,2.5573567999999796,None,,,,,,,,00030,001,2025-11-15_18h38.22.342,MST_test,2024.2.0,59.93831148988586,2025-11-15 18h38.29.553193 +0530,
45,0,46,n,3.7168010999994294,None,46,0,45,391.0672790999997,,,,,,,,,,,,,,,,,,,,,,,,,,,,,,,,,,,,,,,,,,,,,,,,,,391.05340999999953,391.0672790999997,391.56964809999954,391.55194570000003,391.5672642999998,391.56964809999954,391.56964809999954,391.56964809999954,395.30290049999985,Foils\010a.jpg,none,n,3.7168010999994294,None,,,,,,,,00030,001,2025-11-15_18h38.22.342,MST_test,2024.2.0,59.93831148988586,2025-11-15 18h38.29.553193 +0530,
46,0,47,s,4.245669999999336,None,47,0,46,395.3173256,,,,,,,,,,,,,,,,,,,,,,,,,,,,,,,,,,,,,,,,,,,,,,,,,,395.30320800000027,395.3173256,395.8239996000002,395.8019783999998,395.82161429999996,395.8239996000002,395.8239996000002,395.8239996000002,400.08559890000015,Objects\246b.jpg,post,s,4.245669999999336,None,,,,,,,,00030,001,2025-11-15_18h38.22.342,MST_test,2024.2.0,59.93831148988586,2025-11-15 18h38.29.553193 +0530,
47,0,48,o,5.812455599999339,None,48,0,47,400.10065459999987,,,,,,,,,,,,,,,,,,,,,,,,,,,,,,,,,,,,,,,,,,,,,,,,,,400.0858615999996,400.10065459999987,400.6012447000003,400.58517089999987,400.5933212,400.6012447000003,400.6012447000003,400.6012447000003,406.42024969999966,Objects\383a.jpg,post,o,5.812455599999339,None,,,,,,,,00030,001,2025-11-15_18h38.22.342,MST_test,2024.2.0,59.93831148988586,2025-11-15 18h38.29.553193 +0530,
48,0,49,n,2.5238484000001336,None,49,0,48,406.43414979999943,,,,,,,,,,,,,,,,,,,,,,,,,,,,,,,,,,,,,,,,,,,,,,,,,,406.4206385999996,406.43414979999943,406.93830139999955,406.9187498000001,406.93548009999995,406.93830139999955,406.93830139999955,406.93830139999955,409.4701593,Foils\065a.jpg,none,n,2.5238484000001336,None,,,,,,,,00030,001,2025-11-15_18h38.22.342,MST_test,2024.2.0,59.93831148988586,2025-11-15 18h38.29.553193 +0530,
49,0,50,s,3.398010400000203,None,50,0,49,409.48409549999997,,,,,,,,,,,,,,,,,,,,,,,,,,,,,,,,,,,,,,,,,,,,,,,,,,409.47051719999945,409.48409549999997,409.99234979999983,409.96853569999985,409.9896308999996,409.99234979999983,409.99234979999983,409.99234979999983,413.40280939999957,Objects\217b.jpg,mid,s,3.398010400000203,None,,,,,,,,00030,001,2025-11-15_18h38.22.342,MST_test,2024.2.0,59.93831148988586,2025-11-15 18h38.29.553193 +0530,
50,0,51,n,2.7864589999999225,None,51,0,50,413.4174555999998,,,,,,,,,,,,,,,,,,,,,,,,,,,,,,,,,,,,,,,,,,,,,,,,,,413.4031898000003,413.4174555999998,413.92321769999944,413.9020523999998,413.9202749999995,413.92321769999944,413.92321769999944,413.92321769999944,416.7197589999996,Objects\341b.jpg,mid,n,2.7864589999999225,None,,,,,,,,00030,001,2025-11-15_18h38.22.342,MST_test,2024.2.0,59.93831148988586,2025-11-15 18h38.29.553193 +0530,
51,0,52,s,3.947887399999672,None,52,0,51,416.73405809999986,,,,,,,,,,,,,,,,,,,,,,,,,,,,,,,,,,,,,,,,,,,,,,,,,,416.7201421999998,416.73405809999986,417.2340895999996,417.21863440000016,417.2265682999996,417.2340895999996,417.2340895999996,417.2340895999996,421.1863056000002,Objects\147a.jpg,pre,s,3.947887399999672,None,,,,,,,,00030,001,2025-11-15_18h38.22.342,MST_test,2024.2.0,59.93831148988586,2025-11-15 18h38.29.553193 +0530,
52,0,53,s,5.945160399999622,None,53,0,52,421.20079410000017,,,,,,,,,,,,,,,,,,,,,,,,,,,,,,,,,,,,,,,,,,,,,,,,,,421.1866818999997,421.20079410000017,421.7009238999999,421.6852748000001,421.6922150999999,421.7009238999999,421.7009238999999,421.7009238999999,427.65294900000026,Objects\313a.jpg,mid,s,5.945160399999622,None,,,,,,,,00030,001,2025-11-15_18h38.22.342,MST_test,2024.2.0,59.93831148988586,2025-11-15 18h38.29.553193 +0530,
53,0,54,s,2.7262299000003622,None,54,0,53,427.6674333000001,,,,,,,,,,,,,,,,,,,,,,,,,,,,,,,,,,,,,,,,,,,,,,,,,,427.6532695999995,427.6674333000001,428.16789270000027,428.1516406999999,428.1592787999998,428.16789270000027,428.16789270000027,428.16789270000027,430.90329010000005,Objects\255a.jpg,post,s,2.7262299000003622,None,,,,,,,,00030,001,2025-11-15_18h38.22.342,MST_test,2024.2.0,59.93831148988586,2025-11-15 18h38.29.553193 +0530,
54,0,55,s,2.8153935000000274,None,55,0,54,430.9175100000002,,,,,,,,,,,,,,,,,,,,,,,,,,,,,,,,,,,,,,,,,,,,,,,,,,430.90362619999996,430.9175100000002,431.42294609999954,431.40204600000015,431.42018180000014,431.42294609999954,431.42294609999954,431.42294609999954,434.2531328999994,Objects\058b.jpg,pre,s,2.8153935000000274,None,,,,,,,,00030,001,2025-11-15_18h38.22.342,MST_test,2024.2.0,59.93831148988586,2025-11-15 18h38.29.553193 +0530,
55,0,56,n,7.114379700000427,None,56,0,55,434.2675939999999,,,,,,,,,,,,,,,,,,,,,,,,,,,,,,,,,,,,,,,,,,,,,,,,,,434.2535243000002,434.2675939999999,434.77180899999985,434.7521243000001,434.7693161999996,434.77180899999985,434.77180899999985,434.77180899999985,441.9032132000002,Foils\033a.jpg,none,n,7.114379700000427,None,,,,,,,,00030,001,2025-11-15_18h38.22.342,MST_test,2024.2.0,59.93831148988586,2025-11-15 18h38.29.553193 +0530,
56,0,57,n,2.399174399999538,None,57,0,56,441.91728689999945,,,,,,,,,,,,,,,,,,,,,,,,,,,,,,,,,,,,,,,,,,,,,,,,,,441.9036200999999,441.91728689999945,442.4228647,442.40198729999975,442.42049450000013,442.4228647,442.4228647,442.4228647,444.8363588000002,Foils\097a.jpg,none,n,2.399174399999538,None,,,,,,,,00030,001,2025-11-15_18h38.22.342,MST_test,2024.2.0,59.93831148988586,2025-11-15 18h38.29.553193 +0530,
57,0,58,n,2.1882760999997117,None,58,0,57,444.8507534999999,,,,,,,,,,,,,,,,,,,,,,,,,,,,,,,,,,,,,,,,,,,,,,,,,,444.8367570999999,444.8507534999999,445.3541030999995,445.3350894999994,445.35167529999944,445.3541030999995,445.3541030999995,445.3541030999995,447.55256069999996,Objects\307b.jpg,pre,n,2.1882760999997117,None,,,,,,,,00030,001,2025-11-15_18h38.22.342,MST_test,2024.2.0,59.93831148988586,2025-11-15 18h38.29.553193 +0530,
58,0,59,s,2.850332299999536,None,59,0,58,447.5672850000001,,,,,,,,,,,,,,,,,,,,,,,,,,,,,,,,,,,,,,,,,,,,,,,,,,447.5529065999999,447.5672850000001,448.0678299000001,448.0519813000001,448.06221899999946,448.0678299000001,448.0678299000001,448.0678299000001,450.92024930000025,Objects\254a.jpg,mid,s,2.850332299999536,None,,,,,,,,00030,001,2025-11-15_18h38.22.342,MST_test,2024.2.0,59.93831148988586,2025-11-15 18h38.29.553193 +0530,
59,0,60,s,2.5191083999998227,None,60,0,59,450.93385729999954,,,,,,,,,,,,,,,,,,,,,,,,,,,,,,,,,,,,,,,,,,,,,,,,,,450.92064500000015,450.93385729999954,451.4383877999999,451.41848329999993,451.4356509999998,451.4383877999999,451.4383877999999,451.4383877999999,453.9686468,Objects\279b.jpg,post,s,2.5191083999998227,None,,,,,,,,00030,001,2025-11-15_18h38.22.342,MST_test,2024.2.0,59.93831148988586,2025-11-15 18h38.29.553193 +0530,
60,0,61,s,4.1054845000007845,None,61,0,60,453.9838007999997,,,,,,,,,,,,,,,,,,,,,,,,,,,,,,,,,,,,,,,,,,,,,,,,,,453.9688798999996,453.9838007999997,454.4844498000002,454.46826280000005,454.47558349999963,454.4844498000002,454.4844498000002,454.4844498000002,458.60312669999985,Objects\304a.jpg,post,s,4.1054845000007845,None,,,,,,,,00030,001,2025-11-15_18h38.22.342,MST_test,2024.2.0,59.93831148988586,2025-11-15 18h38.29.553193 +0530,
61,0,62,s,2.0680732999999236,None,62,0,61,458.6173539000001,,,,,,,,,,,,,,,,,,,,,,,,,,,,,,,,,,,,,,,,,,,,,,,,,,458.60348729999987,458.6173539000001,459.1217876999999,459.1019190999996,459.1190428,459.1217876999999,459.1217876999999,459.1217876999999,461.2026215999995,Objects\104b.jpg,mid,s,2.0680732999999236,None,,,,,,,,00030,001,2025-11-15_18h38.22.342,MST_test,2024.2.0,59.93831148988586,2025-11-15 18h38.29.553193 +0530,
62,0,63,s,3.1522774000004574,None,63,0,62,461.21729609999966,,,,,,,,,,,,,,,,,,,,,,,,,,,,,,,,,,,,,,,,,,,,,,,,,,461.20299410000007,461.21729609999966,461.7178640000002,461.70158790000005,461.7084993999997,461.7178640000002,461.7178640000002,461.7178640000002,464.88644509999995,Objects\348a.jpg,mid,s,3.1522774000004574,None,,,,,,,,00030,001,2025-11-15_18h38.22.342,MST_test,2024.2.0,59.93831148988586,2025-11-15 18h38.29.553193 +0530,
63,0,64,s,2.037533099999564,None,64,0,63,464.9006116999999,,,,,,,,,,,,,,,,,,,,,,,,,,,,,,,,,,,,,,,,,,,,,,,,,,464.88682549999976,464.9006116999999,465.40122989999963,465.38500079999994,465.39269409999997,465.40122989999963,465.40122989999963,465.40122989999963,467.4526728000001,Objects\225a.jpg,mid,s,2.037533099999564,None,,,,,,,,00030,001,2025-11-15_18h38.22.342,MST_test,2024.2.0,59.93831148988586,2025-11-15 18h38.29.553193 +0530,
64,0,65,o,2.4936828999998397,None,65,0,64,467.4672836,,,,,,,,,,,,,,,,,,,,,,,,,,,,,,,,,,,,,,,,,,,,,,,,,,467.4530557999997,467.4672836,467.96803589999945,467.95176639999954,467.9599301999997,467.96803589999945,467.96803589999945,467.96803589999945,470.46939269999984,Objects\265a.jpg,pre,o,2.4936828999998397,None,,,,,,,,00030,001,2025-11-15_18h38.22.342,MST_test,2024.2.0,59.93831148988586,2025-11-15 18h38.29.553193 +0530,
65,0,66,o,2.9337842000004457,None,66,0,65,470.48392890000014,,,,,,,,,,,,,,,,,,,,,,,,,,,,,,,,,,,,,,,,,,,,,,,,,,470.46966710000015,470.48392890000014,470.9845258999994,470.9685325999999,470.9754524,470.9845258999994,470.9845258999994,470.9845258999994,473.92101120000007,Objects\036a.jpg,post,o,2.9337842000004457,None,,,,,,,,00030,001,2025-11-15_18h38.22.342,MST_test,2024.2.0,59.93831148988586,2025-11-15 18h38.29.553193 +0530,
66,0,67,s,3.2911292999997386,None,67,0,66,473.9339353999994,,,,,,,,,,,,,,,,,,,,,,,,,,,,,,,,,,,,,,,,,,,,,,,,,,473.92147380000006,473.9339353999994,474.4346407000003,474.4180470000001,474.42541170000004,474.4346407000003,474.4346407000003,474.4346407000003,477.73634239999956,Objects\247a.jpg,pre,s,3.2911292999997386,None,,,,,,,,00030,001,2025-11-15_18h38.22.342,MST_test,2024.2.0,59.93831148988586,2025-11-15 18h38.29.553193 +0530,
67,0,68,n,3.2828934999997728,None,68,0,67,477.7506099000002,,,,,,,,,,,,,,,,,,,,,,,,,,,,,,,,,,,,,,,,,,,,,,,,,,477.73666159999993,477.7506099000002,478.25124760000017,478.23517829999946,478.2428608,478.25124760000017,478.25124760000017,478.25124760000017,481.5371263999996,Objects\120a.jpg,post,n,3.2828934999997728,None,,,,,,,,00030,001,2025-11-15_18h38.22.342,MST_test,2024.2.0,59.93831148988586,2025-11-15 18h38.29.553193 +0530,
68,0,69,s,8.802947900000618,None,69,0,68,481.5507034000002,,,,,,,,,,,,,,,,,,,,,,,,,,,,,,,,,,,,,,,,,,,,,,,,,,481.5374700000002,481.5507034000002,482.05081509999945,482.0351701999998,482.04154629999994,482.05081509999945,482.05081509999945,482.05081509999945,490.8698239999994,Objects\317a.jpg,pre,s,8.802947900000618,None,,,,,,,,00030,001,2025-11-15_18h38.22.342,MST_test,2024.2.0,59.93831148988586,2025-11-15 18h38.29.553193 +0530,
69,0,70,o,2.110202699999718,None,70,0,69,490.88391779999984,,,,,,,,,,,,,,,,,,,,,,,,,,,,,,,,,,,,,,,,,,,,,,,,,,490.87024849999943,490.88391779999984,491.3841814999996,491.3687785000002,491.37754570000016,491.3841814999996,491.3841814999996,491.3841814999996,493.50300719999996,Objects\125a.jpg,mid,o,2.110202699999718,None,,,,,,,,00030,001,2025-11-15_18h38.22.342,MST_test,2024.2.0,59.93831148988586,2025-11-15 18h38.29.553193 +0530,
70,0,71,n,2.684345900000153,None,71,0,70,493.5172327999999,,,,,,,,,,,,,,,,,,,,,,,,,,,,,,,,,,,,,,,,,,,,,,,,,,493.50329259999944,493.5172327999999,494.0177543,494.0018750999998,494.0116221999997,494.0177543,494.0177543,494.0177543,496.7188417999996,Objects\094a.jpg,post,n,2.684345900000153,None,,,,,,,,00030,001,2025-11-15_18h38.22.342,MST_test,2024.2.0,59.93831148988586,2025-11-15 18h38.29.553193 +0530,
71,0,72,n,2.1000140999994983,None,72,0,71,496.7338579999996,,,,,,,,,,,,,,,,,,,,,,,,,,,,,,,,,,,,,,,,,,,,,,,,,,496.7191557999995,496.7338579999996,497.23400669999955,497.21865660000003,497.22503359999973,497.23400669999955,497.23400669999955,497.23400669999955,499.3369826999997,Objects\122a.jpg,post,n,2.1000140999994983,None,,,,,,,,00030,001,2025-11-15_18h38.22.342,MST_test,2024.2.0,59.93831148988586,2025-11-15 18h38.29.553193 +0530,
72,0,73,s,4.715068399999836,None,73,0,72,499.3505998999999,,,,,,,,,,,,,,,,,,,,,,,,,,,,,,,,,,,,,,,,,,,,,,,,,,499.33736129999943,499.3505998999999,499.85124480000013,499.83512840000003,499.84261960000003,499.85124480000013,499.85124480000013,499.85124480000013,504.56984139999986,Objects\291a.jpg,post,s,4.715068399999836,None,,,,,,,,00030,001,2025-11-15_18h38.22.342,MST_test,2024.2.0,59.93831148988586,2025-11-15 18h38.29.553193 +0530,
73,0,74,o,1.4650222000000213,None,74,0,73,504.5838856999999,,,,,,,,,,,,,,,,,,,,,,,,,,,,,,,,,,,,,,,,,,,,,,,,,,504.57019760000003,504.5838856999999,505.0844140999998,505.0684196000002,505.0757524999999,505.0844140999998,505.0844140999998,505.0844140999998,506.5520028000001,Objects\078a.jpg,post,o,1.4650222000000213,None,,,,,,,,00030,001,2025-11-15_18h38.22.342,MST_test,2024.2.0,59.93831148988586,2025-11-15 18h38.29.553193 +0530,
74,0,75,s,1.8450765999996293,None,75,0,74,506.56718139999975,,,,,,,,,,,,,,,,,,,,,,,,,,,,,,,,,,,,,,,,,,,,,,,,,,506.5522492,506.56718139999975,507.0728643000002,507.0518248999997,507.06989559999965,507.0728643000002,507.0728643000002,507.0728643000002,508.91948390000016,Objects\230b.jpg,mid,s,1.8450765999996293,None,,,,,,,,00030,001,2025-11-15_18h38.22.342,MST_test,2024.2.0,59.93831148988586,2025-11-15 18h38.29.553193 +0530,
75,0,76,s,2.120561699999598,None,76,0,75,508.93389659999957,,,,,,,,,,,,,,,,,,,,,,,,,,,,,,,,,,,,,,,,,,,,,,,,,,508.91979119999996,508.93389659999957,509.43702959999973,509.41871850000007,509.43440719999944,509.43702959999973,509.43702959999973,509.43702959999973,511.5698389999998,Objects\299b.jpg,pre,s,2.120561699999598,None,,,,,,,,00030,001,2025-11-15_18h38.22.342,MST_test,2024.2.0,59.93831148988586,2025-11-15 18h38.29.553193 +0530,
76,0,77,s,10.305117900000369,None,77,0,76,511.5838273999998,,,,,,,,,,,,,,,,,,,,,,,,,,,,,,,,,,,,,,,,,,,,,,,,,,511.5701852000002,511.5838273999998,512.084468,512.0687089000003,512.0741760000001,512.084468,512.084468,512.084468,522.4031235000002,Objects\270a.jpg,post,s,10.305117900000369,None,,,,,,,,00030,001,2025-11-15_18h38.22.342,MST_test,2024.2.0,59.93831148988586,2025-11-15 18h38.29.553193 +0530,
77,0,78,n,3.182056000000557,None,78,0,77,522.4174063999999,,,,,,,,,,,,,,,,,,,,,,,,,,,,,,,,,,,,,,,,,,,,,,,,,,522.4035305999996,522.4174063999999,522.9201608000003,522.9017273,522.9176656,522.9201608000003,522.9201608000003,522.9201608000003,526.1195539,Objects\179b.jpg,pre,n,3.182056000000557,None,,,,,,,,00030,001,2025-11-15_18h38.22.342,MST_test,2024.2.0,59.93831148988586,2025-11-15 18h38.29.553193 +0530,
78,0,79,n,1.6497946000008596,None,79,0,78,526.1338051000002,,,,,,,,,,,,,,,,,,,,,,,,,,,,,,,,,,,,,,,,,,,,,,,,,,526.1199424999995,526.1338051000002,526.6358473,526.6186017999999,526.6335078000002,526.6358473,526.6358473,526.6358473,528.302764,Foils\050a.jpg,none,n,1.6497946000008596,None,,,,,,,,00030,001,2025-11-15_18h38.22.342,MST_test,2024.2.0,59.93831148988586,2025-11-15 18h38.29.553193 +0530,
79,0,80,s,1.9254971999998816,None,80,0,79,528.3173060999998,,,,,,,,,,,,,,,,,,,,,,,,,,,,,,,,,,,,,,,,,,,,,,,,,,528.3031007,528.3173060999998,528.8174100999995,528.8024034999999,528.8106515999998,528.8174100999995,528.8174100999995,528.8174100999995,530.7523487999997,Objects\099a.jpg,pre,s,1.9254971999998816,None,,,,,,,,00030,001,2025-11-15_18h38.22.342,MST_test,2024.2.0,59.93831148988586,2025-11-15 18h38.29.553193 +0530,
80,0,81,n,2.856354999999894,None,81,0,80,530.7673046999998,,,,,,,,,,,,,,,,,,,,,,,,,,,,,,,,,,,,,,,,,,,,,,,,,,530.7525880000003,530.7673046999998,531.2699235,531.2519393000002,531.2675503999999,531.2699235,531.2699235,531.2699235,534.1360223000001,Foils\105a.jpg,none,n,2.856354999999894,None,,,,,,,,00030,001,2025-11-15_18h38.22.342,MST_test,2024.2.0,59.93831148988586,2025-11-15 18h38.29.553193 +0530,
81,0,82,s,5.650507999999718,None,82,0,81,534.1507371999996,,,,,,,,,,,,,,,,,,,,,,,,,,,,,,,,,,,,,,,,,,,,,,,,,,534.1363150999996,534.1507371999996,534.6513138,534.6348195999999,534.6429890999998,534.6513138,534.6513138,534.6513138,540.3190976999995,Objects\346a.jpg,pre,s,5.650507999999718,None,,,,,,,,00030,001,2025-11-15_18h38.22.342,MST_test,2024.2.0,59.93831148988586,2025-11-15 18h38.29.553193 +0530,
82,0,83,s,1.8513929999999164,None,83,0,82,540.3337591999998,,,,,,,,,,,,,,,,,,,,,,,,,,,,,,,,,,,,,,,,,,,,,,,,,,540.3193964000002,540.3337591999998,540.8342814999996,540.8185272000001,540.8260473999999,540.8342814999996,540.8342814999996,540.8342814999996,542.7032867999997,Objects\368a.jpg,post,s,1.8513929999999164,None,,,,,,,,00030,001,2025-11-15_18h38.22.342,MST_test,2024.2.0,59.93831148988586,2025-11-15 18h38.29.553193 +0530,
83,0,84,s,1.720814600000267,None,84,0,83,542.7173889999995,,,,,,,,,,,,,,,,,,,,,,,,,,,,,,,,,,,,,,,,,,,,,,,,,,542.7036982,542.7173889999995,543.2211662,543.2019104999999,543.2184932,543.2211662,543.2211662,543.2211662,544.9535146999997,Objects\186b.jpg,pre,s,1.720814600000267,None,,,,,,,,00030,001,2025-11-15_18h38.22.342,MST_test,2024.2.0,59.93831148988586,2025-11-15 18h38.29.553193 +0530,
84,0,85,s,3.5345671000004586,None,85,0,84,544.9673612999995,,,,,,,,,,,,,,,,,,,,,,,,,,,,,,,,,,,,,,,,,,,,,,,,,,544.9538201999994,544.9673612999995,545.4721983,545.4519664,545.4696777999998,545.4721983,545.4721983,545.4721983,549.0193385000002,Objects\091b.jpg,pre,s,3.5345671000004586,None,,,,,,,,00030,001,2025-11-15_18h38.22.342,MST_test,2024.2.0,59.93831148988586,2025-11-15 18h38.29.553193 +0530,
85,0,86,s,5.302500599999803,None,86,0,85,549.0338302999999,,,,,,,,,,,,,,,,,,,,,,,,,,,,,,,,,,,,,,,,,,,,,,,,,,549.0197234999996,549.0338302999999,549.5347523999999,549.5183443999995,549.5258484999995,549.5347523999999,549.5347523999999,549.5347523999999,554.8537164999998,Objects\338a.jpg,mid,s,5.302500599999803,None,,,,,,,,00030,001,2025-11-15_18h38.22.342,MST_test,2024.2.0,59.93831148988586,2025-11-15 18h38.29.553193 +0530,
86,0,87,o,5.4022533999996085,None,87,0,86,554.8672476000002,,,,,,,,,,,,,,,,,,,,,,,,,,,,,,,,,,,,,,,,,,,,,,,,,,554.8542068999996,554.8672476000002,555.3713269,555.3520908999999,555.3687161999997,555.3713269,555.3713269,555.3713269,560.7866653000001,Objects\096b.jpg,post,o,5.4022533999996085,None,,,,,,,,00030,001,2025-11-15_18h38.22.342,MST_test,2024.2.0,59.93831148988586,2025-11-15 18h38.29.553193 +0530,
87,0,88,s,1.8176265000001877,None,88,0,87,560.8007016000001,,,,,,,,,,,,,,,,,,,,,,,,,,,,,,,,,,,,,,,,,,,,,,,,,,560.7870846999995,560.8007016000001,561.3007259999995,561.2848592999999,561.2903980000001,561.3007259999995,561.3007259999995,561.3007259999995,563.1357468999995,Objects\044a.jpg,post,s,1.8176265000001877,None,,,,,,,,00030,001,2025-11-15_18h38.22.342,MST_test,2024.2.0,59.93831148988586,2025-11-15 18h38.29.553193 +0530,
88,0,89,s,6.7413470999999845,None,89,0,88,563.1506124999996,,,,,,,,,,,,,,,,,,,,,,,,,,,,,,,,,,,,,,,,,,,,,,,,,,563.1360279,563.1506124999996,563.6561703999996,563.6347409999998,563.6539671,563.6561703999996,563.6561703999996,563.6561703999996,570.4027004999998,Objects\072b.jpg,pre,s,6.7413470999999845,None,,,,,,,,00030,001,2025-11-15_18h38.22.342,MST_test,2024.2.0,59.93831148988586,2025-11-15 18h38.29.553193 +0530,
89,0,90,n,3.192271300000357,None,90,0,89,570.4172018999998,,,,,,,,,,,,,,,,,,,,,,,,,,,,,,,,,,,,,,,,,,,,,,,,,,570.4030578000002,570.4172018999998,570.9174342999995,570.9017199999998,570.9092007999998,570.9174342999995,570.9174342999995,570.9174342999995,574.1196529999997,Objects\166a.jpg,pre,n,3.192271300000357,None,,,,,,,,00030,001,2025-11-15_18h38.22.342,MST_test,2024.2.0,59.93831148988586,2025-11-15 18h38.29.553193 +0530,
90,0,91,n,2.6817939000002298,None,91,0,90,574.1339093999995,,,,,,,,,,,,,,,,,,,,,,,,,,,,,,,,,,,,,,,,,,,,,,,,,,574.1200103000001,574.1339093999995,574.6523538000001,574.6180330999996,574.649582,574.6523538000001,574.6523538000001,574.6523538000001,577.3364714999998,Objects\367b.jpg,pre,n,2.6817939000002298,None,,,,,,,,00030,001,2025-11-15_18h38.22.342,MST_test,2024.2.0,59.93831148988586,2025-11-15 18h38.29.553193 +0530,
91,0,92,n,1.496002199999566,None,92,0,91,577.3505479999994,,,,,,,,,,,,,,,,,,,,,,,,,,,,,,,,,,,,,,,,,,,,,,,,,,577.3368222999998,577.3505479999994,577.8535464999995,577.8348808000001,577.8510409999999,577.8535464999995,577.8535464999995,577.8535464999995,579.3533212000002,Foils\034a.jpg,none,n,1.496002199999566,None,,,,,,,,00030,001,2025-11-15_18h38.22.342,MST_test,2024.2.0,59.93831148988586,2025-11-15 18h38.29.553193 +0530,
92,0,93,n,2.6327502999993158,None,93,0,92,579.3672331999996,,,,,,,,,,,,,,,,,,,,,,,,,,,,,,,,,,,,,,,,,,,,,,,,,,579.3536325999994,579.3672331999996,579.8693895999995,579.8516534,579.8670537999997,579.8693895999995,579.8693895999995,579.8693895999995,582.5191938999997,Foils\113a.jpg,none,n,2.6327502999993158,None,,,,,,,,00030,001,2025-11-15_18h38.22.342,MST_test,2024.2.0,59.93831148988586,2025-11-15 18h38.29.553193 +0530,
93,0,94,o,1.8998572999998942,None,94,0,93,582.5339188999997,,,,,,,,,,,,,,,,,,,,,,,,,,,,,,,,,,,,,,,,,,,,,,,,,,582.5194763999998,582.5339188999997,583.0344415,583.0186569999996,583.0287466999998,583.0344415,583.0344415,583.0344415,584.9361297999994,Objects\218a.jpg,mid,o,1.8998572999998942,None,,,,,,,,00030,001,2025-11-15_18h38.22.342,MST_test,2024.2.0,59.93831148988586,2025-11-15 18h38.29.553193 +0530,
94,0,95,n,4.46222139999918,None,95,0,94,584.9507462000001,,,,,,,,,,,,,,,,,,,,,,,,,,,,,,,,,,,,,,,,,,,,,,,,,,584.9365338999996,584.9507462000001,585.4557317999997,585.4353302,585.4529806,585.4557317999997,585.4557317999997,585.4557317999997,589.9200441000003,Foils\049a.jpg,none,n,4.46222139999918,None,,,,,,,,00030,001,2025-11-15_18h38.22.342,MST_test,2024.2.0,59.93831148988586,2025-11-15 18h38.29.553193 +0530,
95,0,96,n,2.0182849000002534,None,96,0,95,589.9340734999996,,,,,,,,,,,,,,,,,,,,,,,,,,,,,,,,,,,,,,,,,,,,,,,,,,589.9204363999997,589.9340734999996,590.4359792999994,590.4187007,590.4333729999998,590.4359792999994,590.4359792999994,590.4359792999994,592.4697838000002,Objects\356b.jpg,post,n,2.0182849000002534,None,,,,,,,,00030,001,2025-11-15_18h38.22.342,MST_test,2024.2.0,59.93831148988586,2025-11-15 18h38.29.553193 +0530,
96,0,97,n,1.3523340000001554,None,97,0,96,592.4839546000003,,,,,,,,,,,,,,,,,,,,,,,,,,,,,,,,,,,,,,,,,,,,,,,,,,592.4701720000003,592.4839546000003,592.9896311000002,592.9688043999995,592.9868483,592.9896311000002,592.9896311000002,592.9896311000002,594.3526204,Objects\038b.jpg,mid,n,1.3523340000001554,None,,,,,,,,00030,001,2025-11-15_18h38.22.342,MST_test,2024.2.0,59.93831148988586,2025-11-15 18h38.29.553193 +0530,
97,0,98,n,2.6288868999999977,None,98,0,97,594.3672355999997,,,,,,,,,,,,,,,,,,,,,,,,,,,,,,,,,,,,,,,,,,,,,,,,,,594.3529907000002,594.3672355999997,594.8732702999996,594.8518617,594.8707810999995,594.8732702999996,594.8732702999996,594.8732702999996,597.5190768000002,Foils\042a.jpg,none,n,2.6288868999999977,None,,,,,,,,00030,001,2025-11-15_18h38.22.342,MST_test,2024.2.0,59.93831148988586,2025-11-15 18h38.29.553193 +0530,
98,0,99,s,2.8680014000001393,None,99,0,98,597.533754,,,,,,,,,,,,,,,,,,,,,,,,,,,,,,,,,,,,,,,,,,,,,,,,,,597.5194024000002,597.533754,598.0340686,598.0185966999998,598.0266161999998,598.0340686,598.0340686,598.0340686,600.9194697000003,Objects\187a.jpg,pre,s,2.8680014000001393,None,,,,,,,,00030,001,2025-11-15_18h38.22.342,MST_test,2024.2.0,59.93831148988586,2025-11-15 18h38.29.553193 +0530,
99,0,100,s,4.664456900000005,None,100,0,99,600.9339002999996,,,,,,,,,,,,,,,,,,,,,,,,,,,,,,,,,,,,,,,,,,,,,,,,,,600.9198004,600.9339002999996,601.4374908,601.4184988999996,601.4350984000002,601.4374908,601.4374908,601.4374908,606.1040876999996,Foils\086a.jpg,none,s,4.664456900000005,None,,,,,,,,00030,001,2025-11-15_18h38.22.342,MST_test,2024.2.0,59.93831148988586,2025-11-15 18h38.29.553193 +0530,
100,0,101,n,3.5012815000000046,None,101,0,100,606.1173692000002,,,,,,,,,,,,,,,,,,,,,,,,,,,,,,,,,,,,,,,,,,,,,,,,,,606.1044752999996,606.1173692000002,606.6173566999996,606.601971,606.6104625999997,606.6173566999996,606.6173566999996,606.6173566999996,610.1360027000001,Objects\178a.jpg,mid,n,3.5012815000000046,None,,,,,,,,00030,001,2025-11-15_18h38.22.342,MST_test,2024.2.0,59.93831148988586,2025-11-15 18h38.29.553193 +0530,
101,0,102,s,1.8988241000006383,None,102,0,101,610.1505541999995,,,,,,,,,,,,,,,,,,,,,,,,,,,,,,,,,,,,,,,,,,,,,,,,,,610.1364134999994,610.1505541999995,610.6511300000002,610.6345111999999,610.6478440999999,610.6511300000002,610.6511300000002,610.6511300000002,612.5529377000003,Objects\205b.jpg,post,s,1.8988241000006383,None,,,,,,,,00030,001,2025-11-15_18h38.22.342,MST_test,2024.2.0,59.93831148988586,2025-11-15 18h38.29.553193 +0530,
102,0,103,n,5.237186500000462,None,103,0,102,612.5672333000002,,,,,,,,,,,,,,,,,,,,,,,,,,,,,,,,,,,,,,,,,,,,,,,,,,612.5532787000002,612.5672333000002,613.0723741000002,613.0517072000002,613.0697185999998,613.0723741000002,613.0723741000002,613.0723741000002,618.3200569999999,Foils\093b.jpg,none,n,5.237186500000462,None,,,,,,,,00030,001,2025-11-15_18h38.22.342,MST_test,2024.2.0,59.93831148988586,2025-11-15 18h38.29.553193 +0530,
103,0,104,n,3.271890099999837,None,104,0,103,618.3339045000002,,,,,,,,,,,,,,,,,,,,,,,,,,,,,,,,,,,,,,,,,,,,,,,,,,618.3204083,618.3339045000002,618.8384750999994,618.8185856999999,618.8361730999995,618.8384750999994,618.8384750999994,618.8384750999994,622.1192658999998,Foils\074a.jpg,none,n,3.271890099999837,None,,,,,,,,00030,001,2025-11-15_18h38.22.342,MST_test,2024.2.0,59.93831148988586,2025-11-15 18h38.29.553193 +0530,
104,0,105,n,4.923812600000019,None,105,0,104,622.1337453999995,,,,,,,,,,,,,,,,,,,,,,,,,,,,,,,,,,,,,,,,,,,,,,,,,,622.1196365999995,622.1337453999995,622.6345824,622.6180156,622.6322745999996,622.6345824,622.6345824,622.6345824,627.5693226000003,Foils\009a.jpg,none,n,4.923812600000019,None,,,,,,,,00030,001,2025-11-15_18h38.22.342,MST_test,2024.2.0,59.93831148988586,2025-11-15 18h38.29.553193 +0530,
105,0,106,s,2.604173300000184,None,106,0,105,627.5837513999995,,,,,,,,,,,,,,,,,,,,,,,,,,,,,,,,,,,,,,,,,,,,,,,,,,627.5696450999994,627.5837513999995,628.0895049000001,628.0682175000002,628.0871987,628.0895049000001,628.0895049000001,628.0895049000001,630.7029379999994,Foils\090a.jpg,none,s,2.604173300000184,None,,,,,,,,00030,001,2025-11-15_18h38.22.342,MST_test,2024.2.0,59.93831148988586,2025-11-15 18h38.29.553193 +0530,
106,0,107,s,1.9671268000001874,None,107,0,106,630.7171644,,,,,,,,,,,,,,,,,,,,,,,,,,,,,,,,,,,,,,,,,,,,,,,,,,630.7032828000001,630.7171644,631.2230510999998,631.2018312,631.2203834000002,631.2230510999998,631.2230510999998,631.2230510999998,633.2029025000002,Objects\335b.jpg,pre,s,1.9671268000001874,None,,,,,,,,00030,001,2025-11-15_18h38.22.342,MST_test,2024.2.0,59.93831148988586,2025-11-15 18h38.29.553193 +0530,
107,0,108,s,2.5661335999993753,None,108,0,107,633.2171988999999,,,,,,,,,,,,,,,,,,,,,,,,,,,,,,,,,,,,,,,,,,,,,,,,,,633.2032094999995,633.2171988999999,633.7205721,633.7018106999994,633.7178779999995,633.7205721,633.7205721,633.7205721,636.3023596000003,Objects\048b.jpg,post,s,2.5661335999993753,None,,,,,,,,00030,001,2025-11-15_18h38.22.342,MST_test,2024.2.0,59.93831148988586,2025-11-15 18h38.29.553193 +0530,
108,0,109,s,5.818867599999976,None,109,0,108,636.3171579999998,,,,,,,,,,,,,,,,,,,,,,,,,,,,,,,,,,,,,,,,,,,,,,,,,,636.3026663999999,636.3171579999998,636.8189949999996,636.8018118999998,636.8161334999995,636.8189949999996,636.8189949999996,636.8189949999996,642.6526982999994,Objects\195b.jpg,mid,s,5.818867599999976,None,,,,,,,,00030,001,2025-11-15_18h38.22.342,MST_test,2024.2.0,59.93831148988586,2025-11-15 18h38.29.553193 +0530,
109,0,110,o,3.0537524999999732,None,110,0,109,642.6673603999998,,,,,,,,,,,,,,,,,,,,,,,,,,,,,,,,,,,,,,,,,,,,,,,,,,642.6530028999996,642.6673603999998,643.1677047000003,643.1518341999999,643.1603637999997,643.1677047000003,643.1677047000003,643.1677047000003,646.2361798000002,Objects\197a.jpg,mid,o,3.0537524999999732,None,,,,,,,,00030,001,2025-11-15_18h38.22.342,MST_test,2024.2.0,59.93831148988586,2025-11-15 18h38.29.553193 +0530,
110,0,111,s,1.8750018999999156,None,111,0,110,646.2504735000002,,,,,,,,,,,,,,,,,,,,,,,,,,,,,,,,,,,,,,,,,,,,,,,,,,646.2365288000001,646.2504735000002,646.7550259999998,646.7351570000001,646.7525338999994,646.7550259999998,646.7550259999998,646.7550259999998,648.6362044999996,Foils\020b.jpg,none,s,1.8750018999999156,None,,,,,,,,00030,001,2025-11-15_18h38.22.342,MST_test,2024.2.0,59.93831148988586,2025-11-15 18h38.29.553193 +0530,
111,0,112,n,4.34571379999943,None,112,0,111,648.6505509999997,,,,,,,,,,,,,,,,,,,,,,,,,,,,,,,,,,,,,,,,,,,,,,,,,,648.6364975999995,648.6505509999997,649.1558802,649.1351439,649.1534836999999,649.1558802,649.1558802,649.1558802,653.5035508000001,Objects\175b.jpg,pre,n,4.34571379999943,None,,,,,,,,00030,001,2025-11-15_18h38.22.342,MST_test,2024.2.0,59.93831148988586,2025-11-15 18h38.29.553193 +0530,
112,0,113,s,1.796559299999899,None,113,0,112,653.5172659,,,,,,,,,,,,,,,,,,,,,,,,,,,,,,,,,,,,,,,,,,,,,,,,,,653.5038497999994,653.5172659,654.0174386999997,654.0016193000001,654.0151998000001,654.0174386999997,654.0174386999997,654.0174386999997,655.8196183999999,Objects\136b.jpg,post,s,1.796559299999899,None,,,,,,,,00030,001,2025-11-15_18h38.22.342,MST_test,2024.2.0,59.93831148988586,2025-11-15 18h38.29.553193 +0530,
113,0,114,s,6.183558900000207,None,114,0,113,655.8339102,,,,,,,,,,,,,,,,,,,,,,,,,,,,,,,,,,,,,,,,,,,,,,,,,,655.8199592000001,655.8339102,656.3340742999999,656.3186139999998,656.3253691999998,656.3340742999999,656.3340742999999,656.3340742999999,662.5201717,Objects\168a.jpg,mid,s,6.183558900000207,None,,,,,,,,00030,001,2025-11-15_18h38.22.342,MST_test,2024.2.0,59.93831148988586,2025-11-15 18h38.29.553193 +0530,
114,0,115,s,1.8754509999998845,None,115,0,114,662.5339543999999,,,,,,,,,,,,,,,,,,,,,,,,,,,,,,,,,,,,,,,,,,,,,,,,,,662.5205618,662.5339543999999,663.0340752000002,663.0184493999996,663.0261012000001,663.0340752000002,663.0340752000002,663.0340752000002,664.9192224999997,Objects\067a.jpg,post,s,1.8754509999998845,None,,,,,,,,00030,001,2025-11-15_18h38.22.342,MST_test,2024.2.0,59.93831148988586,2025-11-15 18h38.29.553193 +0530,
115,0,116,s,4.154899000000114,None,116,0,115,664.9338453,,,,,,,,,,,,,,,,,,,,,,,,,,,,,,,,,,,,,,,,,,,,,,,,,,664.9195337000001,664.9338453,665.4344973999996,665.4184458,665.4267195000002,665.4344973999996,665.4344973999996,665.4344973999996,669.6028925999999,Objects\229a.jpg,post,s,4.154899000000114,None,,,,,,,,00030,001,2025-11-15_18h38.22.342,MST_test,2024.2.0,59.93831148988586,2025-11-15 18h38.29.553193 +0530,
116,0,117,s,6.829427799999394,None,117,0,116,669.6172299,,,,,,,,,,,,,,,,,,,,,,,,,,,,,,,,,,,,,,,,,,,,,,,,,,669.6032835999995,669.6172299,670.1202378999997,670.1019471999998,670.1174506999996,670.1202378999997,670.1202378999997,670.1202378999997,676.9527853,Objects\366b.jpg,mid,s,6.829427799999394,None,,,,,,,,00030,001,2025-11-15_18h38.22.342,MST_test,2024.2.0,59.93831148988586,2025-11-15 18h38.29.553193 +0530,
117,0,118,s,1.869267299999592,None,118,0,117,676.9673409999996,,,,,,,,,,,,,,,,,,,,,,,,,,,,,,,,,,,,,,,,,,,,,,,,,,676.9531783000002,676.9673409999996,677.4729166999996,677.4518301999997,677.4699971999999,677.4729166999996,677.4729166999996,677.4729166999996,679.3529679000003,Objects\081b.jpg,pre,s,1.869267299999592,None,,,,,,,,00030,001,2025-11-15_18h38.22.342,MST_test,2024.2.0,59.93831148988586,2025-11-15 18h38.29.553193 +0530,
118,0,119,s,2.6987656000001152,None,119,0,118,679.3673994999999,,,,,,,,,,,,,,,,,,,,,,,,,,,,,,,,,,,,,,,,,,,,,,,,,,679.3533503999997,679.3673994999999,679.8674215000001,679.8517869999996,679.8598560999999,679.8674215000001,679.8674215000001,679.8674215000001,682.5699397999997,Objects\184a.jpg,pre,s,2.6987656000001152,None,,,,,,,,00030,001,2025-11-15_18h38.22.342,MST_test,2024.2.0,59.93831148988586,2025-11-15 18h38.29.553193 +0530,
119,0,120,n,5.85927939999965,None,120,0,119,682.5838807,,,,,,,,,,,,,,,,,,,,,,,,,,,,,,,,,,,,,,,,,,,,,,,,,,682.5703257999994,682.5838807,683.0908724999999,683.0685080000003,683.0884120000001,683.0908724999999,683.0908724999999,683.0908724999999,688.9534807999999,Foils\026a.jpg,none,n,5.85927939999965,None,,,,,,,,00030,001,2025-11-15_18h38.22.342,MST_test,2024.2.0,59.93831148988586,2025-11-15 18h38.29.553193 +0530,
120,0,121,n,2.9559165999999095,None,121,0,120,688.9671747000002,,,,,,,,,,,,,,,,,,,,,,,,,,,,,,,,,,,,,,,,,,,,,,,,,,688.9538238999994,688.9671747000002,689.4737413000003,689.4515759999995,689.4713025000001,689.4737413000003,689.4737413000003,689.4737413000003,692.4358782999998,Foils\121a.jpg,none,n,2.9559165999999095,None,,,,,,,,00030,001,2025-11-15_18h38.22.342,MST_test,2024.2.0,59.93831148988586,2025-11-15 18h38.29.553193 +0530,
121,0,122,s,2.962394499999391,None,122,0,121,692.4504584999995,,,,,,,,,,,,,,,,,,,,,,,,,,,,,,,,,,,,,,,,,,,,,,,,,,692.4361792,692.4504584999995,692.9553685000001,692.9348789999995,692.9526562000001,692.9553685000001,692.9553685000001,692.9553685000001,695.9197023999996,Objects\354b.jpg,post,s,2.962394499999391,None,,,,,,,,00030,001,2025-11-15_18h38.22.342,MST_test,2024.2.0,59.93831148988586,2025-11-15 18h38.29.553193 +0530,
122,0,123,s,7.045859500000006,None,123,0,122,695.9337415999998,,,,,,,,,,,,,,,,,,,,,,,,,,,,,,,,,,,,,,,,,,,,,,,,,,695.9200868999997,695.9337415999998,696.4398114999995,696.4182621999998,696.4371758999996,696.4398114999995,696.4398114999995,696.4398114999995,703.5026976999998,Objects\006b.jpg,pre,s,7.045859500000006,None,,,,,,,,00030,001,2025-11-15_18h38.22.342,MST_test,2024.2.0,59.93831148988586,2025-11-15 18h38.29.553193 +0530,
123,0,124,s,2.3204332000004797,None,124,0,123,703.5171363,,,,,,,,,,,,,,,,,,,,,,,,,,,,,,,,,,,,,,,,,,,,,,,,,,703.5030875000002,703.5171363,704.0210928999995,704.0016450000003,704.0187002000002,704.0210928999995,704.0210928999995,704.0210928999995,706.3525899999995,Objects\181b.jpg,mid,s,2.3204332000004797,None,,,,,,,,00030,001,2025-11-15_18h38.22.342,MST_test,2024.2.0,59.93831148988586,2025-11-15 18h38.29.553193 +0530,
124,0,125,s,3.210207199999786,None,125,0,124,706.3670678999997,,,,,,,,,,,,,,,,,,,,,,,,,,,,,,,,,,,,,,,,,,,,,,,,,,706.3529020999995,706.3670678999997,706.8673214999999,706.8515513000002,706.8594475,706.8673214999999,706.8673214999999,706.8673214999999,710.0859135000001,Objects\084a.jpg,mid,s,3.210207199999786,None,,,,,,,,00030,001,2025-11-15_18h38.22.342,MST_test,2024.2.0,59.93831148988586,2025-11-15 18h38.29.553193 +0530,
125,0,126,n,4.4487033000004885,None,126,0,125,710.1006720999994,,,,,,,,,,,,,,,,,,,,,,,,,,,,,,,,,,,,,,,,,,,,,,,,,,710.0862589999997,710.1006720999994,710.6065392999999,710.5856868000001,710.6039923999997,710.6065392999999,710.6065392999999,710.6065392999999,715.0696256000001,Foils\082a.jpg,none,n,4.4487033000004885,None,,,,,,,,00030,001,2025-11-15_18h38.22.342,MST_test,2024.2.0,59.93831148988586,2025-11-15 18h38.29.553193 +0530,
126,0,127,s,2.4853006000003006,None,127,0,126,715.0836645999998,,,,,,,,,,,,,,,,,,,,,,,,,,,,,,,,,,,,,,,,,,,,,,,,,,715.0699661999997,715.0836645999998,715.5843814,715.5684068999999,715.5774021999996,715.5843814,715.5843814,715.5843814,718.0861961999999,Objects\212a.jpg,pre,s,2.4853006000003006,None,,,,,,,,00030,001,2025-11-15_18h38.22.342,MST_test,2024.2.0,59.93831148988586,2025-11-15 18h38.29.553193 +0530,
127,0,128,s,1.645042099999955,None,128,0,127,718.100461,,,,,,,,,,,,,,,,,,,,,,,,,,,,,,,,,,,,,,,,,,,,,,,,,,718.0865801,718.100461,718.6010674999998,718.5850816000002,718.5948732999996,718.6010674999998,718.6010674999998,718.6010674999998,720.2525897999994,Objects\123a.jpg,pre,s,1.645042099999955,None,,,,,,,,00030,001,2025-11-15_18h38.22.342,MST_test,2024.2.0,59.93831148988586,2025-11-15 18h38.29.553193 +0530,
128,0,129,n,7.797416299999895,None,129,0,128,720.2670959999996,,,,,,,,,,,,,,,,,,,,,,,,,,,,,,,,,,,,,,,,,,,,,,,,,,720.2529709999999,720.2670959999996,720.7685526999994,720.7519499,720.7661300999998,720.7685526999994,720.7685526999994,720.7685526999994,728.5699139999997,Objects\164b.jpg,mid,n,7.797416299999895,None,,,,,,,,00030,001,2025-11-15_18h38.22.342,MST_test,2024.2.0,59.93831148988586,2025-11-15 18h38.29.553193 +0530,
129,0,130,n,3.1985757000002195,None,130,0,129,728.5836856999995,,,,,,,,,,,,,,,,,,,,,,,,,,,,,,,,,,,,,,,,,,,,,,,,,,728.5702999999994,728.5836856999995,729.0884747,729.0686095000001,729.0857177999997,729.0884747,729.0884747,729.0884747,732.3033655999998,Objects\193b.jpg,post,n,3.1985757000002195,None,,,,,,,,00030,001,2025-11-15_18h38.22.342,MST_test,2024.2.0,59.93831148988586,2025-11-15 18h38.29.553193 +0530,
130,0,131,n,3.8045461000001524,None,131,0,130,732.3172653000001,,,,,,,,,,,,,,,,,,,,,,,,,,,,,,,,,,,,,,,,,,,,,,,,,,732.3037138999998,732.3172653000001,732.8177251999996,732.8018553000002,732.8087662999997,732.8177251999996,732.8177251999996,732.8177251999996,736.6362336000002,Objects\128a.jpg,pre,n,3.8045461000001524,None,,,,,,,,00030,001,2025-11-15_18h38.22.342,MST_test,2024.2.0,59.93831148988586,2025-11-15 18h38.29.553193 +0530,
131,0,132,n,2.8756782000000385,None,132,0,131,736.6504300999995,,,,,,,,,,,,,,,,,,,,,,,,,,,,,,,,,,,,,,,,,,,,,,,,,,736.6365710999999,736.6504300999995,737.1546926999999,737.1350904999999,737.1522544,737.1546926999999,737.1546926999999,737.1546926999999,740.0363124999994,Objects\008b.jpg,pre,n,2.8756782000000385,None,,,,,,,,00030,001,2025-11-15_18h38.22.342,MST_test,2024.2.0,59.93831148988586,2025-11-15 18h38.29.553193 +0530,
132,0,133,n,7.8059065999996164,None,133,0,132,740.0505158999995,,,,,,,,,,,,,,,,,,,,,,,,,,,,,,,,,,,,,,,,,,,,,,,,,,740.0367197999994,740.0505158999995,740.5523419000001,740.5349318999997,740.5500412000001,740.5523419000001,740.5523419000001,740.5523419000001,748.3690227999996,Objects\010b.jpg,mid,n,7.8059065999996164,None,,,,,,,,00030,001,2025-11-15_18h38.22.342,MST_test,2024.2.0,59.93831148988586,2025-11-15 18h38.29.553193 +0530,
133,0,134,n,5.297991499999625,None,134,0,133,748.3835546,,,,,,,,,,,,,,,,,,,,,,,,,,,,,,,,,,,,,,,,,,,,,,,,,,748.3693334,748.3835546,748.8839594000001,748.8684520999996,748.8766034999999,748.8839594000001,748.8839594000001,748.8839594000001,754.1862284999997,Objects\165a.jpg,mid,n,5.297991499999625,None,,,,,,,,00030,001,2025-11-15_18h38.22.342,MST_test,2024.2.0,59.93831148988586,2025-11-15 18h38.29.553193 +0530,
134,0,135,s,1.6011964999997872,None,135,0,134,754.2005625000002,,,,,,,,,,,,,,,,,,,,,,,,,,,,,,,,,,,,,,,,,,,,,,,,,,754.1866367000002,754.2005625000002,754.7090929999995,754.6848823,754.7062962,754.7090929999995,754.7090929999995,754.7090929999995,756.3194108999996,Objects\249b.jpg,post,s,1.6011964999997872,None,,,,,,,,00030,001,2025-11-15_18h38.22.342,MST_test,2024.2.0,59.93831148988586,2025-11-15 18h38.29.553193 +0530,
135,0,136,n,3.686036199999762,None,136,0,135,756.3335768999996,,,,,,,,,,,,,,,,,,,,,,,,,,,,,,,,,,,,,,,,,,,,,,,,,,756.3197850999995,756.3335768999996,756.8394688999997,756.8185338000003,756.8367301999997,756.8394688999997,756.8394688999997,756.8394688999997,760.5364079000001,Objects\277b.jpg,post,n,3.686036199999762,None,,,,,,,,00030,001,2025-11-15_18h38.22.342,MST_test,2024.2.0,59.93831148988586,2025-11-15 18h38.29.553193 +0530,
136,0,137,n,5.873041499999999,None,137,0,136,760.5504265,,,,,,,,,,,,,,,,,,,,,,,,,,,,,,,,,,,,,,,,,,,,,,,,,,760.5367925999999,760.5504265,761.0535205999995,761.0348524000001,761.0509234000001,761.0535205999995,761.0535205999995,761.0535205999995,766.9359953000003,Objects\328b.jpg,pre,n,5.873041499999999,None,,,,,,,,00030,001,2025-11-15_18h38.22.342,MST_test,2024.2.0,59.93831148988586,2025-11-15 18h38.29.553193 +0530,
137,0,138,n,1.333600999999362,None,138,0,137,766.9505293000002,,,,,,,,,,,,,,,,,,,,,,,,,,,,,,,,,,,,,,,,,,,,,,,,,,766.9363322999998,766.9505293000002,767.4559548999996,767.435093,767.4534592,767.4559548999996,767.4559548999996,767.4559548999996,768.803371,Foils\106a.jpg,none,n,1.333600999999362,None,,,,,,,,00030,001,2025-11-15_18h38.22.342,MST_test,2024.2.0,59.93831148988586,2025-11-15 18h38.29.553193 +0530,
138,0,139,s,1.4804629000000205,None,139,0,138,768.8172520999997,,,,,,,,,,,,,,,,,,,,,,,,,,,,,,,,,,,,,,,,,,,,,,,,,,768.8038096,768.8172520999997,769.3174497999998,769.3019120999998,769.3089368999999,769.3174497999998,769.3174497999998,769.3174497999998,770.8036439999996,Objects\119a.jpg,pre,s,1.4804629000000205,None,,,,,,,,00030,001,2025-11-15_18h38.22.342,MST_test,2024.2.0,59.93831148988586,2025-11-15 18h38.29.553193 +0530,
139,0,140,n,2.845269200000075,None,140,0,139,770.8175191999999,,,,,,,,,,,,,,,,,,,,,,,,,,,,,,,,,,,,,,,,,,,,,,,,,,770.8041008,770.8175191999999,771.3207449000001,771.3017215999998,771.3182141999996,771.3207449000001,771.3207449000001,771.3207449000001,774.1701226999994,Objects\201b.jpg,pre,n,2.845269200000075,None,,,,,,,,00030,001,2025-11-15_18h38.22.342,MST_test,2024.2.0,59.93831148988586,2025-11-15 18h38.29.553193 +0530,
140,0,141,s,1.4935844000001453,None,141,0,140,774.1838651999997,,,,,,,,,,,,,,,,,,,,,,,,,,,,,,,,,,,,,,,,,,,,,,,,,,774.1704896000001,774.1838651999997,774.6879452000003,774.6685233999997,774.6852039999994,774.6879452000003,774.6879452000003,774.6879452000003,776.1866024999999,Objects\224b.jpg,post,s,1.4935844000001453,None,,,,,,,,00030,001,2025-11-15_18h38.22.342,MST_test,2024.2.0,59.93831148988586,2025-11-15 18h38.29.553193 +0530,
141,0,142,s,1.3403582999999344,None,142,0,141,776.2005877000001,,,,,,,,,,,,,,,,,,,,,,,,,,,,,,,,,,,,,,,,,,,,,,,,,,776.1869913999999,776.2005877000001,776.7051002999997,776.6849685999996,776.7023065000003,776.7051002999997,776.7051002999997,776.7051002999997,778.0528992,Objects\268b.jpg,mid,s,1.3403582999999344,None,,,,,,,,00030,001,2025-11-15_18h38.22.342,MST_test,2024.2.0,59.93831148988586,2025-11-15 18h38.29.553193 +0530,
142,0,143,o,8.937756499999523,None,143,0,142,778.0672924999999,,,,,,,,,,,,,,,,,,,,,,,,,,,,,,,,,,,,,,,,,,,,,,,,,,778.0533059999998,778.0672924999999,778.5723914999999,778.5518272999998,778.5696823999997,778.5723914999999,778.5723914999999,778.5723914999999,787.5193905999995,Foils\f7.jpg,none,o,8.937756499999523,None,,,,,,,,00030,001,2025-11-15_18h38.22.342,MST_test,2024.2.0,59.93831148988586,2025-11-15 18h38.29.553193 +0530,
143,0,144,n,1.7508626999997432,None,144,0,143,787.5338172000002,,,,,,,,,,,,,,,,,,,,,,,,,,,,,,,,,,,,,,,,,,,,,,,,,,787.5197698000002,787.5338172000002,788.0391431999997,788.0185307000002,788.0364546999999,788.0391431999997,788.0391431999997,788.0391431999997,789.8028597000002,Foils\081a.jpg,none,n,1.7508626999997432,None,,,,,,,,00030,001,2025-11-15_18h38.22.342,MST_test,2024.2.0,59.93831148988586,2025-11-15 18h38.29.553193 +0530,
144,0,145,n,1.2060958000001847,None,145,0,144,789.8172042999995,,,,,,,,,,,,,,,,,,,,,,,,,,,,,,,,,,,,,,,,,,,,,,,,,,789.8032352,789.8172042999995,790.3200779999997,790.3016925000002,790.3174317000003,790.3200779999997,790.3200779999997,790.3200779999997,791.5362794000002,Objects\222b.jpg,post,n,1.2060958000001847,None,,,,,,,,00030,001,2025-11-15_18h38.22.342,MST_test,2024.2.0,59.93831148988586,2025-11-15 18h38.29.553193 +0530,
145,0,146,n,1.1471925000005285,None,146,0,145,791.5504848,,,,,,,,,,,,,,,,,,,,,,,,,,,,,,,,,,,,,,,,,,,,,,,,,,791.5366568999998,791.5504848,792.0509906999996,792.0347599999996,792.0429299999996,792.0509906999996,792.0509906999996,792.0509906999996,793.2027245999998,Objects\290a.jpg,pre,n,1.1471925000005285,None,,,,,,,,00030,001,2025-11-15_18h38.22.342,MST_test,2024.2.0,59.93831148988586,2025-11-15 18h38.29.553193 +0530,
146,0,147,s,2.9826578000001973,None,147,0,146,793.2172112999997,,,,,,,,,,,,,,,,,,,,,,,,,,,,,,,,,,,,,,,,,,,,,,,,,,793.2030528999994,793.2172112999997,793.7192370000002,793.7017188,793.7165127999997,793.7192370000002,793.7192370000002,793.7192370000002,796.7194411,Objects\097b.jpg,mid,s,2.9826578000001973,None,,,,,,,,00030,001,2025-11-15_18h38.22.342,MST_test,2024.2.0,59.93831148988586,2025-11-15 18h38.29.553193 +0530,
147,0,148,s,2.6617230000001655,None,148,0,147,796.7336415,,,,,,,,,,,,,,,,,,,,,,,,,,,,,,,,,,,,,,,,,,,,,,,,,,796.7197901,796.7336415,797.2399949,797.2186581999995,797.2374537999995,797.2399949,797.2399949,797.2399949,799.9193839,Objects\248b.jpg,post,s,2.6617230000001655,None,,,,,,,,00030,001,2025-11-15_18h38.22.342,MST_test,2024.2.0,59.93831148988586,2025-11-15 18h38.29.553193 +0530,
148,0,149,n,5.728817100000015,None,149,0,148,799.9336041999995,,,,,,,,,,,,,,,,,,,,,,,,,,,,,,,,,,,,,,,,,,,,,,,,,,799.9197543999999,799.9336041999995,800.43667,800.4179709,800.4342267000002,800.43667,800.43667,800.43667,806.1694347000002,Objects\030b.jpg,pre,n,5.728817100000015,None,,,,,,,,00030,001,2025-11-15_18h38.22.342,MST_test,2024.2.0,59.93831148988586,2025-11-15 18h38.29.553193 +0530,
149,0,150,n,1.6117223000001104,None,150,0,149,806.1835759999994,,,,,,,,,,,,,,,,,,,,,,,,,,,,,,,,,,,,,,,,,,,,,,,,,,806.1698033000002,806.1835759999994,806.6902008999996,806.6684851999999,806.6873469000002,806.6902008999996,806.6902008999996,806.6902008999996,808.3188430999999,Foils\f5.jpg,none,n,1.6117223000001104,None,,,,,,,,00030,001,2025-11-15_18h38.22.342,MST_test,2024.2.0,59.93831148988586,2025-11-15 18h38.29.553193 +0530,
,,,,,,,,,,,,,,,,,,,,,,,,,,,,,,,,,,,,,,,,,,,,,,,,,,,,,,,,,,,,,,,,,,,,,,,,,808.3189947000001,808.3336018,808.3336018,811.6861191999997,space,3.336241799999698,None,00030,001,2025-11-15_18h38.22.342,MST_test,2024.2.0,59.93831148988586,2025-11-15 18h38.29.553193 +0530,
