Sl_no,image_path,thisN,thisTrialN,thisRepN,key_resp_5.keys,key_resp_7.keys,key_resp_7.rt,key_resp_7.duration,key_resp_5.rt,key_resp_5.duration,key_resp_9.keys,key_resp_9.rt,key_resp_9.duration,key_resp_8.keys,key_resp_8.rt,key_resp_8.duration,practice.thisRepN,practice.thisTrialN,practice.thisN,trials.thisRepN,trials.thisTrialN,trials.thisN,thisRow.t,notes,welcome_page.started,text.started,key_resp.started,welcome_page.stopped,key_resp.keys,key_resp.rt,key_resp.duration,instructions.started,ins.started,key_resp_2.started,instructions.stopped,key_resp_2.keys,key_resp_2.rt,key_resp_2.duration,objects_only_instruction.started,text_3.started,key_resp_3.started,objects_only_instruction.stopped,key_resp_3.keys,key_resp_3.rt,key_resp_3.duration,ISI.started,text_4.started,ISI.stopped,practice_block.started,image.started,key_resp_5.started,text_5.started,practice_block.stopped,practice.key_resp_5.keys,indoor_outdoor.started,text_7.started,key_resp_7.started,indoor_outdoor.stopped,practice.key_resp_7.keys,practice.key_resp_7.rt,practice.key_resp_7.duration,text_4.stopped,image.stopped,key_resp_5.stopped,text_5.stopped,practice.key_resp_5.rt,practice.key_resp_5.duration,practice_to_main.started,text_2.started,key_resp_4.started,practice_to_main.stopped,key_resp_4.keys,key_resp_4.rt,key_resp_4.duration,objects.started,image_2.started,text_9.started,key_resp_9.started,objects.stopped,category,trials.key_resp_9.keys,trials.key_resp_9.rt,trials.key_resp_9.duration,encoding_task.started,encoding_task.stopped,trials.key_resp_8.keys,image_2.stopped,text_9.stopped,key_resp_9.stopped,text_8.started,key_resp_8.started,trials.key_resp_8.rt,trials.key_resp_8.duration,end_experiment.started,text_6.started,key_resp_6.started,end_experiment.stopped,key_resp_6.keys,key_resp_6.rt,key_resp_6.duration,list_of_stimuli,encoding_task_accuracy,participant,session,date,expName,psychopyVersion,frameRate,expStart,
,,,,,,,,,,,,,,,,,,,,,,,,,0.0012409999908413738,0.002667499997187406,0.002667499997187406,10.404173499991884,space,10.349028199998429,None,,,,,,,,,,,,,,,,,,,,,,,,,,,,,,,,,,,,,,,,,,,,,,,,,,,,,,,,,,,,,,,,,,,,,,,,00037,001,2026-01-17_10h41.49.026,MST_task,2024.2.0,60.01464356576082,2026-01-17 10h41.57.063194 +0530,
,,,,,,,,,,,,,,,,,,,,,,,,,,,,,,,,10.404214599984698,10.414368699974148,10.414368699974148,28.611806999979308,space,18.185907300008694,None,,,,,,,,,,,,,,,,,,,,,,,,,,,,,,,,,,,,,,,,,,,,,,,,,,,,,,,,,,,,,,,,,00037,001,2026-01-17_10h41.49.026,MST_task,2024.2.0,60.01464356576082,2026-01-17 10h41.57.063194 +0530,
,,,,,,,,,,,,,,,,,,,,,,,,,,,,,,,,,,,,,,,28.611839299992425,28.62795999998343,28.62795999998343,35.76177459998871,space,7.123289500013925,None,,,,,,,,,,,,,,,,,,,,,,,,,,,,,,,,,,,,,,,,,,,,,,,,,,,,,,,,,,00037,001,2026-01-17_10h41.49.026,MST_task,2024.2.0,60.01464356576082,2026-01-17 10h41.57.063194 +0530,
2,practice_images/031a.jpg,0,0,1,None,f,0.1701589000003878,None,,,,,,,,,1,0,0,,,,35.78292909997981,,,,,,,,,,,,,,,,,,,,,,,35.780601899983594,35.78292909997981,36.27813039999455,36.291155399987474,36.30192359999637,36.30192359999637,36.30192359999637,39.27822579999338,None,39.2800018999842,39.2945329999784,39.2945329999784,39.47845709999092,f,0.1701589000003878,None,,,,,,,,,,,,,,,,,,,,,,,,,,,,,,,,,,,,,,,,,,00037,001,2026-01-17_10h41.49.026,MST_task,2024.2.0,60.01464356576082,2026-01-17 10h41.57.063194 +0530,
6,practice_images/158a.jpg,1,1,1,j,None,,,1.637114000011934,0.08802450000075623,,,,,,,1,1,1,,,,39.494567299989285,,,,,,,,,,,,,,,,,,,,,,,39.47854169999482,39.494567299989285,39.97828059998574,39.98668999999063,39.994711899984395,39.994711899984395,39.994711899984395,42.97840029999497,j,42.97843789999024,,,42.97845059999963,None,,,39.994711899984395,42.994699199975,42.994699199975,42.994699199975,1.637114000011934,0.08802450000075623,,,,,,,,,,,,,,,,,,,,,,,,,,,,,,,,,,,,00037,001,2026-01-17_10h41.49.026,MST_task,2024.2.0,60.01464356576082,2026-01-17 10h41.57.063194 +0530,
9,practice_images/180a.jpg,2,2,1,f,None,,,1.1373597999918275,0.15971650002757087,,,,,,,1,2,2,,,,42.994699199975,,,,,,,,,,,,,,,,,,,,,,,42.97851229997468,42.994699199975,43.4783282999997,43.486479199986206,43.494940899981884,43.494940899981884,43.494940899981884,46.478346299991244,f,46.47838309998042,,,46.47839489998296,None,,,43.494940899981884,46.49471219998668,46.49471219998668,46.49471219998668,1.1373597999918275,0.15971650002757087,,,,,,,,,,,,,,,,,,,,,,,,,,,,,,,,,,,,00037,001,2026-01-17_10h41.49.026,MST_task,2024.2.0,60.01464356576082,2026-01-17 10h41.57.063194 +0530,
7,practice_images/166a.jpg,3,3,1,f,None,,,1.4365761999797542,0.15199169999687,,,,,,,1,3,3,,,,46.49471219998668,,,,,,,,,,,,,,,,,,,,,,,46.47845489997417,46.49471219998668,46.97835059999488,46.98704189999262,46.99469759999192,46.99469759999192,46.99469759999192,49.97844439998153,f,49.97848079999676,,,49.978493099974,None,,,46.99469759999192,49.99463389997254,49.99463389997254,49.99463389997254,1.4365761999797542,0.15199169999687,,,,,,,,,,,,,,,,,,,,,,,,,,,,,,,,,,,,00037,001,2026-01-17_10h41.49.026,MST_task,2024.2.0,60.01464356576082,2026-01-17 10h41.57.063194 +0530,
4,practice_images/002b.jpg,4,4,1,f,None,,,1.7369302000151947,0.14457789997686632,,,,,,,1,4,4,,,,49.99463389997254,,,,,,,,,,,,,,,,,,,,,,,49.97856469999533,49.99463389997254,50.47832759999437,50.48711369998637,50.4948083999916,50.4948083999916,50.4948083999916,53.47850800000015,f,53.478544899990084,,,53.47855719999643,None,,,50.4948083999916,53.494718599977205,53.494718599977205,53.494718599977205,1.7369302000151947,0.14457789997686632,,,,,,,,,,,,,,,,,,,,,,,,,,,,,,,,,,,,00037,001,2026-01-17_10h41.49.026,MST_task,2024.2.0,60.01464356576082,2026-01-17 10h41.57.063194 +0530,
1,practice_images/013a.jpg,5,5,1,j,None,,,1.909823800000595,0.12688870000420138,,,,,,,1,5,5,,,,53.494718599977205,,,,,,,,,,,,,,,,,,,,,,,53.47861869999906,53.494718599977205,53.97840839999844,53.99030169998878,53.99474279998685,53.99474279998685,53.99474279998685,56.978568699996686,j,56.98089509998681,,,56.980915299995104,None,,,53.99474279998685,56.99460299999919,56.99460299999919,56.99460299999919,1.909823800000595,0.12688870000420138,,,,,,,,,,,,,,,,,,,,,,,,,,,,,,,,,,,,00037,001,2026-01-17_10h41.49.026,MST_task,2024.2.0,60.01464356576082,2026-01-17 10h41.57.063194 +0530,
10,practice_images/182a.jpg,6,6,1,f,None,,,0.9698442000080831,0.12718859998858534,,,,,,,1,6,6,,,,56.99460299999919,,,,,,,,,,,,,,,,,,,,,,,56.980996399972355,56.99460299999919,57.478177399985725,57.48636169999372,57.49492040000041,57.49492040000041,57.49492040000041,60.47862109998823,f,60.478667999996105,,,60.47868000000017,None,,,57.49492040000041,60.49467059999006,60.49467059999006,60.49467059999006,0.9698442000080831,0.12718859998858534,,,,,,,,,,,,,,,,,,,,,,,,,,,,,,,,,,,,00037,001,2026-01-17_10h41.49.026,MST_task,2024.2.0,60.01464356576082,2026-01-17 10h41.57.063194 +0530,
3,practice_images/037a.jpg,7,7,1,f,None,,,1.196616000001086,0.1360022000153549,,,,,,,1,7,7,,,,60.49467059999006,,,,,,,,,,,,,,,,,,,,,,,60.478743699990446,60.49467059999006,60.97829429997364,60.98699479998322,60.994780899985926,60.994780899985926,60.994780899985926,63.9786974999879,f,63.97873539998545,,,63.97874759999104,None,,,60.994780899985926,63.994603799976176,63.994603799976176,63.994603799976176,1.196616000001086,0.1360022000153549,,,,,,,,,,,,,,,,,,,,,,,,,,,,,,,,,,,,00037,001,2026-01-17_10h41.49.026,MST_task,2024.2.0,60.01464356576082,2026-01-17 10h41.57.063194 +0530,
8,practice_images/178a.jpg,8,8,1,f,None,,,1.080444199993508,0.12873799999943003,,,,,,,1,8,8,,,,63.994603799976176,,,,,,,,,,,,,,,,,,,,,,,63.978808099986054,63.994603799976176,64.47833109999192,64.48642919998383,64.49491179999313,64.49491179999313,64.49491179999313,67.47868229998858,f,67.4787182,,,67.47873039997648,None,,,64.49491179999313,67.4946968999866,67.4946968999866,67.4946968999866,1.080444199993508,0.12873799999943003,,,,,,,,,,,,,,,,,,,,,,,,,,,,,,,,,,,,00037,001,2026-01-17_10h41.49.026,MST_task,2024.2.0,60.01464356576082,2026-01-17 10h41.57.063194 +0530,
5,practice_images/139a.jpg,9,9,1,j,None,,,1.7724523000069894,0.14423669999814592,,,,,,,1,9,9,,,,67.4946968999866,,,,,,,,,,,,,,,,,,,,,,,67.47879189997911,67.4946968999866,67.97830489999615,67.98680329998024,67.99483949999558,67.99483949999558,67.99483949999558,70.97855849997723,j,70.97859439998865,,,70.9786058999889,None,,,67.99483949999558,70.99475869999151,70.99475869999151,70.99475869999151,1.7724523000069894,0.14423669999814592,,,,,,,,,,,,,,,,,,,,,,,,,,,,,,,,,,,,00037,001,2026-01-17_10h41.49.026,MST_task,2024.2.0,60.01464356576082,2026-01-17 10h41.57.063194 +0530,
,,,,,,,,,,,,,,,,,,,,,,,,,,,,,,,,,,,,,,,,,,,,,,,,,,,,,,,,,,,,,,,,,,,,70.97865389997605,70.99475869999151,70.99475869999151,97.72848649998195,space,26.725286300003063,None,,,,,,,,,,,,,,,,,,,,,,,,,,,,,00037,001,2026-01-17_10h41.49.026,MST_task,2024.2.0,60.01464356576082,2026-01-17 10h41.57.063194 +0530,
,Objects\326a.jpg,0,0,1,,,,,,,f,0.8644303999899421,0.12000789999729022,None,,,,,,1,0,0,97.74462059998768,,,,,,,,,,,,,,,,,,,,,,,97.72934989997884,97.74462059998768,98.2283810999943,,,,,,,,,,,,,,98.25576049997471,,,,,,,,,,,,,98.25275119999424,98.25576049997471,98.25576049997471,98.25576049997471,101.2447066999739,shoe,f,0.8644303999899421,0.12000789999729022,101.24689389998093,101.24691409998923,None,,,,,,,,,,,,,,,,,00037,001,2026-01-17_10h41.49.026,MST_task,2024.2.0,60.01464356576082,2026-01-17 10h41.57.063194 +0530,
,Objects\199a.jpg,1,0,2,,,,,,,f,1.293779400002677,0.11196720000589266,None,,,,,,2,0,1,101.26129409999703,,,,,,,,,,,,,,,,,,,,,,,101.2469847999746,101.26129409999703,101.74496269997326,,,,,,,,,,,,,,101.76178439997602,,,,,,,,,,,,,101.7545390999876,101.76178439997602,101.76178439997602,101.76178439997602,104.74523389997194,shoe,f,1.293779400002677,0.11196720000589266,104.74527729998226,104.74529019999318,None,104.76131209998857,104.76131209998857,104.76131209998857,,,,,,,,,,,,,,00037,001,2026-01-17_10h41.49.026,MST_task,2024.2.0,60.01464356576082,2026-01-17 10h41.57.063194 +0530,
,Objects\147a.jpg,2,0,3,,,,,,,f,2.785832499997923,0.12871620000805706,None,,,,,,3,0,2,104.76131209998857,,,,,,,,,,,,,,,,,,,,,,,104.74535489999107,104.76131209998857,105.24492059997283,,,,,,,,,,,,,,105.261738399975,,,,,,,,,,,,,105.25521139998455,105.261738399975,105.261738399975,105.261738399975,108.24517069998547,shoe,f,2.785832499997923,0.12871620000805706,108.24525670000003,108.24526979998336,None,108.26133079998544,108.26133079998544,108.26133079998544,,,,,,,,,,,,,,00037,001,2026-01-17_10h41.49.026,MST_task,2024.2.0,60.01464356576082,2026-01-17 10h41.57.063194 +0530,
,Objects\027a.jpg,3,0,4,,,,,,,j,2.55866129999049,0.15194310000515543,None,,,,,,4,0,3,108.26133079998544,,,,,,,,,,,,,,,,,,,,,,,108.24533599999268,108.26133079998544,108.74474379999447,,,,,,,,,,,,,,108.7615880999947,,,,,,,,,,,,,108.75504239997827,108.7615880999947,108.7615880999947,108.7615880999947,111.74551679997239,shoe,j,2.55866129999049,0.15194310000515543,111.7455599999812,111.74557219998678,None,111.76125179999508,111.76125179999508,111.76125179999508,,,,,,,,,,,,,,00037,001,2026-01-17_10h41.49.026,MST_task,2024.2.0,60.01464356576082,2026-01-17 10h41.57.063194 +0530,
,Objects\125a.jpg,4,0,5,,,,,,,j,1.5377865000045858,0.12000610001268797,None,,,,,,5,0,4,111.76125179999508,,,,,,,,,,,,,,,,,,,,,,,111.7456362999801,111.76125179999508,112.24484949998441,,,,,,,,,,,,,,112.26163549997727,,,,,,,,,,,,,112.25454439999885,112.26163549997727,112.26163549997727,112.26163549997727,115.24504869998782,shoe,j,1.5377865000045858,0.12000610001268797,115.24509129999205,115.24510399997234,None,115.26133280000067,115.26133280000067,115.26133280000067,,,,,,,,,,,,,,00037,001,2026-01-17_10h41.49.026,MST_task,2024.2.0,60.01464356576082,2026-01-17 10h41.57.063194 +0530,
,Objects\310a.jpg,5,0,6,,,,,,,j,1.3506542000104673,0.13607859998592176,None,,,,,,6,0,5,115.26133280000067,,,,,,,,,,,,,,,,,,,,,,,115.24519319998217,115.26133280000067,115.74478049998288,,,,,,,,,,,,,,115.76174779998837,,,,,,,,,,,,,115.75493219998316,115.76174779998837,115.76174779998837,115.76174779998837,118.74526299998979,shoe,j,1.3506542000104673,0.13607859998592176,118.74530559999403,118.74531790000037,None,118.76125369998044,118.76125369998044,118.76125369998044,,,,,,,,,,,,,,00037,001,2026-01-17_10h41.49.026,MST_task,2024.2.0,60.01464356576082,2026-01-17 10h41.57.063194 +0530,
,Objects\099a.jpg,6,0,7,,,,,,,j,1.3625450999825262,0.1351050000230316,None,,,,,,7,0,6,118.76125369998044,,,,,,,,,,,,,,,,,,,,,,,118.7453842999821,118.76125369998044,119.24480559999938,,,,,,,,,,,,,,119.26166199997533,,,,,,,,,,,,,119.25512879999587,119.26166199997533,119.26166199997533,119.26166199997533,122.24511299998267,shoe,j,1.3625450999825262,0.1351050000230316,122.2451612999721,122.24518359999638,None,122.26132709998637,122.26132709998637,122.26132709998637,,,,,,,,,,,,,,00037,001,2026-01-17_10h41.49.026,MST_task,2024.2.0,60.01464356576082,2026-01-17 10h41.57.063194 +0530,
,Objects\138a.jpg,7,0,8,,,,,,,j,1.7269363999948837,0.15903069998603314,None,,,,,,8,0,7,122.26132709998637,,,,,,,,,,,,,,,,,,,,,,,122.24524859999656,122.26132709998637,122.74475619997247,,,,,,,,,,,,,,122.76138379998156,,,,,,,,,,,,,122.75691939998069,122.76138379998156,122.76138379998156,122.76138379998156,125.74500659998739,indoor,j,1.7269363999948837,0.15903069998603314,125.74665119999554,125.7466680999787,None,125.76133199999458,125.76133199999458,125.76133199999458,,,,,,,,,,,,,,00037,001,2026-01-17_10h41.49.026,MST_task,2024.2.0,60.01464356576082,2026-01-17 10h41.57.063194 +0530,
,Objects\313a.jpg,8,0,9,,,,,,,f,2.442020100017544,0.13599740000790916,None,,,,,,9,0,8,125.76133199999458,,,,,,,,,,,,,,,,,,,,,,,125.74673499999335,125.76133199999458,126.24485759998788,,,,,,,,,,,,,,126.26149259999511,,,,,,,,,,,,,126.25390589999733,126.26149259999511,126.26149259999511,126.26149259999511,129.24508259998402,indoor,f,2.442020100017544,0.13599740000790916,129.24512649999815,129.24513919997844,None,129.2613427999895,129.2613427999895,129.2613427999895,,,,,,,,,,,,,,00037,001,2026-01-17_10h41.49.026,MST_task,2024.2.0,60.01464356576082,2026-01-17 10h41.57.063194 +0530,
,Objects\298a.jpg,9,0,10,,,,,,,j,1.6137442000035662,0.1520345999742858,None,,,,,,10,0,9,129.2613427999895,,,,,,,,,,,,,,,,,,,,,,,129.2452044999809,129.2613427999895,129.74475259997416,,,,,,,,,,,,,,129.76160329999402,,,,,,,,,,,,,129.7549286999856,129.76160329999402,129.76160329999402,129.76160329999402,132.7451069999952,indoor,j,1.6137442000035662,0.1520345999742858,132.7451488999941,132.7451604999951,None,132.7613088999933,132.7613088999933,132.7613088999933,,,,,,,,,,,,,,00037,001,2026-01-17_10h41.49.026,MST_task,2024.2.0,60.01464356576082,2026-01-17 10h41.57.063194 +0530,
,Objects\095a.jpg,10,0,11,,,,,,,f,1.2338970000273548,0.11998619997757487,None,,,,,,11,0,10,132.7613088999933,,,,,,,,,,,,,,,,,,,,,,,132.745223099977,132.7613088999933,133.24474909997662,,,,,,,,,,,,,,133.26151609999943,,,,,,,,,,,,,133.2544810999825,133.26151609999943,133.26151609999943,133.26151609999943,136.24522489999072,indoor,f,1.2338970000273548,0.11998619997757487,136.24526719999267,136.2452792999975,None,136.26143159999629,136.26143159999629,136.26143159999629,,,,,,,,,,,,,,00037,001,2026-01-17_10h41.49.026,MST_task,2024.2.0,60.01464356576082,2026-01-17 10h41.57.063194 +0530,
,Objects\367a.jpg,11,0,12,,,,,,,f,1.6059573999955319,0.13768810001784004,None,,,,,,12,0,11,136.26143159999629,,,,,,,,,,,,,,,,,,,,,,,136.24534389999462,136.26143159999629,136.74503069999628,,,,,,,,,,,,,,136.76183889998356,,,,,,,,,,,,,136.75461349997204,136.76183889998356,136.76183889998356,136.76183889998356,139.74532709998311,indoor,f,1.6059573999955319,0.13768810001784004,139.74537079999573,139.74538239999674,None,139.7614516999747,139.7614516999747,139.7614516999747,,,,,,,,,,,,,,00037,001,2026-01-17_10h41.49.026,MST_task,2024.2.0,60.01464356576082,2026-01-17 10h41.57.063194 +0530,
,Objects\069a.jpg,12,0,13,,,,,,,j,1.1135042999812867,0.15999559999909252,None,,,,,,13,0,12,139.7614516999747,,,,,,,,,,,,,,,,,,,,,,,139.74544759999844,139.7614516999747,140.24485319998348,,,,,,,,,,,,,,140.26179449999472,,,,,,,,,,,,,140.25515889999224,140.26179449999472,140.26179449999472,140.26179449999472,143.2452838999743,indoor,j,1.1135042999812867,0.15999559999909252,143.2453260999755,143.24533769997652,None,143.2613326999999,143.2613326999999,143.2613326999999,,,,,,,,,,,,,,00037,001,2026-01-17_10h41.49.026,MST_task,2024.2.0,60.01464356576082,2026-01-17 10h41.57.063194 +0530,
,Objects\174a.jpg,13,0,14,,,,,,,f,0.9656644999922719,0.1526503000059165,None,,,,,,14,0,13,143.2613326999999,,,,,,,,,,,,,,,,,,,,,,,143.24540129999514,143.2613326999999,143.74559589999262,,,,,,,,,,,,,,143.7615921999968,,,,,,,,,,,,,143.75750969999353,143.7615921999968,143.7615921999968,143.7615921999968,146.7451239999791,indoor,f,0.9656644999922719,0.1526503000059165,146.74516599997878,146.7451775999798,None,146.761417599977,146.761417599977,146.761417599977,,,,,,,,,,,,,,00037,001,2026-01-17_10h41.49.026,MST_task,2024.2.0,60.01464356576082,2026-01-17 10h41.57.063194 +0530,
,Objects\017a.jpg,14,0,15,,,,,,,f,2.4017108000116423,0.16035109999938868,None,,,,,,15,0,14,146.761417599977,,,,,,,,,,,,,,,,,,,,,,,146.74524159997236,146.761417599977,147.2451814999804,,,,,,,,,,,,,,147.26170459997957,,,,,,,,,,,,,147.2567882000003,147.26170459997957,147.26170459997957,147.26170459997957,150.24547609998262,shoe,f,2.4017108000116423,0.16035109999938868,150.24767809998593,150.24769669998204,None,150.26132890000008,150.26132890000008,150.26132890000008,,,,,,,,,,,,,,00037,001,2026-01-17_10h41.49.026,MST_task,2024.2.0,60.01464356576082,2026-01-17 10h41.57.063194 +0530,
,Objects\254a.jpg,15,0,16,,,,,,,j,1.51089510001475,0.1749151999829337,None,,,,,,16,0,15,150.26132890000008,,,,,,,,,,,,,,,,,,,,,,,150.24776649998967,150.26132890000008,150.74502589998883,,,,,,,,,,,,,,150.76178399997298,,,,,,,,,,,,,150.75597749999724,150.76178399997298,150.76178399997298,150.76178399997298,153.74513199998182,shoe,j,1.51089510001475,0.1749151999829337,153.74517389998073,153.74518549998174,None,153.76134269998875,153.76134269998875,153.76134269998875,,,,,,,,,,,,,,00037,001,2026-01-17_10h41.49.026,MST_task,2024.2.0,60.01464356576082,2026-01-17 10h41.57.063194 +0530,
,Objects\327a.jpg,16,0,17,,,,,,,j,1.2098411000042688,0.2000615999859292,None,,,,,,17,0,16,153.76134269998875,,,,,,,,,,,,,,,,,,,,,,,153.74528249999275,153.76134269998875,154.24508609998156,,,,,,,,,,,,,,154.26180449998355,,,,,,,,,,,,,154.2559584999981,154.26180449998355,154.26180449998355,154.26180449998355,157.2451727000007,shoe,j,1.2098411000042688,0.2000615999859292,157.24521519997506,157.24522689997684,None,157.26144959998783,157.26144959998783,157.26144959998783,,,,,,,,,,,,,,00037,001,2026-01-17_10h41.49.026,MST_task,2024.2.0,60.01464356576082,2026-01-17 10h41.57.063194 +0530,
,Objects\023a.jpg,17,0,18,,,,,,,f,1.9031246000085957,0.17496579998987727,None,,,,,,18,0,17,157.26144959998783,,,,,,,,,,,,,,,,,,,,,,,157.24529149997397,157.26144959998783,157.7451501999749,,,,,,,,,,,,,,157.76181839997298,,,,,,,,,,,,,157.75653269997565,157.76181839997298,157.76181839997298,157.76181839997298,160.74549819997628,shoe,f,1.9031246000085957,0.17496579998987727,160.74554279999575,160.74555519997375,None,160.7613792999764,160.7613792999764,160.7613792999764,,,,,,,,,,,,,,00037,001,2026-01-17_10h41.49.026,MST_task,2024.2.0,60.01464356576082,2026-01-17 10h41.57.063194 +0530,
,Objects\251a.jpg,18,0,19,,,,,,,f,1.0740611999935936,0.16928929998539388,None,,,,,,19,0,18,160.7613792999764,,,,,,,,,,,,,,,,,,,,,,,160.74562039997545,160.7613792999764,161.24516789999325,,,,,,,,,,,,,,161.26180889998795,,,,,,,,,,,,,161.2547905999818,161.26180889998795,161.26180889998795,161.26180889998795,164.2453304999799,shoe,f,1.0740611999935936,0.16928929998539388,164.24537349998718,164.24538569999277,None,164.26139519998105,164.26139519998105,164.26139519998105,,,,,,,,,,,,,,00037,001,2026-01-17_10h41.49.026,MST_task,2024.2.0,60.01464356576082,2026-01-17 10h41.57.063194 +0530,
,Objects\352a.jpg,19,0,20,,,,,,,f,2.1656167000182904,0.19311649998417124,None,,,,,,20,0,19,164.26139519998105,,,,,,,,,,,,,,,,,,,,,,,164.24545199997374,164.26139519998105,164.7451915999991,,,,,,,,,,,,,,164.7617453999992,,,,,,,,,,,,,164.7556233999785,164.7617453999992,164.7617453999992,164.7617453999992,167.74500989998342,shoe,f,2.1656167000182904,0.19311649998417124,167.74505279998994,167.745064799994,None,167.76133129998925,167.76133129998925,167.76133129998925,,,,,,,,,,,,,,00037,001,2026-01-17_10h41.49.026,MST_task,2024.2.0,60.01464356576082,2026-01-17 10h41.57.063194 +0530,
,Objects\083a.jpg,20,0,21,,,,,,,f,1.5294814999797381,0.16799170000012964,None,,,,,,21,0,20,167.76133129998925,,,,,,,,,,,,,,,,,,,,,,,167.74512889998732,167.76133129998925,168.24487469997257,,,,,,,,,,,,,,168.26182189999963,,,,,,,,,,,,,168.25545589998364,168.26182189999963,168.26182189999963,168.26182189999963,171.24516319998656,shoe,f,1.5294814999797381,0.16799170000012964,171.2452078999777,171.24522049998632,None,171.2614144999825,171.2614144999825,171.2614144999825,,,,,,,,,,,,,,00037,001,2026-01-17_10h41.49.026,MST_task,2024.2.0,60.01464356576082,2026-01-17 10h41.57.063194 +0530,
,Objects\022a.jpg,21,0,22,,,,,,,f,2.3257491999829654,0.17597350000869483,None,,,,,,22,0,21,171.2614144999825,,,,,,,,,,,,,,,,,,,,,,,171.2452893999871,171.2614144999825,171.7449392999988,,,,,,,,,,,,,,171.76155569998082,,,,,,,,,,,,,171.75666859999183,171.76155569998082,171.76155569998082,171.76155569998082,174.74513419999857,indoor,f,2.3257491999829654,0.17597350000869483,174.74676509998972,174.74678189997212,None,174.761352099973,174.761352099973,174.761352099973,,,,,,,,,,,,,,00037,001,2026-01-17_10h41.49.026,MST_task,2024.2.0,60.01464356576082,2026-01-17 10h41.57.063194 +0530,
,Objects\144a.jpg,22,0,23,,,,,,,None,,,f,0.08257489997777157,None,,,,23,0,22,174.761352099973,,,,,,,,,,,,,,,,,,,,,,,174.74685329999193,174.761352099973,175.24478699997417,,,,,,,,,,,,,,175.26160429997253,,,,,,,,,,,,,175.25520079999114,175.26160429997253,175.26160429997253,175.26160429997253,178.24513419999857,indoor,None,,,178.2451723999984,178.34504419998848,f,178.26133329997538,178.26133329997538,178.26133329997538,178.26133329997538,178.26133329997538,0.08257489997777157,None,,,,,,,,,,00037,001,2026-01-17_10h41.49.026,MST_task,2024.2.0,60.01464356576082,2026-01-17 10h41.57.063194 +0530,
,Objects\121a.jpg,23,0,24,,,,,,,f,1.7622776000062004,0.16029629998956807,None,,,,,,24,0,23,178.3613179999811,,,,,,,,,,,,,,,,,,,,,,,178.34512749998248,178.3613179999811,178.8447706999723,,,,,,,,,,,,,,178.8615011999791,,,,,,,,,,,,,178.85440809998545,178.8615011999791,178.8615011999791,178.8615011999791,181.84537339999224,indoor,f,1.7622776000062004,0.16029629998956807,181.84542539998074,181.84543979997397,None,181.86131539999042,181.86131539999042,181.86131539999042,,,,,,,,,,,,,,00037,001,2026-01-17_10h41.49.026,MST_task,2024.2.0,60.01464356576082,2026-01-17 10h41.57.063194 +0530,
,Objects\142a.jpg,24,0,25,,,,,,,f,1.7103572000050917,0.16872459999285638,None,,,,,,25,0,24,181.86131539999042,,,,,,,,,,,,,,,,,,,,,,,181.84550839997246,181.86131539999042,182.34478999997373,,,,,,,,,,,,,,182.36155929998495,,,,,,,,,,,,,182.35427429998526,182.36155929998495,182.36155929998495,182.36155929998495,185.34510479998426,indoor,f,1.7103572000050917,0.16872459999285638,185.34515339997597,185.34516559998156,None,185.36134989999118,185.36134989999118,185.36134989999118,,,,,,,,,,,,,,00037,001,2026-01-17_10h41.49.026,MST_task,2024.2.0,60.01464356576082,2026-01-17 10h41.57.063194 +0530,
,Objects\291a.jpg,25,0,26,,,,,,,f,1.8020372000173666,0.16742640000302345,None,,,,,,26,0,25,185.36134989999118,,,,,,,,,,,,,,,,,,,,,,,185.34522969997488,185.36134989999118,185.84476999999606,,,,,,,,,,,,,,185.8618592999992,,,,,,,,,,,,,185.8550725999812,185.8618592999992,185.8618592999992,185.8618592999992,188.8453605999821,indoor,f,1.8020372000173666,0.16742640000302345,188.84540939997532,188.8454231999931,None,188.86131229999592,188.86131229999592,188.86131229999592,,,,,,,,,,,,,,00037,001,2026-01-17_10h41.49.026,MST_task,2024.2.0,60.01464356576082,2026-01-17 10h41.57.063194 +0530,
,Objects\105a.jpg,26,0,27,,,,,,,f,2.013788000011118,0.16008529998362064,None,,,,,,27,0,26,188.86131229999592,,,,,,,,,,,,,,,,,,,,,,,188.8454919999931,188.86131229999592,189.34486499999184,,,,,,,,,,,,,,189.3616378000006,,,,,,,,,,,,,189.35494909997215,189.3616378000006,189.3616378000006,189.3616378000006,192.34569009998813,indoor,f,2.013788000011118,0.16008529998362064,192.34574029999203,192.34575299997232,None,192.36142389997258,192.36142389997258,192.36142389997258,,,,,,,,,,,,,,00037,001,2026-01-17_10h41.49.026,MST_task,2024.2.0,60.01464356576082,2026-01-17 10h41.57.063194 +0530,
,Objects\335a.jpg,27,0,28,,,,,,,j,1.098327399988193,0.18389549999847077,None,,,,,,28,0,27,192.36142389997258,,,,,,,,,,,,,,,,,,,,,,,192.34583939998993,192.36142389997258,192.84480500000063,,,,,,,,,,,,,,192.86177629997837,,,,,,,,,,,,,192.85495719997562,192.86177629997837,192.86177629997837,192.86177629997837,195.84527629998047,indoor,j,1.098327399988193,0.18389549999847077,195.84532159997616,195.84533449998708,None,195.86137369999778,195.86137369999778,195.86137369999778,,,,,,,,,,,,,,00037,001,2026-01-17_10h41.49.026,MST_task,2024.2.0,60.01464356576082,2026-01-17 10h41.57.063194 +0530,
,Objects\322a.jpg,28,0,29,,,,,,,j,2.3256628999952227,0.20789190000505187,None,,,,,,29,0,28,195.86137369999778,,,,,,,,,,,,,,,,,,,,,,,195.84544479998294,195.86137369999778,196.3447629000002,,,,,,,,,,,,,,196.3617611999798,,,,,,,,,,,,,196.35703569999896,196.3617611999798,196.3617611999798,196.3617611999798,199.34527709998656,shoe,j,2.3256628999952227,0.20789190000505187,199.34746379998978,199.3474815999798,None,199.36134109998238,199.36134109998238,199.36134109998238,,,,,,,,,,,,,,00037,001,2026-01-17_10h41.49.026,MST_task,2024.2.0,60.01464356576082,2026-01-17 10h41.57.063194 +0530,
,Objects\004a.jpg,29,0,30,,,,,,,f,1.6261282000050414,0.16001630001119338,None,,,,,,30,0,29,199.36134109998238,,,,,,,,,,,,,,,,,,,,,,,199.34755059998133,199.36134109998238,199.84484159998829,,,,,,,,,,,,,,199.86173399997642,,,,,,,,,,,,,199.85535549998167,199.86173399997642,199.86173399997642,199.86173399997642,202.8453372999793,shoe,f,1.6261282000050414,0.16001630001119338,202.8453898000007,202.84540279998328,None,202.86133059998974,202.86133059998974,202.86133059998974,,,,,,,,,,,,,,00037,001,2026-01-17_10h41.49.026,MST_task,2024.2.0,60.01464356576082,2026-01-17 10h41.57.063194 +0530,
,Objects\225a.jpg,30,0,31,,,,,,,f,0.9578525999968406,0.18596230002003722,None,,,,,,31,0,30,202.86133059998974,,,,,,,,,,,,,,,,,,,,,,,202.84547019997262,202.86133059998974,203.34474669999327,,,,,,,,,,,,,,203.361522399995,,,,,,,,,,,,,203.35537109998404,203.361522399995,203.361522399995,203.361522399995,206.34501469999668,shoe,f,0.9578525999968406,0.18596230002003722,206.3450570999994,206.34506929997588,None,206.36133059998974,206.36133059998974,206.36133059998974,,,,,,,,,,,,,,00037,001,2026-01-17_10h41.49.026,MST_task,2024.2.0,60.01464356576082,2026-01-17 10h41.57.063194 +0530,
,Objects\275a.jpg,31,0,32,,,,,,,j,1.1782055999792647,0.1919724000035785,None,,,,,,32,0,31,206.36133059998974,,,,,,,,,,,,,,,,,,,,,,,206.34513499998138,206.36133059998974,206.84477319999132,,,,,,,,,,,,,,206.86170909999055,,,,,,,,,,,,,206.85566289999406,206.86170909999055,206.86170909999055,206.86170909999055,209.8454989999882,shoe,j,1.1782055999792647,0.1919724000035785,209.8455452999915,209.84555909998016,None,209.861319299991,209.861319299991,209.861319299991,,,,,,,,,,,,,,00037,001,2026-01-17_10h41.49.026,MST_task,2024.2.0,60.01464356576082,2026-01-17 10h41.57.063194 +0530,
,Objects\261a.jpg,32,0,33,,,,,,,f,1.6145025000150781,0.18449759998475201,None,,,,,,33,0,32,209.861319299991,,,,,,,,,,,,,,,,,,,,,,,209.8456324999861,209.861319299991,210.34477459997288,,,,,,,,,,,,,,210.361685699987,,,,,,,,,,,,,210.3545297999808,210.361685699987,210.361685699987,210.361685699987,213.34503279998899,shoe,f,1.6145025000150781,0.18449759998475201,213.34507549999398,213.34508739999728,None,213.3612983999774,213.3612983999774,213.3612983999774,,,,,,,,,,,,,,00037,001,2026-01-17_10h41.49.026,MST_task,2024.2.0,60.01464356576082,2026-01-17 10h41.57.063194 +0530,
,Objects\064a.jpg,33,0,34,,,,,,,f,0.801720799994655,0.18492550001246855,None,,,,,,34,0,33,213.3612983999774,,,,,,,,,,,,,,,,,,,,,,,213.34515289997216,213.3612983999774,213.8448337999871,,,,,,,,,,,,,,213.8617684999772,,,,,,,,,,,,,213.8552428999974,213.8617684999772,213.8617684999772,213.8617684999772,216.8452585999912,shoe,f,0.801720799994655,0.18492550001246855,216.845310899982,216.84532299998682,None,216.86141949999728,216.86141949999728,216.86141949999728,,,,,,,,,,,,,,00037,001,2026-01-17_10h41.49.026,MST_task,2024.2.0,60.01464356576082,2026-01-17 10h41.57.063194 +0530,
,Objects\373a.jpg,34,0,35,,,,,,,j,0.87021629998344,0.20015640000929125,None,,,,,,35,0,34,216.86141949999728,,,,,,,,,,,,,,,,,,,,,,,216.84542789999978,216.86141949999728,217.3449209999817,,,,,,,,,,,,,,217.36171069997363,,,,,,,,,,,,,217.35440919999382,217.36171069997363,217.36171069997363,217.36171069997363,220.3451892999874,shoe,j,0.87021629998344,0.20015640000929125,220.345233,220.34524599998258,None,220.3613223999855,220.3613223999855,220.3613223999855,,,,,,,,,,,,,,00037,001,2026-01-17_10h41.49.026,MST_task,2024.2.0,60.01464356576082,2026-01-17 10h41.57.063194 +0530,
,Objects\345a.jpg,35,0,36,,,,,,,f,1.2977150999940932,0.19311769999330863,None,,,,,,36,0,35,220.3613223999855,,,,,,,,,,,,,,,,,,,,,,,220.34534989998792,220.3613223999855,220.84482959998422,,,,,,,,,,,,,,220.86164989997633,,,,,,,,,,,,,220.85585539997555,220.86164989997633,220.86164989997633,220.86164989997633,223.84522879999713,indoor,f,1.2977150999940932,0.19311769999330863,223.84691169997677,223.84693039997364,None,223.86138459999347,223.86138459999347,223.86138459999347,,,,,,,,,,,,,,00037,001,2026-01-17_10h41.49.026,MST_task,2024.2.0,60.01464356576082,2026-01-17 10h41.57.063194 +0530,
,Objects\073a.jpg,36,0,37,,,,,,,f,0.9984997999854386,0.1994338000076823,None,,,,,,37,0,36,223.86138459999347,,,,,,,,,,,,,,,,,,,,,,,223.8470027000003,223.86138459999347,224.34478509999462,,,,,,,,,,,,,,224.36170309997397,,,,,,,,,,,,,224.35430459998315,224.36170309997397,224.36170309997397,224.36170309997397,227.34522519999882,indoor,f,0.9984997999854386,0.1994338000076823,227.3452668999962,227.34527899997192,None,227.3612853999948,227.3612853999948,227.3612853999948,,,,,,,,,,,,,,00037,001,2026-01-17_10h41.49.026,MST_task,2024.2.0,60.01464356576082,2026-01-17 10h41.57.063194 +0530,
,Objects\381a.jpg,37,0,38,,,,,,,f,2.0416102000162937,0.19229330000234768,None,,,,,,38,0,37,227.3612853999948,,,,,,,,,,,,,,,,,,,,,,,227.34534249998978,227.3612853999948,227.844835099997,,,,,,,,,,,,,,227.86175919999368,,,,,,,,,,,,,227.85471619997406,227.86175919999368,227.86175919999368,227.86175919999368,230.84516899997834,indoor,f,2.0416102000162937,0.19229330000234768,230.84521400000085,230.8452267999819,None,230.86135359999025,230.86135359999025,230.86135359999025,,,,,,,,,,,,,,00037,001,2026-01-17_10h41.49.026,MST_task,2024.2.0,60.01464356576082,2026-01-17 10h41.57.063194 +0530,
,Objects\238a.jpg,38,0,39,,,,,,,j,1.1740357000089716,0.21594559997902252,None,,,,,,39,0,38,230.86135359999025,,,,,,,,,,,,,,,,,,,,,,,230.84529229998589,230.86135359999025,231.34484599999269,,,,,,,,,,,,,,231.36168319999706,,,,,,,,,,,,,231.35539819998667,231.36168319999706,231.36168319999706,231.36168319999706,234.34516709999298,indoor,j,1.1740357000089716,0.21594559997902252,234.3452091999934,234.34522039999138,None,234.361276599986,234.361276599986,234.361276599986,,,,,,,,,,,,,,00037,001,2026-01-17_10h41.49.026,MST_task,2024.2.0,60.01464356576082,2026-01-17 10h41.57.063194 +0530,
,Objects\289a.jpg,39,0,40,,,,,,,j,2.2025049999938346,0.23201580002205446,None,,,,,,40,0,39,234.361276599986,,,,,,,,,,,,,,,,,,,,,,,234.34528309997404,234.361276599986,234.84487799997441,,,,,,,,,,,,,,234.8617420999799,,,,,,,,,,,,,234.85437139999704,234.8617420999799,234.8617420999799,234.8617420999799,237.84523179999087,indoor,j,2.2025049999938346,0.23201580002205446,237.84527679998428,237.84529040000052,None,237.86132440000074,237.86132440000074,237.86132440000074,,,,,,,,,,,,,,00037,001,2026-01-17_10h41.49.026,MST_task,2024.2.0,60.01464356576082,2026-01-17 10h41.57.063194 +0530,
,Objects\224a.jpg,40,0,41,,,,,,,f,0.7504336000129115,0.16738609998719767,None,,,,,,41,0,40,237.86132440000074,,,,,,,,,,,,,,,,,,,,,,,237.84535629997845,237.86132440000074,238.34485489997314,,,,,,,,,,,,,,238.36167209999985,,,,,,,,,,,,,238.35428519998095,238.36167209999985,238.36167209999985,238.36167209999985,241.34525119999307,indoor,f,0.7504336000129115,0.16738609998719767,241.34529679999105,241.34530939999968,None,241.36134119998314,241.36134119998314,241.36134119998314,,,,,,,,,,,,,,00037,001,2026-01-17_10h41.49.026,MST_task,2024.2.0,60.01464356576082,2026-01-17 10h41.57.063194 +0530,
,Objects\366a.jpg,41,0,42,,,,,,,j,1.3377871999982744,0.19993530001374893,None,,,,,,42,0,41,241.36134119998314,,,,,,,,,,,,,,,,,,,,,,,241.34537639998598,241.36134119998314,241.8447680999816,,,,,,,,,,,,,,241.86179419999826,,,,,,,,,,,,,241.8554063999909,241.86179419999826,241.86179419999826,241.86179419999826,244.8451310999808,indoor,j,1.3377871999982744,0.19993530001374893,244.84517779998714,244.84519019999425,None,244.86137639998924,244.86137639998924,244.86137639998924,,,,,,,,,,,,,,00037,001,2026-01-17_10h41.49.026,MST_task,2024.2.0,60.01464356576082,2026-01-17 10h41.57.063194 +0530,
,Objects\072a.jpg,42,0,43,,,,,,,f,1.4781576999812387,0.19199960000696592,None,,,,,,43,0,42,244.86137639998924,,,,,,,,,,,,,,,,,,,,,,,244.84525600000052,244.86137639998924,245.34513169998536,,,,,,,,,,,,,,245.36170859998674,,,,,,,,,,,,,245.3578303999966,245.36170859998674,245.36170859998674,245.36170859998674,248.3451646999747,shoe,f,1.4781576999812387,0.19199960000696592,248.347363399982,248.34738129997277,None,248.3613831999828,248.3613831999828,248.3613831999828,,,,,,,,,,,,,,00037,001,2026-01-17_10h41.49.026,MST_task,2024.2.0,60.01464356576082,2026-01-17 10h41.57.063194 +0530,
,Objects\093a.jpg,43,0,44,,,,,,,j,0.970587699994212,0.19200179999461398,None,,,,,,44,0,43,248.3613831999828,,,,,,,,,,,,,,,,,,,,,,,248.3474497999996,248.3613831999828,248.8447915999859,,,,,,,,,,,,,,248.86159699998097,,,,,,,,,,,,,248.85459419997642,248.86159699998097,248.86159699998097,248.86159699998097,251.8452645999787,shoe,j,0.970587699994212,0.19200179999461398,251.8453196999908,251.84533379998174,None,251.86134689999744,251.86134689999744,251.86134689999744,,,,,,,,,,,,,,00037,001,2026-01-17_10h41.49.026,MST_task,2024.2.0,60.01464356576082,2026-01-17 10h41.57.063194 +0530,
,Objects\168a.jpg,44,0,45,,,,,,,f,1.6636543000058737,0.1901697000139393,None,,,,,,45,0,44,251.86134689999744,,,,,,,,,,,,,,,,,,,,,,,251.8454012000002,251.86134689999744,252.34484399997746,,,,,,,,,,,,,,252.36171689999173,,,,,,,,,,,,,252.35451359997387,252.36171689999173,252.36171689999173,252.36171689999173,255.34533689997625,shoe,f,1.6636543000058737,0.1901697000139393,255.34538069998962,255.34539329999825,None,255.36138339998433,255.36138339998433,255.36138339998433,,,,,,,,,,,,,,00037,001,2026-01-17_10h41.49.026,MST_task,2024.2.0,60.01464356576082,2026-01-17 10h41.57.063194 +0530,
,Objects\357a.jpg,45,0,46,,,,,,,f,1.9377180000010412,0.19190479998360388,None,,,,,,46,0,45,255.36138339998433,,,,,,,,,,,,,,,,,,,,,,,255.34549239999615,255.36138339998433,255.8449250999838,,,,,,,,,,,,,,255.86170649999985,,,,,,,,,,,,,255.85354240000015,255.86170649999985,255.86170649999985,255.86170649999985,258.8455235000001,shoe,f,1.9377180000010412,0.19190479998360388,258.84556689998135,258.84557879998465,None,258.86143589997664,258.86143589997664,258.86143589997664,,,,,,,,,,,,,,00037,001,2026-01-17_10h41.49.026,MST_task,2024.2.0,60.01464356576082,2026-01-17 10h41.57.063194 +0530,
,Objects\213a.jpg,46,0,47,,,,,,,f,1.2221779999963474,0.19227759999921545,None,,,,,,47,0,46,258.86143589997664,,,,,,,,,,,,,,,,,,,,,,,258.84564369998407,258.86143589997664,259.34501399999135,,,,,,,,,,,,,,259.3619185999851,,,,,,,,,,,,,259.3556286999956,259.3619185999851,259.3619185999851,259.3619185999851,262.3454648999905,shoe,f,1.2221779999963474,0.19227759999921545,262.3455084999732,262.34552079997957,None,262.36141159999534,262.36141159999534,262.36141159999534,,,,,,,,,,,,,,00037,001,2026-01-17_10h41.49.026,MST_task,2024.2.0,60.01464356576082,2026-01-17 10h41.57.063194 +0530,
,Objects\301a.jpg,47,0,48,,,,,,,j,1.2978620000067167,0.21594850000110455,None,,,,,,48,0,47,262.36141159999534,,,,,,,,,,,,,,,,,,,,,,,262.345585699979,262.36141159999534,262.84496039999067,,,,,,,,,,,,,,262.8618346999865,,,,,,,,,,,,,262.85719999999856,262.8618346999865,262.8618346999865,262.8618346999865,265.8452886999876,shoe,j,1.2978620000067167,0.21594850000110455,265.84533249997185,265.8453447999782,None,265.8613785999769,265.8613785999769,265.8613785999769,,,,,,,,,,,,,,00037,001,2026-01-17_10h41.49.026,MST_task,2024.2.0,60.01464356576082,2026-01-17 10h41.57.063194 +0530,
,Objects\155a.jpg,48,0,49,,,,,,,f,1.141781100013759,0.19247109998832457,None,,,,,,49,0,48,265.8613785999769,,,,,,,,,,,,,,,,,,,,,,,265.845410799986,265.8613785999769,266.3449092999799,,,,,,,,,,,,,,266.3616962999804,,,,,,,,,,,,,266.3557121999911,266.3616962999804,266.3616962999804,266.3616962999804,269.345385099994,shoe,f,1.141781100013759,0.19247109998832457,269.3454259999853,269.34543809999013,None,269.3613893999718,269.3613893999718,269.3613893999718,,,,,,,,,,,,,,00037,001,2026-01-17_10h41.49.026,MST_task,2024.2.0,60.01464356576082,2026-01-17 10h41.57.063194 +0530,
,Objects\009a.jpg,49,0,50,,,,,,,f,1.3935841000056826,0.19310009997570887,None,,,,,,50,0,49,269.3613893999718,,,,,,,,,,,,,,,,,,,,,,,269.3455335999897,269.3613893999718,269.84498889997485,,,,,,,,,,,,,,269.8618665999966,,,,,,,,,,,,,269.8562112999789,269.8618665999966,269.8618665999966,269.8618665999966,272.8454236999969,indoor,f,1.3935841000056826,0.19310009997570887,272.84701829997357,272.84703539998736,None,272.86141729998053,272.86141729998053,272.86141729998053,,,,,,,,,,,,,,00037,001,2026-01-17_10h41.49.026,MST_task,2024.2.0,60.01464356576082,2026-01-17 10h41.57.063194 +0530,
,Objects\331a.jpg,50,0,51,,,,,,,f,1.7103421000065282,0.16746949998196214,None,,,,,,51,0,50,272.86141729998053,,,,,,,,,,,,,,,,,,,,,,,272.8471144999785,272.86141729998053,273.34503499997663,,,,,,,,,,,,,,273.361883399979,,,,,,,,,,,,,273.35502339998493,273.361883399979,273.361883399979,273.361883399979,276.3452498999832,indoor,f,1.7103421000065282,0.16746949998196214,276.345293499995,276.34530559999985,None,276.36147179998807,276.36147179998807,276.36147179998807,,,,,,,,,,,,,,00037,001,2026-01-17_10h41.49.026,MST_task,2024.2.0,60.01464356576082,2026-01-17 10h41.57.063194 +0530,
,Objects\223a.jpg,51,0,52,,,,,,,j,1.2741537000110839,0.22401179998996668,None,,,,,,52,0,51,276.36147179998807,,,,,,,,,,,,,,,,,,,,,,,276.34537179998006,276.36147179998807,276.84504009998636,,,,,,,,,,,,,,276.8618044999894,,,,,,,,,,,,,276.85503529998823,276.8618044999894,276.8618044999894,276.8618044999894,279.8451858999906,indoor,j,1.2741537000110839,0.22401179998996668,279.8452290999994,279.8452414999774,None,279.861385999975,279.861385999975,279.861385999975,,,,,,,,,,,,,,00037,001,2026-01-17_10h41.49.026,MST_task,2024.2.0,60.01464356576082,2026-01-17 10h41.57.063194 +0530,
,Objects\286a.jpg,52,0,53,,,,,,,j,1.4140504999959376,0.19326319999527186,None,,,,,,53,0,52,279.861385999975,,,,,,,,,,,,,,,,,,,,,,,279.8453051999968,279.861385999975,280.3449587999785,,,,,,,,,,,,,,280.36187779999455,,,,,,,,,,,,,280.35449869997683,280.36187779999455,280.36187779999455,280.36187779999455,283.34514859999763,indoor,j,1.4140504999959376,0.19326319999527186,283.34519069999806,283.3452027999738,None,283.3614519999828,283.3614519999828,283.3614519999828,,,,,,,,,,,,,,00037,001,2026-01-17_10h41.49.026,MST_task,2024.2.0,60.01464356576082,2026-01-17 10h41.57.063194 +0530,
,Objects\342a.jpg,53,0,54,,,,,,,f,1.8983949999965262,0.16711549999308772,None,,,,,,54,0,53,283.3614519999828,,,,,,,,,,,,,,,,,,,,,,,283.3452670999977,283.3614519999828,283.84492109998246,,,,,,,,,,,,,,283.8618716999772,,,,,,,,,,,,,283.8549261999724,283.8618716999772,283.8618716999772,283.8618716999772,286.84519819999696,indoor,f,1.8983949999965262,0.16711549999308772,286.84524119997513,286.84525379998377,None,286.8614675999852,286.8614675999852,286.8614675999852,,,,,,,,,,,,,,00037,001,2026-01-17_10h41.49.026,MST_task,2024.2.0,60.01464356576082,2026-01-17 10h41.57.063194 +0530,
,Objects\032a.jpg,54,0,55,,,,,,,j,0.829644500016002,0.1923131000075955,None,,,,,,55,0,54,286.8614675999852,,,,,,,,,,,,,,,,,,,,,,,286.8453199999931,286.8614675999852,287.34490999998525,,,,,,,,,,,,,,287.3617086999875,,,,,,,,,,,,,287.35450409998884,287.3617086999875,287.3617086999875,287.3617086999875,290.34531979999156,indoor,j,0.829644500016002,0.1923131000075955,290.34536379997735,290.3453762999852,None,290.36167519999435,290.36167519999435,290.36167519999435,,,,,,,,,,,,,,00037,001,2026-01-17_10h41.49.026,MST_task,2024.2.0,60.01464356576082,2026-01-17 10h41.57.063194 +0530,
,Objects\035a.jpg,55,0,56,,,,,,,f,2.033670800010441,0.17687090000254102,None,,,,,,56,0,55,290.36167519999435,,,,,,,,,,,,,,,,,,,,,,,290.345439799974,290.36167519999435,290.8450916999718,,,,,,,,,,,,,,290.861717199994,,,,,,,,,,,,,290.8547548999777,290.861717199994,290.861717199994,290.861717199994,293.84528129998944,indoor,f,2.033670800010441,0.17687090000254102,293.84532369999215,293.8453359999985,None,293.8614507999737,293.8614507999737,293.8614507999737,,,,,,,,,,,,,,00037,001,2026-01-17_10h41.49.026,MST_task,2024.2.0,60.01464356576082,2026-01-17 10h41.57.063194 +0530,
,Objects\060a.jpg,56,0,57,,,,,,,j,1.3020990999939386,0.19993410000461154,None,,,,,,57,0,56,293.8614507999737,,,,,,,,,,,,,,,,,,,,,,,293.84539929998573,293.8614507999737,294.3449918999977,,,,,,,,,,,,,,294.36163589998614,,,,,,,,,,,,,294.35671389999334,294.36163589998614,294.36163589998614,294.36163589998614,297.34537569998065,shoe,j,1.3020990999939386,0.19993410000461154,297.3475084999809,297.34752669997397,None,297.36146589997225,297.36146589997225,297.36146589997225,,,,,,,,,,,,,,00037,001,2026-01-17_10h41.49.026,MST_task,2024.2.0,60.01464356576082,2026-01-17 10h41.57.063194 +0530,
,Objects\355a.jpg,57,0,58,,,,,,,f,2.4735224999894854,0.19209560001036152,None,,,,,,58,0,57,297.36146589997225,,,,,,,,,,,,,,,,,,,,,,,297.34759609997855,297.36146589997225,297.84514359998866,,,,,,,,,,,,,,297.86183979999623,,,,,,,,,,,,,297.8553048999747,297.86183979999623,297.86183979999623,297.86183979999623,300.84524479997344,shoe,f,2.4735224999894854,0.19209560001036152,300.8452943999728,300.84530769998673,None,300.8614204999758,300.8614204999758,300.8614204999758,,,,,,,,,,,,,,00037,001,2026-01-17_10h41.49.026,MST_task,2024.2.0,60.01464356576082,2026-01-17 10h41.57.063194 +0530,
,Objects\272a.jpg,58,0,59,,,,,,,f,2.0863630999810994,0.16799750001518987,None,,,,,,59,0,58,300.8614204999758,,,,,,,,,,,,,,,,,,,,,,,300.84537289998843,300.8614204999758,301.3448430999997,,,,,,,,,,,,,,301.361729599972,,,,,,,,,,,,,301.35416619997704,301.361729599972,301.361729599972,301.361729599972,304.34557359997416,shoe,f,2.0863630999810994,0.16799750001518987,304.3456135999877,304.345625499991,None,304.36145810000016,304.36145810000016,304.36145810000016,,,,,,,,,,,,,,00037,001,2026-01-17_10h41.49.026,MST_task,2024.2.0,60.01464356576082,2026-01-17 10h41.57.063194 +0530,
,Objects\178a.jpg,59,0,60,,,,,,,j,1.393789599998854,0.20108349999645725,None,,,,,,60,0,59,304.36145810000016,,,,,,,,,,,,,,,,,,,,,,,304.3457216999959,304.36145810000016,304.8449957999983,,,,,,,,,,,,,,304.86181489998125,,,,,,,,,,,,,304.85589189999155,304.86181489998125,304.86181489998125,304.86181489998125,307.84503159997985,shoe,j,1.393789599998854,0.20108349999645725,307.84507219999796,307.8450840000005,None,307.86137899997993,307.86137899997993,307.86137899997993,,,,,,,,,,,,,,00037,001,2026-01-17_10h41.49.026,MST_task,2024.2.0,60.01464356576082,2026-01-17 10h41.57.063194 +0530,
,Objects\045a.jpg,60,0,61,,,,,,,j,0.8783496999822091,0.20003380000707693,None,,,,,,61,0,60,307.86137899997993,,,,,,,,,,,,,,,,,,,,,,,307.84514759999,307.86137899997993,308.34487459997763,,,,,,,,,,,,,,308.36159549999866,,,,,,,,,,,,,308.3550210999965,308.36159549999866,308.36159549999866,308.36159549999866,311.3454000999918,shoe,j,0.8783496999822091,0.20003380000707693,311.34544089998235,311.3454531999887,None,311.36149769998156,311.36149769998156,311.36149769998156,,,,,,,,,,,,,,00037,001,2026-01-17_10h41.49.026,MST_task,2024.2.0,60.01464356576082,2026-01-17 10h41.57.063194 +0530,
,Objects\265a.jpg,61,0,62,,,,,,,j,1.5864584000082687,0.1999945999996271,None,,,,,,62,0,61,311.36149769998156,,,,,,,,,,,,,,,,,,,,,,,311.34554569999455,311.36149769998156,311.8450322999852,,,,,,,,,,,,,,311.8618595999724,,,,,,,,,,,,,311.8549232999794,311.8618595999724,311.8618595999724,311.8618595999724,314.8453335999802,shoe,j,1.5864584000082687,0.1999945999996271,314.8453737999953,314.8453851999948,None,314.86138959997334,314.86138959997334,314.86138959997334,,,,,,,,,,,,,,00037,001,2026-01-17_10h41.49.026,MST_task,2024.2.0,60.01464356576082,2026-01-17 10h41.57.063194 +0530,
,Objects\179a.jpg,62,0,63,,,,,,,f,1.957744899991667,0.2080073000106495,None,,,,,,63,0,62,314.86138959997334,,,,,,,,,,,,,,,,,,,,,,,314.84545489997254,314.86138959997334,315.3447633999749,,,,,,,,,,,,,,315.36180899999454,,,,,,,,,,,,,315.35442599997623,315.36180899999454,315.36180899999454,315.36180899999454,318.34506879997207,shoe,f,1.957744899991667,0.2080073000106495,318.34510839998256,318.3451201999851,None,318.3614028999873,318.3614028999873,318.3614028999873,,,,,,,,,,,,,,00037,001,2026-01-17_10h41.49.026,MST_task,2024.2.0,60.01464356576082,2026-01-17 10h41.57.063194 +0530,
,Objects\234a.jpg,63,0,64,,,,,,,j,0.9618798999872524,0.19998669999768026,None,,,,,,64,0,63,318.3614028999873,,,,,,,,,,,,,,,,,,,,,,,318.3452148999786,318.3614028999873,318.8450350999774,,,,,,,,,,,,,,318.8616916999745,,,,,,,,,,,,,318.8566193000006,318.8616916999745,318.8616916999745,318.8616916999745,321.8453899999731,indoor,j,0.9618798999872524,0.19998669999768026,321.84718059998704,321.84720009999,None,321.8614268999954,321.8614268999954,321.8614268999954,,,,,,,,,,,,,,00037,001,2026-01-17_10h41.49.026,MST_task,2024.2.0,60.01464356576082,2026-01-17 10h41.57.063194 +0530,
,Objects\203a.jpg,64,0,65,,,,,,,f,1.2218618000042625,0.18409049999900162,None,,,,,,65,0,64,321.8614268999954,,,,,,,,,,,,,,,,,,,,,,,321.8472769999935,321.8614268999954,322.3447910999821,,,,,,,,,,,,,,322.36174919997575,,,,,,,,,,,,,322.35508359997766,322.36174919997575,322.36174919997575,322.36174919997575,325.34500259999186,indoor,f,1.2218618000042625,0.18409049999900162,325.34504739998374,325.34505899998476,None,325.361505799985,325.361505799985,325.361505799985,,,,,,,,,,,,,,00037,001,2026-01-17_10h41.49.026,MST_task,2024.2.0,60.01464356576082,2026-01-17 10h41.57.063194 +0530,
,Objects\237a.jpg,65,0,66,,,,,,,j,1.2903198999993037,0.19923940001172014,None,,,,,,66,0,65,325.361505799985,,,,,,,,,,,,,,,,,,,,,,,325.345124799991,325.361505799985,325.8448981999827,,,,,,,,,,,,,,325.8618486999767,,,,,,,,,,,,,325.85708769998746,325.8618486999767,325.8618486999767,325.8618486999767,328.845467999985,indoor,j,1.2903198999993037,0.19923940001172014,328.84551069999,328.8455225999933,None,328.8613751999801,328.8613751999801,328.8613751999801,,,,,,,,,,,,,,00037,001,2026-01-17_10h41.49.026,MST_task,2024.2.0,60.01464356576082,2026-01-17 10h41.57.063194 +0530,
,Objects\100a.jpg,66,0,67,,,,,,,j,1.4224975999968592,0.199230099999113,None,,,,,,67,0,66,328.8613751999801,,,,,,,,,,,,,,,,,,,,,,,328.84558969998034,328.8613751999801,329.34491309997975,,,,,,,,,,,,,,329.36179219998303,,,,,,,,,,,,,329.3546410999843,329.36179219998303,329.36179219998303,329.36179219998303,332.34520619999967,indoor,j,1.4224975999968592,0.199230099999113,332.3452487999748,332.34526129998267,None,332.3613053000008,332.3613053000008,332.3613053000008,,,,,,,,,,,,,,00037,001,2026-01-17_10h41.49.026,MST_task,2024.2.0,60.01464356576082,2026-01-17 10h41.57.063194 +0530,
,Objects\186a.jpg,67,0,68,,,,,,,f,0.8665563999966253,0.19963950000237674,None,,,,,,68,0,67,332.3613053000008,,,,,,,,,,,,,,,,,,,,,,,332.3453260999813,332.3613053000008,332.8449170999811,,,,,,,,,,,,,,332.8616403999913,,,,,,,,,,,,,332.85483709999244,332.8616403999913,332.8616403999913,332.8616403999913,335.8450777999824,indoor,f,0.8665563999966253,0.19963950000237674,335.8451212999935,335.845133099996,None,335.8613673999789,335.8613673999789,335.8613673999789,,,,,,,,,,,,,,00037,001,2026-01-17_10h41.49.026,MST_task,2024.2.0,60.01464356576082,2026-01-17 10h41.57.063194 +0530,
,Objects\133a.jpg,68,0,69,,,,,,,j,1.0866541000141297,0.2151272999763023,None,,,,,,69,0,68,335.8613673999789,,,,,,,,,,,,,,,,,,,,,,,335.84519719998934,335.8613673999789,336.344901799981,,,,,,,,,,,,,,336.3616592999897,,,,,,,,,,,,,336.3545088999963,336.3616592999897,336.3616592999897,336.3616592999897,339.34509109999635,indoor,j,1.0866541000141297,0.2151272999763023,339.34513089997927,339.34514289998333,None,339.3614149999921,339.3614149999921,339.3614149999921,,,,,,,,,,,,,,00037,001,2026-01-17_10h41.49.026,MST_task,2024.2.0,60.01464356576082,2026-01-17 10h41.57.063194 +0530,
,Objects\354a.jpg,69,0,70,,,,,,,f,1.482303500000853,0.19214880000799894,None,,,,,,70,0,69,339.3614149999921,,,,,,,,,,,,,,,,,,,,,,,339.3452053999936,339.3614149999921,339.8449015999795,,,,,,,,,,,,,,339.8617873999756,,,,,,,,,,,,,339.8554009999789,339.8617873999756,339.8617873999756,339.8617873999756,342.8450102999923,indoor,f,1.482303500000853,0.19214880000799894,342.84505229999195,342.845064299996,None,342.86137410000083,342.86137410000083,342.86137410000083,,,,,,,,,,,,,,00037,001,2026-01-17_10h41.49.026,MST_task,2024.2.0,60.01464356576082,2026-01-17 10h41.57.063194 +0530,
,Objects\020a.jpg,70,0,71,,,,,,,f,2.3496985999809112,0.1925213999929838,None,,,,,,71,0,70,342.86137410000083,,,,,,,,,,,,,,,,,,,,,,,342.8451292999962,342.86137410000083,343.34480679998524,,,,,,,,,,,,,,343.3617691999825,,,,,,,,,,,,,343.35768739998457,343.3617691999825,343.3617691999825,343.3617691999825,346.34554929999285,shoe,f,2.3496985999809112,0.1925213999929838,346.3477487999771,346.34776739997324,None,346.3614314000006,346.3614314000006,346.3614314000006,,,,,,,,,,,,,,00037,001,2026-01-17_10h41.49.026,MST_task,2024.2.0,60.01464356576082,2026-01-17 10h41.57.063194 +0530,
,Objects\280a.jpg,71,0,72,,,,,,,j,0.9776913000096101,0.19997919999877922,None,,,,,,72,0,71,346.3614314000006,,,,,,,,,,,,,,,,,,,,,,,346.34787339999457,346.3614314000006,346.84483859999455,,,,,,,,,,,,,,346.86173029997735,,,,,,,,,,,,,346.85444999998435,346.86173029997735,346.86173029997735,346.86173029997735,349.84528829998453,shoe,j,0.9776913000096101,0.19997919999877922,349.84532809999655,349.84533999999985,None,349.8613068999839,349.8613068999839,349.8613068999839,,,,,,,,,,,,,,00037,001,2026-01-17_10h41.49.026,MST_task,2024.2.0,60.01464356576082,2026-01-17 10h41.57.063194 +0530,
,Objects\042a.jpg,72,0,73,,,,,,,j,1.662647899996955,0.20000240000081249,None,,,,,,73,0,72,349.8613068999839,,,,,,,,,,,,,,,,,,,,,,,349.8454037999909,349.8613068999839,350.3448710999801,,,,,,,,,,,,,,350.3615630999848,,,,,,,,,,,,,350.35459849998006,350.3615630999848,350.3615630999848,350.3615630999848,353.3452546999906,shoe,j,1.662647899996955,0.20000240000081249,353.3452952999796,353.3453069999814,None,353.3613761999877,353.3613761999877,353.3613761999877,,,,,,,,,,,,,,00037,001,2026-01-17_10h41.49.026,MST_task,2024.2.0,60.01464356576082,2026-01-17 10h41.57.063194 +0530,
,Objects\103a.jpg,73,0,74,,,,,,,j,1.0019324000168126,0.25712699998985045,None,,,,,,74,0,73,353.3613761999877,,,,,,,,,,,,,,,,,,,,,,,353.34537229998386,353.3613761999877,353.8448647999903,,,,,,,,,,,,,,353.8615896999836,,,,,,,,,,,,,353.85476879999624,353.8615896999836,353.8615896999836,353.8615896999836,356.8450829999929,shoe,j,1.0019324000168126,0.25712699998985045,356.84512839998933,356.8451408999972,None,356.86137559998315,356.86137559998315,356.86137559998315,,,,,,,,,,,,,,00037,001,2026-01-17_10h41.49.026,MST_task,2024.2.0,60.01464356576082,2026-01-17 10h41.57.063194 +0530,
,Objects\162a.jpg,74,0,75,,,,,,,f,1.3427567000035197,0.17511929999454878,None,,,,,,75,0,74,356.86137559998315,,,,,,,,,,,,,,,,,,,,,,,356.84523599999375,356.86137559998315,357.34481499998947,,,,,,,,,,,,,,357.36162369998056,,,,,,,,,,,,,357.35462699999334,357.36162369998056,357.36162369998056,357.36162369998056,360.34522769998875,shoe,f,1.3427567000035197,0.17511929999454878,360.3452679999755,360.34528019998106,None,360.36131709997426,360.36131709997426,360.36131709997426,,,,,,,,,,,,,,00037,001,2026-01-17_10h41.49.026,MST_task,2024.2.0,60.01464356576082,2026-01-17 10h41.57.063194 +0530,
,Objects\348a.jpg,75,0,76,,,,,,,f,2.193908300017938,0.20878179999999702,None,,,,,,76,0,75,360.36131709997426,,,,,,,,,,,,,,,,,,,,,,,360.3453432999959,360.36131709997426,360.84495679999236,,,,,,,,,,,,,,360.8617984999728,,,,,,,,,,,,,360.8543642000004,360.8617984999728,360.8617984999728,360.8617984999728,363.8451744999911,shoe,f,2.193908300017938,0.20878179999999702,363.8452158999862,363.84522769998875,None,363.8613774999976,363.8613774999976,363.8613774999976,,,,,,,,,,,,,,00037,001,2026-01-17_10h41.49.026,MST_task,2024.2.0,60.01464356576082,2026-01-17 10h41.57.063194 +0530,
,Objects\181a.jpg,76,0,77,,,,,,,j,0.7576265000097919,0.19205639997380786,None,,,,,,77,0,76,363.8613774999976,,,,,,,,,,,,,,,,,,,,,,,363.8452935999958,363.8613774999976,364.34480749999057,,,,,,,,,,,,,,364.361777299986,,,,,,,,,,,,,364.3556880999822,364.361777299986,364.361777299986,364.361777299986,367.3452207999944,shoe,j,0.7576265000097919,0.19205639997380786,367.3452622999903,367.3452738999913,None,367.3613948999846,367.3613948999846,367.3613948999846,,,,,,,,,,,,,,00037,001,2026-01-17_10h41.49.026,MST_task,2024.2.0,60.01464356576082,2026-01-17 10h41.57.063194 +0530,
,Objects\189a.jpg,77,0,78,,,,,,,f,2.3940771000052337,0.19991029999800958,None,,,,,,78,0,77,367.3613948999846,,,,,,,,,,,,,,,,,,,,,,,367.3453398999991,367.3613948999846,367.8448133999773,,,,,,,,,,,,,,367.86157689997344,,,,,,,,,,,,,367.8559475999791,367.86157689997344,367.86157689997344,367.86157689997344,370.8450322999852,indoor,f,2.3940771000052337,0.19991029999800958,370.84669599999324,370.84671359998174,None,370.86133889999473,370.86133889999473,370.86133889999473,,,,,,,,,,,,,,00037,001,2026-01-17_10h41.49.026,MST_task,2024.2.0,60.01464356576082,2026-01-17 10h41.57.063194 +0530,
,Objects\135a.jpg,78,0,79,,,,,,,f,1.38192459999118,0.20126120001077652,None,,,,,,79,0,78,370.86133889999473,,,,,,,,,,,,,,,,,,,,,,,370.84678319998784,370.86133889999473,371.344921299984,,,,,,,,,,,,,,371.3615925999766,,,,,,,,,,,,,371.35477009997703,371.3615925999766,371.3615925999766,371.3615925999766,374.3451123999839,indoor,f,1.38192459999118,0.20126120001077652,374.3451524999982,374.34516430000076,None,374.36141389998375,374.36141389998375,374.36141389998375,,,,,,,,,,,,,,00037,001,2026-01-17_10h41.49.026,MST_task,2024.2.0,60.01464356576082,2026-01-17 10h41.57.063194 +0530,
,Objects\274a.jpg,79,0,80,,,,,,,j,0.6900680999970064,0.2160853999957908,None,,,,,,80,0,79,374.36141389998375,,,,,,,,,,,,,,,,,,,,,,,374.34522899999865,374.36141389998375,374.84483909999835,,,,,,,,,,,,,,374.8616227999737,,,,,,,,,,,,,374.85456899998826,374.8616227999737,374.8616227999737,374.8616227999737,377.8452691999846,indoor,j,0.6900680999970064,0.2160853999957908,377.8453103999782,377.8453221999807,None,377.86148299998604,377.86148299998604,377.86148299998604,,,,,,,,,,,,,,00037,001,2026-01-17_10h41.49.026,MST_task,2024.2.0,60.01464356576082,2026-01-17 10h41.57.063194 +0530,
,Objects\287a.jpg,80,0,81,,,,,,,f,0.8380586999992374,0.20800660000531934,None,,,,,,81,0,80,377.86148299998604,,,,,,,,,,,,,,,,,,,,,,,377.84538549999706,377.86148299998604,378.34503009999753,,,,,,,,,,,,,,378.3619743999734,,,,,,,,,,,,,378.3553207999794,378.3619743999734,378.3619743999734,378.3619743999734,381.34520129999146,indoor,f,0.8380586999992374,0.20800660000531934,381.3452417999797,381.34525359998224,None,381.3615101999894,381.3615101999894,381.3615101999894,,,,,,,,,,,,,,00037,001,2026-01-17_10h41.49.026,MST_task,2024.2.0,60.01464356576082,2026-01-17 10h41.57.063194 +0530,
,Objects\338a.jpg,81,0,82,,,,,,,f,0.9615169999888167,0.2009165000054054,None,,,,,,82,0,81,381.3615101999894,,,,,,,,,,,,,,,,,,,,,,,381.34531849998166,381.3615101999894,381.84489139998914,,,,,,,,,,,,,,381.86176829997567,,,,,,,,,,,,,381.8542635999911,381.86176829997567,381.86176829997567,381.86176829997567,384.8455061999848,indoor,f,0.9615169999888167,0.2009165000054054,384.8455460999976,384.8455573999963,None,384.8614625999762,384.8614625999762,384.8614625999762,,,,,,,,,,,,,,00037,001,2026-01-17_10h41.49.026,MST_task,2024.2.0,60.01464356576082,2026-01-17 10h41.57.063194 +0530,
,Objects\314a.jpg,82,0,83,,,,,,,f,1.606310900009703,0.20802499999990687,None,,,,,,83,0,82,384.8614625999762,,,,,,,,,,,,,,,,,,,,,,,384.84562149998965,384.8614625999762,385.34506389999297,,,,,,,,,,,,,,385.3618558999733,,,,,,,,,,,,,385.3561696999823,385.3618558999733,385.3618558999733,385.3618558999733,388.3454014999734,indoor,f,1.606310900009703,0.20802499999990687,388.3454464999959,388.3454582999984,None,388.36141569999745,388.36141569999745,388.36141569999745,,,,,,,,,,,,,,00037,001,2026-01-17_10h41.49.026,MST_task,2024.2.0,60.01464356576082,2026-01-17 10h41.57.063194 +0530,
,Objects\221a.jpg,83,0,84,,,,,,,j,0.7940134999807924,0.21638960001291707,None,,,,,,84,0,83,388.36141569999745,,,,,,,,,,,,,,,,,,,,,,,388.34552339999937,388.36141569999745,388.8448947999859,,,,,,,,,,,,,,388.8618287999998,,,,,,,,,,,,,388.85460959997727,388.8618287999998,388.8618287999998,388.8618287999998,391.845245399978,indoor,j,0.7940134999807924,0.21638960001291707,391.84528669997235,391.8452983999741,None,391.86149739997927,391.86149739997927,391.86149739997927,,,,,,,,,,,,,,00037,001,2026-01-17_10h41.49.026,MST_task,2024.2.0,60.01464356576082,2026-01-17 10h41.57.063194 +0530,
,Objects\053a.jpg,84,0,85,,,,,,,f,1.7906422999803908,0.20716449999599718,None,,,,,,85,0,84,391.86149739997927,,,,,,,,,,,,,,,,,,,,,,,391.84536329997354,391.86149739997927,392.3450875999988,,,,,,,,,,,,,,392.3619529999851,,,,,,,,,,,,,392.3583713999833,392.3619529999851,392.3619529999851,392.3619529999851,395.34547609998845,shoe,f,1.7906422999803908,0.20716449999599718,395.3479804999952,395.3479976999806,None,395.3615096999856,395.3615096999856,395.3615096999856,,,,,,,,,,,,,,00037,001,2026-01-17_10h41.49.026,MST_task,2024.2.0,60.01464356576082,2026-01-17 10h41.57.063194 +0530,
,Objects\068a.jpg,85,0,86,,,,,,,j,1.1378778999787755,0.24042570000165142,None,,,,,,86,0,85,395.3615096999856,,,,,,,,,,,,,,,,,,,,,,,395.34809699998004,395.3615096999856,395.8450479999883,,,,,,,,,,,,,,395.8615705999837,,,,,,,,,,,,,395.85477239999454,395.8615705999837,395.8615705999837,395.8615705999837,398.8453698999947,shoe,j,1.1378778999787755,0.24042570000165142,398.8454109999875,398.8454228999908,None,398.861465199996,398.861465199996,398.861465199996,,,,,,,,,,,,,,00037,001,2026-01-17_10h41.49.026,MST_task,2024.2.0,60.01464356576082,2026-01-17 10h41.57.063194 +0530,
,Objects\347a.jpg,86,0,87,,,,,,,f,1.2869721000024583,0.20743539999239147,None,,,,,,87,0,86,398.861465199996,,,,,,,,,,,,,,,,,,,,,,,398.84548769998946,398.861465199996,399.344970599981,,,,,,,,,,,,,,399.36172689998057,,,,,,,,,,,,,399.35452789999545,399.36172689998057,399.36172689998057,399.36172689998057,402.3453833999811,shoe,f,1.2869721000024583,0.20743539999239147,402.345422399987,402.3454340999888,None,402.36142939998535,402.36142939998535,402.36142939998535,,,,,,,,,,,,,,00037,001,2026-01-17_10h41.49.026,MST_task,2024.2.0,60.01464356576082,2026-01-17 10h41.57.063194 +0530,
,Objects\158a.jpg,87,0,88,,,,,,,f,0.7378575000038836,0.20800049998797476,None,,,,,,88,0,87,402.36142939998535,,,,,,,,,,,,,,,,,,,,,,,402.3454991999897,402.36142939998535,402.84521709999535,,,,,,,,,,,,,,402.8616763999744,,,,,,,,,,,,,402.8552984999842,402.8616763999744,402.8616763999744,402.8616763999744,405.84528799998225,shoe,f,0.7378575000038836,0.20800049998797476,405.84532939997735,405.84534229998826,None,405.8614923999994,405.8614923999994,405.8614923999994,,,,,,,,,,,,,,00037,001,2026-01-17_10h41.49.026,MST_task,2024.2.0,60.01464356576082,2026-01-17 10h41.57.063194 +0530,
,Objects\003a.jpg,88,0,89,,,,,,,j,0.99046110000927,0.2078689000045415,None,,,,,,89,0,88,405.8614923999994,,,,,,,,,,,,,,,,,,,,,,,405.8454379999894,405.8614923999994,406.34512779998477,,,,,,,,,,,,,,406.3617342999787,,,,,,,,,,,,,406.3546443999803,406.3617342999787,406.3617342999787,406.3617342999787,409.34535969997523,shoe,j,0.99046110000927,0.2078689000045415,409.345399599988,409.34541139999055,None,409.36148169997614,409.36148169997614,409.36148169997614,,,,,,,,,,,,,,00037,001,2026-01-17_10h41.49.026,MST_task,2024.2.0,60.01464356576082,2026-01-17 10h41.57.063194 +0530,
,Objects\214a.jpg,89,0,90,,,,,,,f,1.6347869000164792,0.20714329998008907,None,,,,,,90,0,89,409.36148169997614,,,,,,,,,,,,,,,,,,,,,,,409.3454758999869,409.36148169997614,409.8451791999978,,,,,,,,,,,,,,409.86172439999063,,,,,,,,,,,,,409.85625589999836,409.86172439999063,409.86172439999063,409.86172439999063,412.84529779999866,shoe,f,1.6347869000164792,0.20714329998008907,412.84533899999224,412.8453507999948,None,412.86150759999873,412.86150759999873,412.86150759999873,,,,,,,,,,,,,,00037,001,2026-01-17_10h41.49.026,MST_task,2024.2.0,60.01464356576082,2026-01-17 10h41.57.063194 +0530,
,Objects\260a.jpg,90,0,91,,,,,,,f,1.613662399991881,0.224614400009159,None,,,,,,91,0,90,412.86150759999873,,,,,,,,,,,,,,,,,,,,,,,412.8454143999843,412.86150759999873,413.3450746999879,,,,,,,,,,,,,,413.3617947999737,,,,,,,,,,,,,413.3558619999967,413.3617947999737,413.3617947999737,413.3617947999737,416.34544009997626,shoe,f,1.613662399991881,0.224614400009159,416.3454805999936,416.3454917999916,None,416.3614603999886,416.3614603999886,416.3614603999886,,,,,,,,,,,,,,00037,001,2026-01-17_10h41.49.026,MST_task,2024.2.0,60.01464356576082,2026-01-17 10h41.57.063194 +0530,
,Objects\019a.jpg,91,0,92,,,,,,,f,1.4667695999960415,0.21497480000834912,None,,,,,,92,0,91,416.3614603999886,,,,,,,,,,,,,,,,,,,,,,,416.34555499997805,416.3614603999886,416.8450510999828,,,,,,,,,,,,,,416.86174349999055,,,,,,,,,,,,,416.8571320999763,416.86174349999055,416.86174349999055,416.86174349999055,419.84520359997987,indoor,f,1.4667695999960415,0.21497480000834912,419.8467941999843,419.8468107999943,None,419.8614928999741,419.8614928999741,419.8614928999741,,,,,,,,,,,,,,00037,001,2026-01-17_10h41.49.026,MST_task,2024.2.0,60.01464356576082,2026-01-17 10h41.57.063194 +0530,
,Objects\209a.jpg,92,0,93,,,,,,,f,0.7495455000025686,0.19198830000823364,None,,,,,,93,0,92,419.8614928999741,,,,,,,,,,,,,,,,,,,,,,,419.8468790999905,419.8614928999741,420.34478679997846,,,,,,,,,,,,,,420.3618258999777,,,,,,,,,,,,,420.355149799987,420.3618258999777,420.3618258999777,420.3618258999777,423.34527449999587,indoor,f,0.7495455000025686,0.19198830000823364,423.3453163999948,423.345328699972,None,423.3615591999842,423.3615591999842,423.3615591999842,,,,,,,,,,,,,,00037,001,2026-01-17_10h41.49.026,MST_task,2024.2.0,60.01464356576082,2026-01-17 10h41.57.063194 +0530,
,Objects\028a.jpg,93,0,94,,,,,,,f,1.5942848999984562,0.16801339999074116,None,,,,,,94,0,93,423.3615591999842,,,,,,,,,,,,,,,,,,,,,,,423.34539360000053,423.3615591999842,423.8450185999973,,,,,,,,,,,,,,423.8618103999761,,,,,,,,,,,,,423.85457369999494,423.8618103999761,423.8618103999761,423.8618103999761,426.84529709999333,indoor,f,1.5942848999984562,0.16801339999074116,426.84534049997455,426.8453524999786,None,426.86150209998596,426.86150209998596,426.86150209998596,,,,,,,,,,,,,,00037,001,2026-01-17_10h41.49.026,MST_task,2024.2.0,60.01464356576082,2026-01-17 10h41.57.063194 +0530,
,Objects\145a.jpg,94,0,95,,,,,,,f,1.1752269999997225,0.20750640000915155,None,,,,,,95,0,94,426.86150209998596,,,,,,,,,,,,,,,,,,,,,,,426.84541839998565,426.86150209998596,427.3451250999933,,,,,,,,,,,,,,427.3616980999941,,,,,,,,,,,,,427.35450329998275,427.3616980999941,427.3616980999941,427.3616980999941,430.3452616999857,indoor,f,1.1752269999997225,0.20750640000915155,430.3453020999732,430.34531389997574,None,430.3613862999773,430.3613862999773,430.3613862999773,,,,,,,,,,,,,,00037,001,2026-01-17_10h41.49.026,MST_task,2024.2.0,60.01464356576082,2026-01-17 10h41.57.063194 +0530,
,Objects\124a.jpg,95,0,96,,,,,,,f,1.0979224999900907,0.20798159998958,None,,,,,,96,0,95,430.3613862999773,,,,,,,,,,,,,,,,,,,,,,,430.3453827999765,430.3613862999773,430.8451059999934,,,,,,,,,,,,,,430.8620074999926,,,,,,,,,,,,,430.8545502999914,430.8620074999926,430.8620074999926,430.8620074999926,433.8452710999991,indoor,f,1.0979224999900907,0.20798159998958,433.8453126999957,433.845325399976,None,433.8615834999946,433.8615834999946,433.8615834999946,,,,,,,,,,,,,,00037,001,2026-01-17_10h41.49.026,MST_task,2024.2.0,60.01464356576082,2026-01-17 10h41.57.063194 +0530,
,Objects\041a.jpg,96,0,97,,,,,,,j,0.9664815000141971,0.2080120999889914,None,,,,,,97,0,96,433.8615834999946,,,,,,,,,,,,,,,,,,,,,,,433.8453899999731,433.8615834999946,434.34509029999026,,,,,,,,,,,,,,434.3617524000001,,,,,,,,,,,,,434.35427919999347,434.3617524000001,434.3617524000001,434.3617524000001,437.3452070999774,indoor,j,0.9664815000141971,0.2080120999889914,437.34524819999933,437.3452596999996,None,437.3613327999774,437.3613327999774,437.3613327999774,,,,,,,,,,,,,,00037,001,2026-01-17_10h41.49.026,MST_task,2024.2.0,60.01464356576082,2026-01-17 10h41.57.063194 +0530,
,Objects\153a.jpg,97,0,98,,,,,,,f,1.4504528000252321,0.1999620999849867,None,,,,,,98,0,97,437.3613327999774,,,,,,,,,,,,,,,,,,,,,,,437.34532419999596,437.3613327999774,437.8447401999729,,,,,,,,,,,,,,437.8616256999958,,,,,,,,,,,,,437.85420809997595,437.8616256999958,437.8616256999958,437.8616256999958,440.8451752999972,indoor,f,1.4504528000252321,0.1999620999849867,440.8452148999786,440.8452270999842,None,440.8614005999989,440.8614005999989,440.8614005999989,,,,,,,,,,,,,,00037,001,2026-01-17_10h41.49.026,MST_task,2024.2.0,60.01464356576082,2026-01-17 10h41.57.063194 +0530,
,Objects\353a.jpg,98,0,99,,,,,,,f,0.7976737999997567,0.2086632999998983,None,,,,,,99,0,98,440.8614005999989,,,,,,,,,,,,,,,,,,,,,,,440.84529059997294,440.8614005999989,441.34479769997415,,,,,,,,,,,,,,441.3619189999881,,,,,,,,,,,,,441.35721139999805,441.3619189999881,441.3619189999881,441.3619189999881,444.34528329997556,shoe,f,0.7976737999997567,0.2086632999998983,444.34745689999545,444.3474745999847,None,444.3614132999792,444.3614132999792,444.3614132999792,,,,,,,,,,,,,,00037,001,2026-01-17_10h41.49.026,MST_task,2024.2.0,60.01464356576082,2026-01-17 10h41.57.063194 +0530,
,Objects\240a.jpg,99,0,100,,,,,,,j,2.1703114999982063,0.21644560000277124,None,,,,,,100,0,99,444.3614132999792,,,,,,,,,,,,,,,,,,,,,,,444.3475433999847,444.3614132999792,444.84483139999793,,,,,,,,,,,,,,444.86188709997805,,,,,,,,,,,,,444.85813639999833,444.86188709997805,444.86188709997805,444.86188709997805,447.8451232999796,shoe,j,2.1703114999982063,0.21644560000277124,447.8451662999869,447.8451783999917,None,447.86141619997215,447.86141619997215,447.86141619997215,,,,,,,,,,,,,,00037,001,2026-01-17_10h41.49.026,MST_task,2024.2.0,60.01464356576082,2026-01-17 10h41.57.063194 +0530,
,Objects\116a.jpg,100,0,101,,,,,,,f,0.8864708000037353,0.20792859999346547,None,,,,,,101,0,100,447.86141619997215,,,,,,,,,,,,,,,,,,,,,,,447.8452419999812,447.86141619997215,448.34484819998033,,,,,,,,,,,,,,448.3618385999871,,,,,,,,,,,,,448.355608199985,448.3618385999871,448.3618385999871,448.3618385999871,451.3451295999985,shoe,f,0.8864708000037353,0.20792859999346547,451.34517049998976,451.34518239999306,None,451.36143559997436,451.36143559997436,451.36143559997436,,,,,,,,,,,,,,00037,001,2026-01-17_10h41.49.026,MST_task,2024.2.0,60.01464356576082,2026-01-17 10h41.57.063194 +0530,
,Objects\018a.jpg,101,0,102,,,,,,,j,1.5871211999910884,0.21476560001610778,None,,,,,,102,0,101,451.36143559997436,,,,,,,,,,,,,,,,,,,,,,,451.34527839999646,451.36143559997436,451.84483729998465,,,,,,,,,,,,,,451.8615676999907,,,,,,,,,,,,,451.85476999997627,451.8615676999907,451.8615676999907,451.8615676999907,454.8450639999937,shoe,j,1.5871211999910884,0.21476560001610778,454.8451041999797,454.8451162999845,None,454.86140460000024,454.86140460000024,454.86140460000024,,,,,,,,,,,,,,00037,001,2026-01-17_10h41.49.026,MST_task,2024.2.0,60.01464356576082,2026-01-17 10h41.57.063194 +0530,
,Objects\317a.jpg,102,0,103,,,,,,,j,1.0784440000134055,0.21518289999221452,None,,,,,,103,0,102,454.86140460000024,,,,,,,,,,,,,,,,,,,,,,,454.84517979997327,454.86140460000024,455.34475549997296,,,,,,,,,,,,,,455.36172439999063,,,,,,,,,,,,,455.3545817999984,455.36172439999063,455.36172439999063,455.36172439999063,458.34516409999924,shoe,j,1.0784440000134055,0.21518289999221452,458.3452107999765,458.345222599979,None,458.36142109998036,458.36142109998036,458.36142109998036,,,,,,,,,,,,,,00037,001,2026-01-17_10h41.49.026,MST_task,2024.2.0,60.01464356576082,2026-01-17 10h41.57.063194 +0530,
,Objects\110a.jpg,103,0,104,,,,,,,j,1.722017499996582,0.18406599998706952,None,,,,,,104,0,103,458.36142109998036,,,,,,,,,,,,,,,,,,,,,,,458.34531769997557,458.36142109998036,458.8448826999811,,,,,,,,,,,,,,458.86160279999604,,,,,,,,,,,,,458.85463029998937,458.86160279999604,458.86160279999604,458.86160279999604,461.8451452999725,shoe,j,1.722017499996582,0.18406599998706952,461.84518529998604,461.8451975999924,None,461.861396399996,461.861396399996,461.861396399996,,,,,,,,,,,,,,00037,001,2026-01-17_10h41.49.026,MST_task,2024.2.0,60.01464356576082,2026-01-17 10h41.57.063194 +0530,
,Objects\115a.jpg,104,0,105,,,,,,,f,1.6149709000019357,0.19090289997984655,None,,,,,,105,0,104,461.861396399996,,,,,,,,,,,,,,,,,,,,,,,461.8452622999903,461.861396399996,462.3448671999795,,,,,,,,,,,,,,462.36170439998386,,,,,,,,,,,,,462.3548994999728,462.36170439998386,462.36170439998386,462.36170439998386,465.3451933999895,shoe,f,1.6149709000019357,0.19090289997984655,465.34523909998825,465.3452518999984,None,465.3614070999902,465.3614070999902,465.3614070999902,,,,,,,,,,,,,,00037,001,2026-01-17_10h41.49.026,MST_task,2024.2.0,60.01464356576082,2026-01-17 10h41.57.063194 +0530,
,Objects\109a.jpg,105,0,106,,,,,,,f,2.4671161999867763,0.1767134000256192,None,,,,,,106,0,105,465.3614070999902,,,,,,,,,,,,,,,,,,,,,,,465.3453501999902,465.3614070999902,465.8449142999889,,,,,,,,,,,,,,465.8615702999814,,,,,,,,,,,,,465.85571979999077,465.8615702999814,465.8615702999814,465.8615702999814,468.8454143999843,indoor,f,2.4671161999867763,0.1767134000256192,468.84721729997545,468.84723590000067,None,468.8614711999835,468.8614711999835,468.8614711999835,,,,,,,,,,,,,,00037,001,2026-01-17_10h41.49.026,MST_task,2024.2.0,60.01464356576082,2026-01-17 10h41.57.063194 +0530,
,Objects\220a.jpg,106,0,107,,,,,,,j,0.8464172999956645,0.20719939999980852,None,,,,,,107,0,106,468.8614711999835,,,,,,,,,,,,,,,,,,,,,,,468.8473095999798,468.8614711999835,469.34497439998086,,,,,,,,,,,,,,469.3618639999768,,,,,,,,,,,,,469.3543693999818,469.3618639999768,469.3618639999768,469.3618639999768,472.345135999989,indoor,j,0.8464172999956645,0.20719939999980852,472.34517619997496,472.345193199988,None,472.3614129999769,472.3614129999769,472.3614129999769,,,,,,,,,,,,,,00037,001,2026-01-17_10h41.49.026,MST_task,2024.2.0,60.01464356576082,2026-01-17 10h41.57.063194 +0530,
,Objects\002a.jpg,107,0,108,,,,,,,f,1.386934799986193,0.19111000001430511,None,,,,,,108,0,107,472.3614129999769,,,,,,,,,,,,,,,,,,,,,,,472.3452570999798,472.3614129999769,472.84484579999116,,,,,,,,,,,,,,472.8618362999987,,,,,,,,,,,,,472.8550772999879,472.8618362999987,472.8618362999987,472.8618362999987,475.84505949998857,indoor,f,1.386934799986193,0.19111000001430511,475.8451022999943,475.8451141999976,None,475.86144859998603,475.86144859998603,475.86144859998603,,,,,,,,,,,,,,00037,001,2026-01-17_10h41.49.026,MST_task,2024.2.0,60.01464356576082,2026-01-17 10h41.57.063194 +0530,
,Objects\303a.jpg,108,0,109,,,,,,,j,1.445609999995213,0.20798740000464022,None,,,,,,109,0,108,475.86144859998603,,,,,,,,,,,,,,,,,,,,,,,475.8451795000001,475.86144859998603,476.3448534999916,,,,,,,,,,,,,,476.3618553999986,,,,,,,,,,,,,476.357040199975,476.3618553999986,476.3618553999986,476.3618553999986,479.3452321999939,indoor,j,1.445609999995213,0.20798740000464022,479.3452746999974,479.34528689997387,None,479.3613546999986,479.3613546999986,479.3613546999986,,,,,,,,,,,,,,00037,001,2026-01-17_10h41.49.026,MST_task,2024.2.0,60.01464356576082,2026-01-17 10h41.57.063194 +0530,
,Objects\383a.jpg,109,0,110,,,,,,,f,1.5944376999977976,0.19902379999984987,None,,,,,,110,0,109,479.3613546999986,,,,,,,,,,,,,,,,,,,,,,,479.3453517999733,479.3613546999986,479.8449418999953,,,,,,,,,,,,,,479.8619660999975,,,,,,,,,,,,,479.85463089999394,479.8619660999975,479.8619660999975,479.8619660999975,482.84509399998933,indoor,f,1.5944376999977976,0.19902379999984987,482.84513409997453,482.845145499974,None,482.8614116999961,482.8614116999961,482.8614116999961,,,,,,,,,,,,,,00037,001,2026-01-17_10h41.49.026,MST_task,2024.2.0,60.01464356576082,2026-01-17 10h41.57.063194 +0530,
,Objects\010a.jpg,110,0,111,,,,,,,f,1.3656009000260383,0.200004699989222,None,,,,,,111,0,110,482.8614116999961,,,,,,,,,,,,,,,,,,,,,,,482.84520989999874,482.8614116999961,483.34506649998366,,,,,,,,,,,,,,483.3618524999765,,,,,,,,,,,,,483.35548159998143,483.3618524999765,483.3618524999765,483.3618524999765,486.3451913999743,indoor,f,1.3656009000260383,0.200004699989222,486.3452322999947,486.34524429999874,None,486.3614271999977,486.3614271999977,486.3614271999977,,,,,,,,,,,,,,00037,001,2026-01-17_10h41.49.026,MST_task,2024.2.0,60.01464356576082,2026-01-17 10h41.57.063194 +0530,
,Objects\309a.jpg,111,0,112,,,,,,,f,1.4584556000190787,0.21516809999593534,None,,,,,,112,0,111,486.3614271999977,,,,,,,,,,,,,,,,,,,,,,,486.3453183999809,486.3614271999977,486.844963999989,,,,,,,,,,,,,,486.8618665999966,,,,,,,,,,,,,486.8546373999852,486.8618665999966,486.8618665999966,486.8618665999966,489.8452692999854,indoor,f,1.4584556000190787,0.21516809999593534,489.8453095999721,489.84532139997464,None,489.86135129997274,489.86135129997274,489.86135129997274,,,,,,,,,,,,,,00037,001,2026-01-17_10h41.49.026,MST_task,2024.2.0,60.01464356576082,2026-01-17 10h41.57.063194 +0530,
,Objects\156a.jpg,112,0,113,,,,,,,j,1.85395819999394,0.19996910000918433,None,,,,,,113,0,112,489.86135129997274,,,,,,,,,,,,,,,,,,,,,,,489.8453866999771,489.86135129997274,490.3449149999942,,,,,,,,,,,,,,490.36173989999224,,,,,,,,,,,,,490.3570800999878,490.36173989999224,490.36173989999224,490.36173989999224,493.3453447999782,shoe,j,1.85395819999394,0.19996910000918433,493.3475020999904,493.3475198999804,None,493.36143559997436,493.36143559997436,493.36143559997436,,,,,,,,,,,,,,00037,001,2026-01-17_10h41.49.026,MST_task,2024.2.0,60.01464356576082,2026-01-17 10h41.57.063194 +0530,
,Objects\311a.jpg,113,0,114,,,,,,,j,1.162158899998758,0.20807880000211298,None,,,,,,114,0,113,493.36143559997436,,,,,,,,,,,,,,,,,,,,,,,493.34758779997355,493.36143559997436,493.84494409998297,,,,,,,,,,,,,,493.8616432999843,,,,,,,,,,,,,493.8537227999768,493.8616432999843,493.8616432999843,493.8616432999843,496.84547169998405,shoe,j,1.162158899998758,0.20807880000211298,496.84551439998904,496.84552679999615,None,496.8615461999725,496.8615461999725,496.8615461999725,,,,,,,,,,,,,,00037,001,2026-01-17_10h41.49.026,MST_task,2024.2.0,60.01464356576082,2026-01-17 10h41.57.063194 +0530,
,Objects\300a.jpg,114,0,115,,,,,,,f,0.9575735999969766,0.17609220001031645,None,,,,,,115,0,114,496.8615461999725,,,,,,,,,,,,,,,,,,,,,,,496.8455913999933,496.8615461999725,497.345109899994,,,,,,,,,,,,,,497.3619746999757,,,,,,,,,,,,,497.3553496999957,497.3619746999757,497.3619746999757,497.3619746999757,500.34543569997186,shoe,f,0.9575735999969766,0.17609220001031645,500.3454756999854,500.34548829999403,None,500.3615159999754,500.3615159999754,500.3615159999754,,,,,,,,,,,,,,00037,001,2026-01-17_10h41.49.026,MST_task,2024.2.0,60.01464356576082,2026-01-17 10h41.57.063194 +0530,
,Objects\315a.jpg,115,0,116,,,,,,,f,2.106071800022619,0.20023079999373294,None,,,,,,116,0,115,500.3615159999754,,,,,,,,,,,,,,,,,,,,,,,500.3455527999904,500.3615159999754,500.84500439997646,,,,,,,,,,,,,,500.8618687999842,,,,,,,,,,,,,500.8552603999851,500.8618687999842,500.8618687999842,500.8618687999842,503.8454125999997,shoe,f,2.106071800022619,0.20023079999373294,503.8454521999811,503.8454640999844,None,503.8615135999862,503.8615135999862,503.8615135999862,,,,,,,,,,,,,,00037,001,2026-01-17_10h41.49.026,MST_task,2024.2.0,60.01464356576082,2026-01-17 10h41.57.063194 +0530,
,Objects\297a.jpg,116,0,117,,,,,,,j,1.0296220000018366,0.18383470000117086,None,,,,,,117,0,116,503.8615135999862,,,,,,,,,,,,,,,,,,,,,,,503.8455291999853,503.8615135999862,504.34509269997943,,,,,,,,,,,,,,504.3620009999722,,,,,,,,,,,,,504.3564531999873,504.3620009999722,504.3620009999722,504.3620009999722,507.3453463999904,shoe,j,1.0296220000018366,0.18383470000117086,507.3453910999815,507.3454032999871,None,507.3614196999988,507.3614196999988,507.3614196999988,,,,,,,,,,,,,,00037,001,2026-01-17_10h41.49.026,MST_task,2024.2.0,60.01464356576082,2026-01-17 10h41.57.063194 +0530,
,Objects\236a.jpg,117,0,118,,,,,,,j,1.1217586999991909,0.20797509999829344,None,,,,,,118,0,117,507.3614196999988,,,,,,,,,,,,,,,,,,,,,,,507.3454692999949,507.3614196999988,507.84519179997733,,,,,,,,,,,,,,507.86172049999004,,,,,,,,,,,,,507.85613949998515,507.86172049999004,507.86172049999004,507.86172049999004,510.8454228999908,shoe,j,1.1217586999991909,0.20797509999829344,510.8454639999836,510.84547529998235,None,510.8614590999787,510.8614590999787,510.8614590999787,,,,,,,,,,,,,,00037,001,2026-01-17_10h41.49.026,MST_task,2024.2.0,60.01464356576082,2026-01-17 10h41.57.063194 +0530,
,Objects\255a.jpg,118,0,119,,,,,,,f,0.7906680000014603,0.19157729999278672,None,,,,,,119,0,118,510.8614590999787,,,,,,,,,,,,,,,,,,,,,,,510.84553919997416,510.8614590999787,511.3450803999731,,,,,,,,,,,,,,511.36196729997755,,,,,,,,,,,,,511.3556536999822,511.36196729997755,511.36196729997755,511.36196729997755,514.3454545999994,shoe,f,0.7906680000014603,0.19157729999278672,514.3454945999838,514.3455064999871,None,514.3615800999978,514.3615800999978,514.3615800999978,,,,,,,,,,,,,,00037,001,2026-01-17_10h41.49.026,MST_task,2024.2.0,60.01464356576082,2026-01-17 10h41.57.063194 +0530,
,Objects\182a.jpg,119,0,120,,,,,,,f,1.3135527000122238,0.19199839999782853,None,,,,,,120,0,119,514.3615800999978,,,,,,,,,,,,,,,,,,,,,,,514.3455705999804,514.3615800999978,514.8451951999741,,,,,,,,,,,,,,514.8618505999912,,,,,,,,,,,,,514.8568750999984,514.8618505999912,514.8618505999912,514.8618505999912,517.8453026999778,indoor,f,1.3135527000122238,0.19199839999782853,517.8470879999804,517.8471052999957,None,517.8615602999926,517.8615602999926,517.8615602999926,,,,,,,,,,,,,,00037,001,2026-01-17_10h41.49.026,MST_task,2024.2.0,60.01464356576082,2026-01-17 10h41.57.063194 +0530,
,Objects\071a.jpg,120,0,121,,,,,,,j,0.8067365000024438,0.19101370000862516,None,,,,,,121,0,120,517.8615602999926,,,,,,,,,,,,,,,,,,,,,,,517.8471756999788,517.8615602999926,518.3451378999744,,,,,,,,,,,,,,518.3617937999952,,,,,,,,,,,,,518.3549591999908,518.3617937999952,518.3617937999952,518.3617937999952,521.3455966999754,indoor,j,0.8067365000024438,0.19101370000862516,521.3456356999814,521.3456472999824,None,521.361522799998,521.361522799998,521.361522799998,,,,,,,,,,,,,,00037,001,2026-01-17_10h41.49.026,MST_task,2024.2.0,60.01464356576082,2026-01-17 10h41.57.063194 +0530,
,Objects\276a.jpg,121,0,122,,,,,,,j,2.64375590000418,0.17422449999139644,None,,,,,,122,0,121,521.361522799998,,,,,,,,,,,,,,,,,,,,,,,521.3457086999842,521.361522799998,521.845098299993,,,,,,,,,,,,,,521.861727999989,,,,,,,,,,,,,521.8545612999878,521.861727999989,521.861727999989,521.861727999989,524.8452504999877,indoor,j,2.64375590000418,0.17422449999139644,524.8452919999836,524.8453034999839,None,524.8615381999989,524.8615381999989,524.8615381999989,,,,,,,,,,,,,,00037,001,2026-01-17_10h41.49.026,MST_task,2024.2.0,60.01464356576082,2026-01-17 10h41.57.063194 +0530,
,Objects\323a.jpg,122,0,123,,,,,,,j,2.0140150999941397,0.1679842000012286,None,,,,,,123,0,122,524.8615381999989,,,,,,,,,,,,,,,,,,,,,,,524.8453665999987,524.8615381999989,525.3448476999765,,,,,,,,,,,,,,525.3618467999913,,,,,,,,,,,,,525.3547366999846,525.3618467999913,525.3618467999913,525.3618467999913,528.3453304999857,indoor,j,2.0140150999941397,0.1679842000012286,528.3453765999875,528.3453894999984,None,528.3614595999825,528.3614595999825,528.3614595999825,,,,,,,,,,,,,,00037,001,2026-01-17_10h41.49.026,MST_task,2024.2.0,60.01464356576082,2026-01-17 10h41.57.063194 +0530,
,Objects\358a.jpg,123,0,124,,,,,,,f,1.3380489999835845,0.19198709999909624,None,,,,,,124,0,123,528.3614595999825,,,,,,,,,,,,,,,,,,,,,,,528.3454569999885,528.3614595999825,528.844947799982,,,,,,,,,,,,,,528.8619164999982,,,,,,,,,,,,,528.856071599992,528.8619164999982,528.8619164999982,528.8619164999982,531.84525329998,indoor,f,1.3380489999835845,0.19198709999909624,531.8453295999789,531.8453425999905,None,531.8614687999943,531.8614687999943,531.8614687999943,,,,,,,,,,,,,,00037,001,2026-01-17_10h41.49.026,MST_task,2024.2.0,60.01464356576082,2026-01-17 10h41.57.063194 +0530,
,Objects\232a.jpg,124,0,125,,,,,,,j,1.0218442999757826,0.19199750002007931,None,,,,,,125,0,124,531.8614687999943,,,,,,,,,,,,,,,,,,,,,,,531.8454100999807,531.8614687999943,532.3449174999841,,,,,,,,,,,,,,532.3618898999994,,,,,,,,,,,,,532.3543312999827,532.3618898999994,532.3618898999994,532.3618898999994,535.3454110999883,indoor,j,1.0218442999757826,0.19199750002007931,535.3454578999954,535.3454713999818,None,535.361417099979,535.361417099979,535.361417099979,,,,,,,,,,,,,,00037,001,2026-01-17_10h41.49.026,MST_task,2024.2.0,60.01464356576082,2026-01-17 10h41.57.063194 +0530,
,Objects\226a.jpg,125,0,126,,,,,,,f,0.9062187999952585,0.19227260001935065,None,,,,,,126,0,125,535.361417099979,,,,,,,,,,,,,,,,,,,,,,,535.3455407999863,535.361417099979,535.8449082000006,,,,,,,,,,,,,,535.8618842999858,,,,,,,,,,,,,535.855631399987,535.8618842999858,535.8618842999858,535.8618842999858,538.8451744999911,indoor,f,0.9062187999952585,0.19227260001935065,538.8452152999816,538.845227199985,None,538.8614480999822,538.8614480999822,538.8614480999822,,,,,,,,,,,,,,00037,001,2026-01-17_10h41.49.026,MST_task,2024.2.0,60.01464356576082,2026-01-17 10h41.57.063194 +0530,
,Objects\359a.jpg,126,0,127,,,,,,,f,1.1175925999996252,0.20000100001925603,None,,,,,,127,0,126,538.8614480999822,,,,,,,,,,,,,,,,,,,,,,,538.8452910999767,538.8614480999822,539.344949899998,,,,,,,,,,,,,,539.3620026999852,,,,,,,,,,,,,539.3571068999881,539.3620026999852,539.3620026999852,539.3620026999852,542.3454644999874,shoe,f,1.1175925999996252,0.20000100001925603,542.3476799999771,542.3476983,None,542.3614085999725,542.3614085999725,542.3614085999725,,,,,,,,,,,,,,00037,001,2026-01-17_10h41.49.026,MST_task,2024.2.0,60.01464356576082,2026-01-17 10h41.57.063194 +0530,
,Objects\163a.jpg,127,0,128,,,,,,,f,1.7143432000011671,0.18417299998691306,None,,,,,,128,0,127,542.3614085999725,,,,,,,,,,,,,,,,,,,,,,,542.3477684999816,542.3614085999725,542.8448992999911,,,,,,,,,,,,,,542.8618453999807,,,,,,,,,,,,,542.855349599995,542.8618453999807,542.8618453999807,542.8618453999807,545.8452260999766,shoe,f,1.7143432000011671,0.18417299998691306,545.8452759999782,545.8452896999952,None,545.8614293999854,545.8614293999854,545.8614293999854,,,,,,,,,,,,,,00037,001,2026-01-17_10h41.49.026,MST_task,2024.2.0,60.01464356576082,2026-01-17 10h41.57.063194 +0530,
,Objects\033a.jpg,128,0,129,,,,,,,f,1.3584873999934644,0.16799869999522343,None,,,,,,129,0,128,545.8614293999854,,,,,,,,,,,,,,,,,,,,,,,545.8453555999731,545.8614293999854,546.3449512999796,,,,,,,,,,,,,,546.3616164999839,,,,,,,,,,,,,546.3548519999895,546.3616164999839,546.3616164999839,546.3616164999839,549.3452382999822,shoe,f,1.3584873999934644,0.16799869999522343,549.3452835999778,549.345296399988,None,549.3614411999879,549.3614411999879,549.3614411999879,,,,,,,,,,,,,,00037,001,2026-01-17_10h41.49.026,MST_task,2024.2.0,60.01464356576082,2026-01-17 10h41.57.063194 +0530,
,Objects\081a.jpg,129,0,130,,,,,,,None,,,f,2.0346102000039537,None,,,,130,0,129,549.3614411999879,,,,,,,,,,,,,,,,,,,,,,,549.3453628999996,549.3614411999879,549.8451055999903,,,,,,,,,,,,,,549.8617475999927,,,,,,,,,,,,,549.8548904999916,549.8617475999927,549.8617475999927,549.8617475999927,552.8452065999736,shoe,None,,,552.8452422999835,554.911838799977,f,552.861453599995,552.861453599995,552.861453599995,552.861453599995,552.861453599995,2.0346102000039537,None,,,,,,,,,,00037,001,2026-01-17_10h41.49.026,MST_task,2024.2.0,60.01464356576082,2026-01-17 10h41.57.063194 +0530,
,Objects\067a.jpg,130,0,131,,,,,,,j,1.8752861999964807,0.16799819999141619,None,,,,,,131,0,130,554.9280776999949,,,,,,,,,,,,,,,,,,,,,,,554.9119393999863,554.9280776999949,555.4116793999856,,,,,,,,,,,,,,555.428286099981,,,,,,,,,,,,,555.4215605999925,555.428286099981,555.428286099981,555.428286099981,558.4119732999825,shoe,j,1.8752861999964807,0.16799819999141619,558.4120151999814,558.4120278999908,None,558.4281101999804,558.4281101999804,558.4281101999804,,,,,,,,,,,,,,00037,001,2026-01-17_10h41.49.026,MST_task,2024.2.0,60.01464356576082,2026-01-17 10h41.57.063194 +0530,
,Objects\329a.jpg,131,0,132,,,,,,,f,1.2400307999923825,0.19104000000515953,None,,,,,,132,0,131,558.4281101999804,,,,,,,,,,,,,,,,,,,,,,,558.4120936999971,558.4281101999804,558.9116496999923,,,,,,,,,,,,,,558.9284617999801,,,,,,,,,,,,,558.9219888999942,558.9284617999801,558.9284617999801,558.9284617999801,561.9120449999755,shoe,f,1.2400307999923825,0.19104000000515953,561.9120872999774,561.9120996999845,None,561.9281097999774,561.9281097999774,561.9281097999774,,,,,,,,,,,,,,00037,001,2026-01-17_10h41.49.026,MST_task,2024.2.0,60.01464356576082,2026-01-17 10h41.57.063194 +0530,
,Objects\282a.jpg,132,0,133,,,,,,,j,1.0032899999932852,0.16021850000834092,None,,,,,,133,0,132,561.9281097999774,,,,,,,,,,,,,,,,,,,,,,,561.9121995999885,561.9281097999774,562.4116839999915,,,,,,,,,,,,,,562.4284845999791,,,,,,,,,,,,,562.4223908999993,562.4284845999791,562.4284845999791,562.4284845999791,565.4119118999806,shoe,j,1.0032899999932852,0.16021850000834092,565.4119542999833,565.4119658999844,None,565.428136499977,565.428136499977,565.428136499977,,,,,,,,,,,,,,00037,001,2026-01-17_10h41.49.026,MST_task,2024.2.0,60.01464356576082,2026-01-17 10h41.57.063194 +0530,
,Objects\149a.jpg,133,0,134,,,,,,,f,1.1115902999881655,0.22507820001919754,None,,,,,,134,0,133,565.428136499977,,,,,,,,,,,,,,,,,,,,,,,565.4120420999825,565.428136499977,565.9116289999802,,,,,,,,,,,,,,565.9282853999757,,,,,,,,,,,,,565.9241044999799,565.9282853999757,565.9282853999757,565.9282853999757,568.9119884999818,indoor,f,1.1115902999881655,0.22507820001919754,568.9136596999888,568.9136774999788,None,568.9281079999928,568.9281079999928,568.9281079999928,,,,,,,,,,,,,,00037,001,2026-01-17_10h41.49.026,MST_task,2024.2.0,60.01464356576082,2026-01-17 10h41.57.063194 +0530,
,Objects\025a.jpg,134,0,135,,,,,,,j,0.755991299985908,0.18355919999885373,None,,,,,,135,0,134,568.9281079999928,,,,,,,,,,,,,,,,,,,,,,,568.9137484999956,568.9281079999928,569.4116790999833,,,,,,,,,,,,,,569.428346199973,,,,,,,,,,,,,569.4217890999862,569.428346199973,569.428346199973,569.428346199973,572.4119901999948,indoor,j,0.755991299985908,0.18355919999885373,572.4120314999891,572.4120442999993,None,572.4281079999928,572.4281079999928,572.4281079999928,,,,,,,,,,,,,,00037,001,2026-01-17_10h41.49.026,MST_task,2024.2.0,60.01464356576082,2026-01-17 10h41.57.063194 +0530,
,Objects\288a.jpg,135,0,136,,,,,,,f,0.9195833000121638,0.19202049999148585,None,,,,,,136,0,135,572.4281079999928,,,,,,,,,,,,,,,,,,,,,,,572.4121080999903,572.4281079999928,572.9116988999886,,,,,,,,,,,,,,572.9286691999878,,,,,,,,,,,,,572.9216117999749,572.9286691999878,572.9286691999878,572.9286691999878,575.9120350999874,indoor,f,0.9195833000121638,0.19202049999148585,575.9120763999817,575.912088299985,None,575.9281092999736,575.9281092999736,575.9281092999736,,,,,,,,,,,,,,00037,001,2026-01-17_10h41.49.026,MST_task,2024.2.0,60.01464356576082,2026-01-17 10h41.57.063194 +0530,
,Objects\273a.jpg,136,0,137,,,,,,,f,1.0194514000031631,0.19979649997549132,None,,,,,,137,0,136,575.9281092999736,,,,,,,,,,,,,,,,,,,,,,,575.9121532999852,575.9281092999736,576.4116606999887,,,,,,,,,,,,,,576.428516999993,,,,,,,,,,,,,576.4219630999723,576.428516999993,576.428516999993,576.428516999993,579.4119853999873,indoor,f,1.0194514000031631,0.19979649997549132,579.4120258999756,579.4120388999872,None,579.4280788999749,579.4280788999749,579.4280788999749,,,,,,,,,,,,,,00037,001,2026-01-17_10h41.49.026,MST_task,2024.2.0,60.01464356576082,2026-01-17 10h41.57.063194 +0530,
,Objects\127a.jpg,137,0,138,,,,,,,f,1.1030839000013657,0.19990850001340732,None,,,,,,138,0,137,579.4280788999749,,,,,,,,,,,,,,,,,,,,,,,579.4121020999737,579.4280788999749,579.9116648999916,,,,,,,,,,,,,,579.9283437999838,,,,,,,,,,,,,579.9210471999831,579.9283437999838,579.9283437999838,579.9283437999838,582.9120064999734,indoor,f,1.1030839000013657,0.19990850001340732,582.9120460999839,582.9120580999879,None,582.9280462999886,582.9280462999886,582.9280462999886,,,,,,,,,,,,,,00037,001,2026-01-17_10h41.49.026,MST_task,2024.2.0,60.01464356576082,2026-01-17 10h41.57.063194 +0530,
,Objects\195a.jpg,138,0,139,,,,,,,j,2.787086199998157,0.1285929000005126,None,,,,,,139,0,138,582.9280462999886,,,,,,,,,,,,,,,,,,,,,,,582.9121209000004,582.9280462999886,583.411895199999,,,,,,,,,,,,,,583.4285321999923,,,,,,,,,,,,,583.4221556999837,583.4285321999923,583.4285321999923,583.4285321999923,586.4119138999959,indoor,j,2.787086199998157,0.1285929000005126,586.411953999981,586.4119659999851,None,586.4281052999722,586.4281052999722,586.4281052999722,,,,,,,,,,,,,,00037,001,2026-01-17_10h41.49.026,MST_task,2024.2.0,60.01464356576082,2026-01-17 10h41.57.063194 +0530,
,Objects\372a.jpg,139,0,140,,,,,,,j,1.1035740999795962,0.16803060000529513,None,,,,,,140,0,139,586.4281052999722,,,,,,,,,,,,,,,,,,,,,,,586.4120293999731,586.4281052999722,586.911726499995,,,,,,,,,,,,,,586.9285508999892,,,,,,,,,,,,,586.9216052999836,586.9285508999892,586.9285508999892,586.9285508999892,589.9120419999817,indoor,j,1.1035740999795962,0.16803060000529513,589.9120827000006,589.9120948999771,None,589.9281150999886,589.9281150999886,589.9281150999886,,,,,,,,,,,,,,00037,001,2026-01-17_10h41.49.026,MST_task,2024.2.0,60.01464356576082,2026-01-17 10h41.57.063194 +0530,
,Objects\256a.jpg,140,0,141,,,,,,,j,1.883773099980317,0.17607909999787807,None,,,,,,141,0,140,589.9281150999886,,,,,,,,,,,,,,,,,,,,,,,589.9121598999773,589.9281150999886,590.4116938999796,,,,,,,,,,,,,,590.4284404999926,,,,,,,,,,,,,590.4237446999759,590.4284404999926,590.4284404999926,590.4284404999926,593.4120904999727,shoe,j,1.883773099980317,0.17607909999787807,593.4142295999918,593.4142469999788,None,593.4281267999904,593.4281267999904,593.4281267999904,,,,,,,,,,,,,,00037,001,2026-01-17_10h41.49.026,MST_task,2024.2.0,60.01464356576082,2026-01-17 10h41.57.063194 +0530,
,Objects\285a.jpg,141,0,142,,,,,,,f,0.8155792999896221,0.18332859998918138,None,,,,,,142,0,141,593.4281267999904,,,,,,,,,,,,,,,,,,,,,,,593.414314499998,593.4281267999904,593.9117604999919,,,,,,,,,,,,,,593.9285875999776,,,,,,,,,,,,,593.9225003999891,593.9285875999776,593.9285875999776,593.9285875999776,596.9119728999794,shoe,f,0.8155792999896221,0.18332859998918138,596.9120228999818,596.9120359999943,None,596.9281417999882,596.9281417999882,596.9281417999882,,,,,,,,,,,,,,00037,001,2026-01-17_10h41.49.026,MST_task,2024.2.0,60.01464356576082,2026-01-17 10h41.57.063194 +0530,
,Objects\379a.jpg,142,0,143,,,,,,,j,2.051698800001759,0.18505949998507276,None,,,,,,143,0,142,596.9281417999882,,,,,,,,,,,,,,,,,,,,,,,596.912101199996,596.9281417999882,597.411643999978,,,,,,,,,,,,,,597.4283579999756,,,,,,,,,,,,,597.4216428999789,597.4283579999756,597.4283579999756,597.4283579999756,600.4120234999864,shoe,j,2.051698800001759,0.18505949998507276,600.4120639999746,600.4120767999848,None,600.4280425999896,600.4280425999896,600.4280425999896,,,,,,,,,,,,,,00037,001,2026-01-17_10h41.49.026,MST_task,2024.2.0,60.01464356576082,2026-01-17 10h41.57.063194 +0530,
,Objects\043a.jpg,143,0,144,,,,,,,j,2.127827599993907,0.1834800000069663,None,,,,,,144,0,143,600.4280425999896,,,,,,,,,,,,,,,,,,,,,,,600.4121719999821,600.4280425999896,600.9120361999958,,,,,,,,,,,,,,600.9284396999865,,,,,,,,,,,,,600.922454399988,600.9284396999865,600.9284396999865,600.9284396999865,603.9120254000009,shoe,j,2.127827599993907,0.1834800000069663,603.9120643999777,603.9120768999855,None,603.9280442999734,603.9280442999734,603.9280442999734,,,,,,,,,,,,,,00037,001,2026-01-17_10h41.49.026,MST_task,2024.2.0,60.01464356576082,2026-01-17 10h41.57.063194 +0530,
,Objects\079a.jpg,144,0,145,,,,,,,j,1.0192754000017885,0.19183369999518618,None,,,,,,145,0,144,603.9280442999734,,,,,,,,,,,,,,,,,,,,,,,603.9121416999842,603.9280442999734,604.4119122999837,,,,,,,,,,,,,,604.4283582999778,,,,,,,,,,,,,604.4221159999724,604.4283582999778,604.4283582999778,604.4283582999778,607.4119480999943,shoe,j,1.0192754000017885,0.19183369999518618,607.4119882999803,607.4120005999866,None,607.4281372999831,607.4281372999831,607.4281372999831,,,,,,,,,,,,,,00037,001,2026-01-17_10h41.49.026,MST_task,2024.2.0,60.01464356576082,2026-01-17 10h41.57.063194 +0530,
,Objects\049a.jpg,145,0,146,,,,,,,f,2.2242540000006557,0.1830922999943141,None,,,,,,146,0,145,607.4281372999831,,,,,,,,,,,,,,,,,,,,,,,607.4120959999855,607.4281372999831,607.9117077999981,,,,,,,,,,,,,,607.9283651999722,,,,,,,,,,,,,607.921177399985,607.9283651999722,607.9283651999722,607.9283651999722,610.9119955999777,shoe,f,2.2242540000006557,0.1830922999943141,610.9120371999743,610.9120502999867,None,610.9281374999846,610.9281374999846,610.9281374999846,,,,,,,,,,,,,,00037,001,2026-01-17_10h41.49.026,MST_task,2024.2.0,60.01464356576082,2026-01-17 10h41.57.063194 +0530,
,Objects\198a.jpg,146,0,147,,,,,,,f,0.883380200015381,0.14392649999354035,None,,,,,,147,0,146,610.9281374999846,,,,,,,,,,,,,,,,,,,,,,,610.9121163999953,610.9281374999846,611.4117039999983,,,,,,,,,,,,,,611.4283240999794,,,,,,,,,,,,,611.4207424999913,611.4283240999794,611.4283240999794,611.4283240999794,614.4119569999748,shoe,f,0.883380200015381,0.14392649999354035,614.4119972999906,614.4120101999724,None,614.4280496999854,614.4280496999854,614.4280496999854,,,,,,,,,,,,,,00037,001,2026-01-17_10h41.49.026,MST_task,2024.2.0,60.01464356576082,2026-01-17 10h41.57.063194 +0530,
,Objects\111a.jpg,147,0,148,,,,,,,f,1.0800248000014108,0.17495869999402203,None,,,,,,148,0,147,614.4280496999854,,,,,,,,,,,,,,,,,,,,,,,614.4120746999979,614.4280496999854,614.9116879999929,,,,,,,,,,,,,,614.9283563999925,,,,,,,,,,,,,614.9225399999996,614.9283563999925,614.9283563999925,614.9283563999925,617.91211569999,indoor,f,1.0800248000014108,0.17495869999402203,617.9138823999965,617.9139005999896,None,617.9282333999872,617.9282333999872,617.9282333999872,,,,,,,,,,,,,,00037,001,2026-01-17_10h41.49.026,MST_task,2024.2.0,60.01464356576082,2026-01-17 10h41.57.063194 +0530,
,Objects\219a.jpg,148,0,149,,,,,,,j,0.9394956000032835,0.19147299998439848,None,,,,,,149,0,148,617.9282333999872,,,,,,,,,,,,,,,,,,,,,,,617.9139689999865,617.9282333999872,618.411738899973,,,,,,,,,,,,,,618.4284632999916,,,,,,,,,,,,,618.421938799991,618.4284632999916,618.4284632999916,618.4284632999916,621.4120317999914,indoor,j,0.9394956000032835,0.19147299998439848,621.4120747999987,621.4120872999774,None,621.428170899977,621.428170899977,621.428170899977,,,,,,,,,,,,,,00037,001,2026-01-17_10h41.49.026,MST_task,2024.2.0,60.01464356576082,2026-01-17 10h41.57.063194 +0530,
,Objects\207a.jpg,149,0,150,,,,,,,f,0.7988344999903347,0.18452849998720922,None,,,,,,150,0,149,621.428170899977,,,,,,,,,,,,,,,,,,,,,,,621.4121647999855,621.428170899977,621.9117552999815,,,,,,,,,,,,,,621.9287337999849,,,,,,,,,,,,,621.9219659999944,621.9287337999849,621.9287337999849,621.9287337999849,624.9120681999775,indoor,f,0.7988344999903347,0.18452849998720922,624.9121083999926,624.9121204999974,None,624.928241799993,624.928241799993,624.928241799993,,,,,,,,,,,,,,00037,001,2026-01-17_10h41.49.026,MST_task,2024.2.0,60.01464356576082,2026-01-17 10h41.57.063194 +0530,
,Objects\007a.jpg,150,0,151,,,,,,,f,0.7799895000061952,0.18385810000472702,None,,,,,,151,0,150,624.928241799993,,,,,,,,,,,,,,,,,,,,,,,624.9121850999945,624.928241799993,625.4117688999977,,,,,,,,,,,,,,625.4286931999959,,,,,,,,,,,,,625.4220754999842,625.4286931999959,625.4286931999959,625.4286931999959,628.4123856999795,indoor,f,0.7799895000061952,0.18385810000472702,628.4124311999767,628.4124445999914,None,628.4281746999768,628.4281746999768,628.4281746999768,,,,,,,,,,,,,,00037,001,2026-01-17_10h41.49.026,MST_task,2024.2.0,60.01464356576082,2026-01-17 10h41.57.063194 +0530,
,Objects\197a.jpg,151,0,152,,,,,,,j,0.8071629000187386,0.19195700000273064,None,,,,,,152,0,151,628.4281746999768,,,,,,,,,,,,,,,,,,,,,,,628.4125108000007,628.4281746999768,628.9117979999864,,,,,,,,,,,,,,628.9284739999857,,,,,,,,,,,,,628.9225817999977,628.9284739999857,628.9284739999857,628.9284739999857,631.912142199988,indoor,j,0.8071629000187386,0.19195700000273064,631.9121845999907,631.9121975999733,None,631.9281947999843,631.9281947999843,631.9281947999843,,,,,,,,,,,,,,00037,001,2026-01-17_10h41.49.026,MST_task,2024.2.0,60.01464356576082,2026-01-17 10h41.57.063194 +0530,
,Objects\059a.jpg,152,0,153,,,,,,,f,2.3636389000166673,0.18319879999035038,None,,,,,,153,0,152,631.9281947999843,,,,,,,,,,,,,,,,,,,,,,,631.9122630999773,631.9281947999843,632.411778699985,,,,,,,,,,,,,,632.4285177999991,,,,,,,,,,,,,632.4213629000005,632.4285177999991,632.4285177999991,632.4285177999991,635.4121876999852,indoor,f,2.3636389000166673,0.18319879999035038,635.4122349999961,635.4122490999871,None,635.4281342999893,635.4281342999893,635.4281342999893,,,,,,,,,,,,,,00037,001,2026-01-17_10h41.49.026,MST_task,2024.2.0,60.01464356576082,2026-01-17 10h41.57.063194 +0530,
,Objects\341a.jpg,153,0,154,,,,,,,f,1.2155346000217833,0.1760000000067521,None,,,,,,154,0,153,635.4281342999893,,,,,,,,,,,,,,,,,,,,,,,635.4123194999993,635.4281342999893,635.9118195999763,,,,,,,,,,,,,,635.928494199994,,,,,,,,,,,,,635.9215457999962,635.928494199994,635.928494199994,635.928494199994,638.9120326999982,indoor,f,1.2155346000217833,0.1760000000067521,638.9120723999804,638.9120842999837,None,638.9282366999832,638.9282366999832,638.9282366999832,,,,,,,,,,,,,,00037,001,2026-01-17_10h41.49.026,MST_task,2024.2.0,60.01464356576082,2026-01-17 10h41.57.063194 +0530,
,Objects\377a.jpg,154,0,155,,,,,,,j,1.2347771000058856,0.20167040001251735,None,,,,,,155,0,154,638.9282366999832,,,,,,,,,,,,,,,,,,,,,,,638.9121498999884,638.9282366999832,639.4117999999726,,,,,,,,,,,,,,639.4286956999858,,,,,,,,,,,,,639.4241517999908,639.4286956999858,639.4286956999858,639.4286956999858,642.4123866999871,shoe,j,1.2347771000058856,0.20167040001251735,642.4146188999875,642.4146533999883,None,642.4281410999829,642.4281410999829,642.4281410999829,,,,,,,,,,,,,,00037,001,2026-01-17_10h41.49.026,MST_task,2024.2.0,60.01464356576082,2026-01-17 10h41.57.063194 +0530,
,Objects\180a.jpg,155,0,156,,,,,,,f,2.8311037000094075,None,None,,,,,,156,0,155,642.4281410999829,,,,,,,,,,,,,,,,,,,,,,,642.4147606999904,642.4281410999829,642.911816399981,,,,,,,,,,,,,,642.9285985999741,,,,,,,,,,,,,642.9220452999871,642.9285985999741,642.9285985999741,642.9285985999741,645.9121089999971,shoe,f,2.8311037000094075,None,645.9121477000008,645.9121592999727,None,645.9282975999813,645.9282975999813,645.9282975999813,,,,,,,,,,,,,,00037,001,2026-01-17_10h41.49.026,MST_task,2024.2.0,60.01464356576082,2026-01-17 10h41.57.063194 +0530,
