Sl_no,image_path,thisN,thisTrialN,thisRepN,key_resp_5.keys,key_resp_7.keys,key_resp_7.rt,key_resp_7.duration,key_resp_5.rt,key_resp_5.duration,key_resp_9.keys,key_resp_9.rt,key_resp_9.duration,key_resp_8.keys,key_resp_8.rt,key_resp_8.duration,practice.thisRepN,practice.thisTrialN,practice.thisN,trials.thisRepN,trials.thisTrialN,trials.thisN,thisRow.t,notes,welcome_page.started,text.started,key_resp.started,welcome_page.stopped,key_resp.keys,key_resp.rt,key_resp.duration,instructions.started,ins.started,key_resp_2.started,instructions.stopped,key_resp_2.keys,key_resp_2.rt,key_resp_2.duration,objects_only_instruction.started,text_3.started,key_resp_3.started,objects_only_instruction.stopped,key_resp_3.keys,key_resp_3.rt,key_resp_3.duration,ISI.started,text_4.started,text_4.stopped,ISI.stopped,practice_block.started,image.started,key_resp_5.started,text_5.started,practice_block.stopped,practice.key_resp_5.keys,indoor_outdoor.started,text_7.started,key_resp_7.started,indoor_outdoor.stopped,practice.key_resp_7.keys,practice.key_resp_7.rt,practice.key_resp_7.duration,image.stopped,key_resp_5.stopped,text_5.stopped,practice.key_resp_5.rt,practice.key_resp_5.duration,practice_to_main.started,text_2.started,key_resp_4.started,practice_to_main.stopped,key_resp_4.keys,key_resp_4.rt,key_resp_4.duration,objects.started,image_2.started,text_9.started,key_resp_9.started,image_2.stopped,text_9.stopped,key_resp_9.stopped,objects.stopped,category,trials.key_resp_9.keys,trials.key_resp_9.rt,trials.key_resp_9.duration,encoding_task.started,encoding_task.stopped,trials.key_resp_8.keys,text_8.started,key_resp_8.started,trials.key_resp_8.rt,trials.key_resp_8.duration,end_experiment.started,text_6.started,key_resp_6.started,end_experiment.stopped,key_resp_6.keys,key_resp_6.rt,key_resp_6.duration,list_of_stimuli,encoding_task_accuracy,participant,session,date,expName,psychopyVersion,frameRate,expStart,
,,,,,,,,,,,,,,,,,,,,,,,,,0.0016701000004104571,0.004070300000421412,0.004070300000421412,656.0936217999997,space,656.0683001000007,None,,,,,,,,,,,,,,,,,,,,,,,,,,,,,,,,,,,,,,,,,,,,,,,,,,,,,,,,,,,,,,,,,,,,,,,,00032,001,2026-01-16_11h31.50.282,MST_task,2024.2.0,59.958508711885266,2026-01-16 11h32.30.322065 +0530,
,,,,,,,,,,,,,,,,,,,,,,,,,,,,,,,,656.0938021000002,656.1136299,656.1136299,683.6218979000005,space,27.501716800000395,None,,,,,,,,,,,,,,,,,,,,,,,,,,,,,,,,,,,,,,,,,,,,,,,,,,,,,,,,,,,,,,,,,00032,001,2026-01-16_11h31.50.282,MST_task,2024.2.0,59.958508711885266,2026-01-16 11h32.30.322065 +0530,
,,,,,,,,,,,,,,,,,,,,,,,,,,,,,,,,,,,,,,,683.6219741000004,683.6408178000001,683.6408178000001,695.2554971,space,11.607504999999946,None,,,,,,,,,,,,,,,,,,,,,,,,,,,,,,,,,,,,,,,,,,,,,,,,,,,,,,,,,,00032,001,2026-01-16_11h31.50.282,MST_task,2024.2.0,59.958508711885266,2026-01-16 11h32.30.322065 +0530,
5,practice_images/139a.jpg,0,0,1,None,f,0.284239599999637,None,,,,,,,,,1,0,0,,,,695.2705274,,,,,,,,,,,,,,,,,,,,,,,695.2632076999998,695.2705274,695.7996540000004,695.7545161999997,695.7650703999998,695.7996540000004,695.7996540000004,695.7996540000004,698.7707310000005,None,698.7757885000001,698.7871673999998,698.7871673999998,699.088452,f,0.284239599999637,None,,,,,,,,,,,,,,,,,,,,,,,,,,,,,,,,,,,,,,,,,00032,001,2026-01-16_11h31.50.282,MST_task,2024.2.0,59.958508711885266,2026-01-16 11h32.30.322065 +0530,
6,practice_images/158a.jpg,1,1,1,j,None,,,2.4201900999996724,0.09545820000039384,,,,,,,1,1,1,,,,699.1037820000001,,,,,,,,,,,,,,,,,,,,,,,699.0885622000005,699.1037820000001,699.6040216000001,699.5880294999997,699.5928629999999,699.6040216000001,699.6040216000001,699.6040216000001,702.5879935000003,j,702.5881153999999,,,702.5881817999998,None,,,702.6037501000001,702.6037501000001,702.6037501000001,2.4201900999996724,0.09545820000039384,,,,,,,,,,,,,,,,,,,,,,,,,,,,,,,,,,,,00032,001,2026-01-16_11h31.50.282,MST_task,2024.2.0,59.958508711885266,2026-01-16 11h32.30.322065 +0530,
1,practice_images/013a.jpg,2,2,1,j,None,,,1.535451999999168,0.11219380000056844,,,,,,,1,2,2,,,,702.6037501000001,,,,,,,,,,,,,,,,,,,,,,,702.5883479000004,702.6037501000001,703.1040020999999,703.0879028999998,703.0932480000001,703.1040020999999,703.1040020999999,703.1040020999999,706.0882650000003,j,706.0883875999998,,,706.0884999,None,,,706.1037917000003,706.1037917000003,706.1037917000003,1.535451999999168,0.11219380000056844,,,,,,,,,,,,,,,,,,,,,,,,,,,,,,,,,,,,00032,001,2026-01-16_11h31.50.282,MST_task,2024.2.0,59.958508711885266,2026-01-16 11h32.30.322065 +0530,
3,practice_images/037a.jpg,3,3,1,f,None,,,1.8437388000002102,0.16742690000046423,,,,,,,1,3,3,,,,706.1037917000003,,,,,,,,,,,,,,,,,,,,,,,706.0887696,706.1037917000003,706.6040653,706.5880471999999,706.5922971999998,706.6040653,706.6040653,706.6040653,709.5883623999998,f,709.5884953000004,,,709.5885518000005,None,,,709.6038157000003,709.6038157000003,709.6038157000003,1.8437388000002102,0.16742690000046423,,,,,,,,,,,,,,,,,,,,,,,,,,,,,,,,,,,,00032,001,2026-01-16_11h31.50.282,MST_task,2024.2.0,59.958508711885266,2026-01-16 11h32.30.322065 +0530,
9,practice_images/180a.jpg,4,4,1,f,None,,,1.4393480999997337,0.1765501999998378,,,,,,,1,4,4,,,,709.6038157000003,,,,,,,,,,,,,,,,,,,,,,,709.5888008000002,709.6038157000003,710.1040241000001,710.0879202000006,710.0922306000002,710.1040241000001,710.1040241000001,710.1040241000001,713.0879874000002,f,713.0881056999997,,,713.0881568000004,None,,,713.1037646000004,713.1037646000004,713.1037646000004,1.4393480999997337,0.1765501999998378,,,,,,,,,,,,,,,,,,,,,,,,,,,,,,,,,,,,00032,001,2026-01-16_11h31.50.282,MST_task,2024.2.0,59.958508711885266,2026-01-16 11h32.30.322065 +0530,
10,practice_images/182a.jpg,5,5,1,f,None,,,0.9402399000000514,0.15148279999993974,,,,,,,1,5,5,,,,713.1037646000004,,,,,,,,,,,,,,,,,,,,,,,713.0883853000005,713.1037646000004,713.6038743999998,713.5877787999998,713.5957086999997,713.6038743999998,713.6038743999998,713.6038743999998,716.5883570000005,f,716.5935220000001,,,716.5935679000004,None,,,716.6037885000005,716.6037885000005,716.6037885000005,0.9402399000000514,0.15148279999993974,,,,,,,,,,,,,,,,,,,,,,,,,,,,,,,,,,,,00032,001,2026-01-16_11h31.50.282,MST_task,2024.2.0,59.958508711885266,2026-01-16 11h32.30.322065 +0530,
8,practice_images/178a.jpg,6,6,1,f,None,,,0.8560305000000881,0.1603648999998768,,,,,,,1,6,6,,,,716.6037885000005,,,,,,,,,,,,,,,,,,,,,,,716.5937441000005,716.6037885000005,717.1039423000002,717.0877996999998,717.0921244000001,717.1039423000002,717.1039423000002,717.1039423000002,720.0881531000005,f,720.0882744,,,720.0883254999999,None,,,720.1036955,720.1036955,720.1036955,0.8560305000000881,0.1603648999998768,,,,,,,,,,,,,,,,,,,,,,,,,,,,,,,,,,,,00032,001,2026-01-16_11h31.50.282,MST_task,2024.2.0,59.958508711885266,2026-01-16 11h32.30.322065 +0530,
2,practice_images/031a.jpg,7,7,1,f,None,,,1.7873700999998618,0.16819110000051296,,,,,,,1,7,7,,,,720.1036955,,,,,,,,,,,,,,,,,,,,,,,720.0885559999997,720.1036955,720.6039800999997,720.5878731000003,720.5927127000004,720.6039800999997,720.6039800999997,720.6039800999997,723.5885988,f,723.5887289000002,,,723.5887831999999,None,,,723.6037415999999,723.6037415999999,723.6037415999999,1.7873700999998618,0.16819110000051296,,,,,,,,,,,,,,,,,,,,,,,,,,,,,,,,,,,,00032,001,2026-01-16_11h31.50.282,MST_task,2024.2.0,59.958508711885266,2026-01-16 11h32.30.322065 +0530,
4,practice_images/002b.jpg,8,8,1,j,None,,,2.0640481000000364,0.0871487000003981,,,,,,,1,8,8,,,,723.6037415999999,,,,,,,,,,,,,,,,,,,,,,,723.5890522999998,723.6037415999999,724.1041302000003,724.0879559000005,724.0935182000003,724.1041302000003,724.1041302000003,724.1041302000003,727.0882999000005,j,727.0884299999998,,,727.0884845999999,None,,,727.1037305,727.1037305,727.1037305,2.0640481000000364,0.0871487000003981,,,,,,,,,,,,,,,,,,,,,,,,,,,,,,,,,,,,00032,001,2026-01-16_11h31.50.282,MST_task,2024.2.0,59.958508711885266,2026-01-16 11h32.30.322065 +0530,
7,practice_images/166a.jpg,9,9,1,f,None,,,2.300290600000153,0.12674930000048334,,,,,,,1,9,9,,,,727.1037305,,,,,,,,,,,,,,,,,,,,,,,727.0887284999999,727.1037305,727.6040889000005,727.5879766999997,727.5927443999999,727.6040889000005,727.6040889000005,727.6040889000005,730.5883145999996,f,730.5884317999999,,,730.5884800000003,None,,,730.6038580000004,730.6038580000004,730.6038580000004,2.300290600000153,0.12674930000048334,,,,,,,,,,,,,,,,,,,,,,,,,,,,,,,,,,,,00032,001,2026-01-16_11h31.50.282,MST_task,2024.2.0,59.958508711885266,2026-01-16 11h32.30.322065 +0530,
,,,,,,,,,,,,,,,,,,,,,,,,,,,,,,,,,,,,,,,,,,,,,,,,,,,,,,,,,,,,,,,,,,,,730.588632,730.6038580000004,730.6038580000004,752.2220088000004,space,21.604050999999345,None,,,,,,,,,,,,,,,,,,,,,,,,,,,,,00032,001,2026-01-16_11h31.50.282,MST_task,2024.2.0,59.958508711885266,2026-01-16 11h32.30.322065 +0530,
,Objects\157a.jpg,0,0,1,,,,,,,f,2.630971900000077,0.12792999999965105,None,,,,,,1,0,0,752.2371283000002,,,,,,,,,,,,,,,,,,,,,,,752.2253224000006,752.2371283000002,752.7371934000003,752.7210076000001,,,,,,,,,,,,,,,,,,,,,,,,,,752.7305150000002,752.7371934000003,752.7371934000003,752.7371934000003,755.7369790000002,755.7369790000002,755.7369790000002,755.7210219999997,indoor,f,2.630971900000077,0.12792999999965105,755.7255408000001,755.7255961000001,None,,,,,,,,,,,,,,00032,001,2026-01-16_11h31.50.282,MST_task,2024.2.0,59.958508711885266,2026-01-16 11h32.30.322065 +0530,
,Objects\169a.jpg,1,0,2,,,,,,,j,2.727540500000032,0.13629870000022493,None,,,,,,2,0,1,755.7369790000002,,,,,,,,,,,,,,,,,,,,,,,755.7258082999997,755.7369790000002,756.2718284000002,756.2212753000003,,,,,,,,,,,,,,,,,,,,,,,,,,756.2687751000003,756.2718284000002,756.2718284000002,756.2718284000002,,,,759.2374110999999,indoor,j,2.727540500000032,0.13629870000022493,759.2375620000003,759.2376321000002,None,,,,,,,,,,,,,,00032,001,2026-01-16_11h31.50.282,MST_task,2024.2.0,59.958508711885266,2026-01-16 11h32.30.322065 +0530,
,Objects\108a.jpg,2,0,3,,,,,,,j,1.3287256000003254,0.12826610000047367,None,,,,,,3,0,2,759.2536675000001,,,,,,,,,,,,,,,,,,,,,,,759.2378881000004,759.2536675000001,759.7749337000005,759.7375895000005,,,,,,,,,,,,,,,,,,,,,,,,,,759.7719852,759.7749337000005,759.7749337000005,759.7749337000005,,,,762.7542324000005,indoor,j,1.3287256000003254,0.12826610000047367,762.7543471999998,762.7543900999999,None,,,,,,,,,,,,,,00032,001,2026-01-16_11h31.50.282,MST_task,2024.2.0,59.958508711885266,2026-01-16 11h32.30.322065 +0530,
,Objects\141a.jpg,3,0,4,,,,,,,j,1.3196570999998585,0.13506150000011985,None,,,,,,4,0,3,762.7707466000002,,,,,,,,,,,,,,,,,,,,,,,762.7546127000005,762.7707466000002,763.2964496000004,763.2547363000003,,,,,,,,,,,,,,,,,,,,,,,,,,763.2930182999999,763.2964496000004,763.2964496000004,763.2964496000004,,,,766.2707565999999,indoor,j,1.3196570999998585,0.13506150000011985,766.2709253000003,766.2709894,None,,,,,,,,,,,,,,00032,001,2026-01-16_11h31.50.282,MST_task,2024.2.0,59.958508711885266,2026-01-16 11h32.30.322065 +0530,
,Objects\129a.jpg,4,0,5,,,,,,,f,1.5959530000000086,0.18410750000020926,None,,,,,,5,0,4,766.2869861999998,,,,,,,,,,,,,,,,,,,,,,,766.2712468,766.2869861999998,766.7873172999998,766.7712037000001,,,,,,,,,,,,,,,,,,,,,,,,,,766.7778209999997,766.7873172999998,766.7873172999998,766.7873172999998,769.7870068000002,769.7870068000002,769.7870068000002,769.7715274000002,indoor,f,1.5959530000000086,0.18410750000020926,769.7716092999999,769.7716252999999,None,,,,,,,,,,,,,,00032,001,2026-01-16_11h31.50.282,MST_task,2024.2.0,59.958508711885266,2026-01-16 11h32.30.322065 +0530,
,Objects\072a.jpg,5,0,6,,,,,,,f,1.5025298999998995,0.15968750000047294,None,,,,,,6,0,5,769.7870068000002,,,,,,,,,,,,,,,,,,,,,,,769.7717042000004,769.7870068000002,770.3370958000005,770.2712155999998,,,,,,,,,,,,,,,,,,,,,,,,,,770.3335020000004,770.3370958000005,770.3370958000005,770.3370958000005,,,,773.2873811,indoor,f,1.5025298999998995,0.15968750000047294,773.2874484000004,773.2874694000002,None,,,,,,,,,,,,,,00032,001,2026-01-16_11h31.50.282,MST_task,2024.2.0,59.958508711885266,2026-01-16 11h32.30.322065 +0530,
,Objects\121a.jpg,6,0,7,,,,,,,f,2.2589344999996683,0.17610400000012305,None,,,,,,7,0,6,773.3038126000001,,,,,,,,,,,,,,,,,,,,,,,773.2875704999997,773.3038126000001,773.8042218,773.7883548,,,,,,,,,,,,,,,,,,,,,,,,,,773.7968223999997,773.8042218,773.8042218,773.8042218,776.8037765999998,776.8037765999998,776.8037765999998,776.7887127000004,indoor,f,2.2589344999996683,0.17610400000012305,776.7888972999999,776.7889532999998,None,,,,,,,,,,,,,,00032,001,2026-01-16_11h31.50.282,MST_task,2024.2.0,59.958508711885266,2026-01-16 11h32.30.322065 +0530,
,Objects\328a.jpg,7,0,8,,,,,,,f,2.1803292999993573,0.11930019999999786,None,,,,,,8,0,7,776.8037765999998,,,,,,,,,,,,,,,,,,,,,,,776.7891851000004,776.8037765999998,777.3877621000001,777.2879985,,,,,,,,,,,,,,,,,,,,,,,,,,777.3850552000004,777.3877621000001,777.3877621000001,777.3877621000001,,,,780.3047130000004,shoe,f,2.1803292999993573,0.11930019999999786,780.3104828000005,780.3105602000005,None,,,,,,,,,,,,,,00032,001,2026-01-16_11h31.50.282,MST_task,2024.2.0,59.958508711885266,2026-01-16 11h32.30.322065 +0530,
,Objects\254a.jpg,8,0,9,,,,,,,j,1.6292370999999548,0.12034880000010162,None,,,,,,9,0,8,780.3203263000005,,,,,,,,,,,,,,,,,,,,,,,780.3108199999997,780.3203263000005,780.8498293000002,780.8046264000004,,,,,,,,,,,,,,,,,,,,,,,,,,780.8468347999997,780.8498293000002,780.8498293000002,780.8498293000002,,,,783.8206466000001,shoe,j,1.6292370999999548,0.12034880000010162,783.8207779000004,783.8208291999999,None,,,,,,,,,,,,,,00032,001,2026-01-16_11h31.50.282,MST_task,2024.2.0,59.958508711885266,2026-01-16 11h32.30.322065 +0530,
,Objects\032a.jpg,9,0,10,,,,,,,j,1.685540000000401,0.12803359999998065,None,,,,,,10,0,9,783.8369293000005,,,,,,,,,,,,,,,,,,,,,,,783.8211493999997,783.8369293000005,784.3375772999998,784.3211082999997,,,,,,,,,,,,,,,,,,,,,,,,,,784.3291547999997,784.3375772999998,784.3375772999998,784.3375772999998,787.3369772000005,787.3369772000005,787.3369772000005,787.3216905999998,shoe,j,1.685540000000401,0.12803359999998065,787.3217460000005,787.3217648,None,,,,,,,,,,,,,,00032,001,2026-01-16_11h31.50.282,MST_task,2024.2.0,59.958508711885266,2026-01-16 11h32.30.322065 +0530,
,Objects\202a.jpg,10,0,11,,,,,,,f,1.8098925999993298,0.12826230000064243,None,,,,,,11,0,10,787.3369772000005,,,,,,,,,,,,,,,,,,,,,,,787.3218932,787.3369772000005,787.8376515,787.8212710999996,,,,,,,,,,,,,,,,,,,,,,,,,,787.8307510000004,787.8376515,787.8376515,787.8376515,790.8372937000004,790.8372937000004,790.8372937000004,790.8220043000001,shoe,f,1.8098925999993298,0.12826230000064243,790.8220899999997,790.8221149000001,None,,,,,,,,,,,,,,00032,001,2026-01-16_11h31.50.282,MST_task,2024.2.0,59.958508711885266,2026-01-16 11h32.30.322065 +0530,
,Objects\082a.jpg,11,0,12,,,,,,,j,1.4233952000004138,0.14358229999925243,None,,,,,,12,0,11,790.8372937000004,,,,,,,,,,,,,,,,,,,,,,,790.8224203999998,790.8372937000004,791.3760874,791.3214975999999,,,,,,,,,,,,,,,,,,,,,,,,,,791.3727608999998,791.3760874,791.3760874,791.3760874,,,,794.3379476,shoe,j,1.4233952000004138,0.14358229999925243,794.3381169000004,794.3381872999998,None,,,,,,,,,,,,,,00032,001,2026-01-16_11h31.50.282,MST_task,2024.2.0,59.958508711885266,2026-01-16 11h32.30.322065 +0530,
,Objects\258a.jpg,12,0,13,,,,,,,j,2.04928050000035,0.13688790000014706,None,,,,,,13,0,12,794.3535699000004,,,,,,,,,,,,,,,,,,,,,,,794.3384173000004,794.3535699000004,794.8540070999998,794.8375613999997,,,,,,,,,,,,,,,,,,,,,,,,,,794.8452292000002,794.8540070999998,794.8540070999998,794.8540070999998,797.8536720000002,797.8536720000002,797.8536720000002,797.8382509000003,shoe,j,2.04928050000035,0.13688790000014706,797.8384033000002,797.8384592000002,None,,,,,,,,,,,,,,00032,001,2026-01-16_11h31.50.282,MST_task,2024.2.0,59.958508711885266,2026-01-16 11h32.30.322065 +0530,
,Objects\276a.jpg,13,0,14,,,,,,,f,2.1174275000003036,0.1200661000002583,None,,,,,,14,0,13,797.8536720000002,,,,,,,,,,,,,,,,,,,,,,,797.8387284,797.8536720000002,798.3543686000003,798.3379596000004,,,,,,,,,,,,,,,,,,,,,,,,,,798.3450414999998,798.3543686000003,798.3543686000003,798.3543686000003,801.3536492000003,801.3536492000003,801.3536492000003,801.3384314000004,shoe,f,2.1174275000003036,0.1200661000002583,801.3384814000001,801.3384977000005,None,,,,,,,,,,,,,,00032,001,2026-01-16_11h31.50.282,MST_task,2024.2.0,59.958508711885266,2026-01-16 11h32.30.322065 +0530,
,Objects\367a.jpg,14,0,15,,,,,,,f,2.22518780000064,0.14378059999944526,None,,,,,,15,0,14,801.3536492000003,,,,,,,,,,,,,,,,,,,,,,,801.3386132000005,801.3536492000003,801.8541372999998,801.8379910000003,,,,,,,,,,,,,,,,,,,,,,,,,,801.8481542999998,801.8541372999998,801.8541372999998,801.8541372999998,804.8535424000002,804.8535424000002,804.8535424000002,804.8386187000006,indoor,f,2.22518780000064,0.14378059999944526,804.8430546999998,804.8431130999998,None,,,,,,,,,,,,,,00032,001,2026-01-16_11h31.50.282,MST_task,2024.2.0,59.958508711885266,2026-01-16 11h32.30.322065 +0530,
,Objects\356a.jpg,15,0,16,,,,,,,f,1.8358588000000964,0.1052826000004643,None,,,,,,16,0,15,804.8535424000002,,,,,,,,,,,,,,,,,,,,,,,804.8434110999997,804.8535424000002,805.4032598000003,805.3379660999999,,,,,,,,,,,,,,,,,,,,,,,,,,805.3995144,805.4032598000003,805.4032598000003,805.4032598000003,,,,808.3541630999998,indoor,f,1.8358588000000964,0.1052826000004643,808.3543152000002,808.3543761000001,None,,,,,,,,,,,,,,00032,001,2026-01-16_11h31.50.282,MST_task,2024.2.0,59.958508711885266,2026-01-16 11h32.30.322065 +0530,
,Objects\010a.jpg,16,0,17,,,,,,,f,1.4250728999995772,0.1203220000006695,None,,,,,,17,0,16,808.3705946,,,,,,,,,,,,,,,,,,,,,,,808.3545507999997,808.3705946,808.8708333000004,808.8548861999998,,,,,,,,,,,,,,,,,,,,,,,,,,808.8620177000003,808.8708333000004,808.8708333000004,808.8708333000004,811.8706794999998,811.8706794999998,811.8706794999998,811.8549786000003,indoor,f,1.4250728999995772,0.1203220000006695,811.8550990000003,811.8551786999997,None,,,,,,,,,,,,,,00032,001,2026-01-16_11h31.50.282,MST_task,2024.2.0,59.958508711885266,2026-01-16 11h32.30.322065 +0530,
,Objects\299a.jpg,17,0,18,,,,,,,f,2.005177499999263,0.16818850000072416,None,,,,,,18,0,17,811.8706794999998,,,,,,,,,,,,,,,,,,,,,,,811.8555072999998,811.8706794999998,812.3710001999998,812.3544213000005,,,,,,,,,,,,,,,,,,,,,,,,,,812.3611616999997,812.3710001999998,812.3710001999998,812.3710001999998,815.3706154000001,815.3706154000001,815.3706154000001,815.3555769000004,indoor,f,2.005177499999263,0.16818850000072416,815.3557618000004,815.3558277000002,None,,,,,,,,,,,,,,00032,001,2026-01-16_11h31.50.282,MST_task,2024.2.0,59.958508711885266,2026-01-16 11h32.30.322065 +0530,
,Objects\042a.jpg,18,0,19,,,,,,,f,2.176195899999584,0.168674500000634,None,,,,,,19,0,18,815.3706154000001,,,,,,,,,,,,,,,,,,,,,,,815.3561406999997,815.3706154000001,815.8712212,815.8544342000005,,,,,,,,,,,,,,,,,,,,,,,,,,815.8596035,815.8712212,815.8712212,815.8712212,818.8703400000004,818.8703400000004,818.8703400000004,818.8554102999997,indoor,f,2.176195899999584,0.168674500000634,818.8555677000004,818.8556459000001,None,,,,,,,,,,,,,,00032,001,2026-01-16_11h31.50.282,MST_task,2024.2.0,59.958508711885266,2026-01-16 11h32.30.322065 +0530,
,Objects\311a.jpg,19,0,20,,,,,,,f,2.764600900000005,0.13661859999956505,None,,,,,,20,0,19,818.8703400000004,,,,,,,,,,,,,,,,,,,,,,,818.8559215000005,818.8703400000004,819.3706972999998,819.3549070999998,,,,,,,,,,,,,,,,,,,,,,,,,,819.3627134999997,819.3706972999998,819.3706972999998,819.3706972999998,822.3703307000005,822.3703307000005,822.3703307000005,822.3552079000001,indoor,f,2.764600900000005,0.13661859999956505,822.3553403000005,822.3553879000001,None,,,,,,,,,,,,,,00032,001,2026-01-16_11h31.50.282,MST_task,2024.2.0,59.958508711885266,2026-01-16 11h32.30.322065 +0530,
,Objects\225a.jpg,20,0,21,,,,,,,f,2.048373999999967,0.16066890000001877,None,,,,,,21,0,20,822.3703307000005,,,,,,,,,,,,,,,,,,,,,,,822.3556416000001,822.3703307000005,822.8707857999998,822.8547057000005,,,,,,,,,,,,,,,,,,,,,,,,,,822.8612902000004,822.8707857999998,822.8707857999998,822.8707857999998,825.8704078999999,825.8704078999999,825.8704078999999,825.8552916999997,indoor,f,2.048373999999967,0.16066890000001877,825.8554874000001,825.8555419000004,None,,,,,,,,,,,,,,00032,001,2026-01-16_11h31.50.282,MST_task,2024.2.0,59.958508711885266,2026-01-16 11h32.30.322065 +0530,
,Objects\222a.jpg,21,0,22,,,,,,,j,1.2923024000001533,0.12030679999952554,None,,,,,,22,0,21,825.8704078999999,,,,,,,,,,,,,,,,,,,,,,,825.85581,825.8704078999999,826.3709219000002,826.3547702000005,,,,,,,,,,,,,,,,,,,,,,,,,,826.3641065000002,826.3709219000002,826.3709219000002,826.3709219000002,829.3704840999999,829.3704840999999,829.3704840999999,829.3550956999998,shoe,j,1.2923024000001533,0.12030679999952554,829.3604925,829.3605515999998,None,,,,,,,,,,,,,,00032,001,2026-01-16_11h31.50.282,MST_task,2024.2.0,59.958508711885266,2026-01-16 11h32.30.322065 +0530,
,Objects\049a.jpg,22,0,23,,,,,,,None,,,f,0.16889590000027965,None,,,,23,0,22,829.3704840999999,,,,,,,,,,,,,,,,,,,,,,,829.3608173000002,829.3704840999999,829.8707528000004,829.8544916000001,,,,,,,,,,,,,,,,,,,,,,,,,,829.8594260999998,829.8707528000004,829.8707528000004,829.8707528000004,832.8705064000005,832.8705064000005,832.8705064000005,832.8553729000005,shoe,None,,,832.8555211000003,833.0552479999997,f,832.8705064000005,832.8705064000005,0.16889590000027965,None,,,,,,,,,,00032,001,2026-01-16_11h31.50.282,MST_task,2024.2.0,59.958508711885266,2026-01-16 11h32.30.322065 +0530,
,Objects\016a.jpg,23,0,24,,,,,,,f,1.4456666000005498,0.11117509999985487,None,,,,,,24,0,23,833.0703206999997,,,,,,,,,,,,,,,,,,,,,,,833.0555596000004,833.0703206999997,833.5707656000004,833.5546531999998,,,,,,,,,,,,,,,,,,,,,,,,,,833.5620246999997,833.5707656000004,833.5707656000004,833.5707656000004,836.5703848000003,836.5703848000003,836.5703848000003,836.5553885999998,shoe,f,1.4456666000005498,0.11117509999985487,836.5555654999998,836.5556299999998,None,,,,,,,,,,,,,,00032,001,2026-01-16_11h31.50.282,MST_task,2024.2.0,59.958508711885266,2026-01-16 11h32.30.322065 +0530,
,Objects\365a.jpg,24,0,25,,,,,,,f,1.2723111000004792,0.09682929999962653,None,,,,,,25,0,24,836.5703848000003,,,,,,,,,,,,,,,,,,,,,,,836.5559785000005,836.5703848000003,837.0709664000005,837.0545497000003,,,,,,,,,,,,,,,,,,,,,,,,,,837.0604591000001,837.0709664000005,837.0709664000005,837.0709664000005,840.0718973000003,840.0718973000003,840.0718973000003,840.0556416,shoe,f,1.2723111000004792,0.09682929999962653,840.0557986000003,840.0558550000005,None,,,,,,,,,,,,,,00032,001,2026-01-16_11h31.50.282,MST_task,2024.2.0,59.958508711885266,2026-01-16 11h32.30.322065 +0530,
,Objects\290a.jpg,25,0,26,,,,,,,j,2.5483776000000944,0.08001570000033098,None,,,,,,26,0,25,840.0718973000003,,,,,,,,,,,,,,,,,,,,,,,840.0561169000002,840.0718973000003,,840.5705072999999,,,,,,,,,,,,,,,,,,,,,,,,,,840.5779165000004,840.5876383000004,840.5876383000004,840.5876383000004,,,,843.5706470000005,shoe,j,2.5483776000000944,0.08001570000033098,843.5707789999997,843.5708285999999,None,,,,,,,,,,,,,,00032,001,2026-01-16_11h31.50.282,MST_task,2024.2.0,59.958508711885266,2026-01-16 11h32.30.322065 +0530,
,Objects\373a.jpg,26,0,27,,,,,,,j,1.6484563999993043,0.04735670000081882,None,,,,,,27,0,26,843.5870359,,,,,,,,,,,,,,,,,,,,,,,843.5710691000004,843.5870359,844.0876476000003,844.0712899,,,,,,,,,,,,,,,,,,,,,,,,,,844.0791767999999,844.0876476000003,844.0876476000003,844.0876476000003,847.0869609000001,847.0869609000001,847.0869609000001,847.0721967999998,shoe,j,1.6484563999993043,0.04735670000081882,847.0723392999998,847.0723742,None,,,,,,,,,,,,,,00032,001,2026-01-16_11h31.50.282,MST_task,2024.2.0,59.958508711885266,2026-01-16 11h32.30.322065 +0530,
,Objects\001a.jpg,27,0,28,,,,,,,f,1.0198012999999264,0.12125790000027337,None,,,,,,28,0,27,847.0869609000001,,,,,,,,,,,,,,,,,,,,,,,847.0726126999998,847.0869609000001,847.5874372999997,847.5712338000003,,,,,,,,,,,,,,,,,,,,,,,,,,847.5779517000001,847.5874372999997,847.5874372999997,847.5874372999997,850.5869442000003,850.5869442000003,850.5869442000003,850.5716696999998,shoe,f,1.0198012999999264,0.12125790000027337,850.5718231000001,850.5718789000002,None,,,,,,,,,,,,,,00032,001,2026-01-16_11h31.50.282,MST_task,2024.2.0,59.958508711885266,2026-01-16 11h32.30.322065 +0530,
,Objects\057a.jpg,28,0,29,,,,,,,f,1.816009899999699,0.0719982999999047,None,,,,,,29,0,28,850.5869442000003,,,,,,,,,,,,,,,,,,,,,,,850.5721368000004,850.5869442000003,851.0873729000004,851.0711914000003,,,,,,,,,,,,,,,,,,,,,,,,,,851.0811205,851.0873729000004,851.0873729000004,851.0873729000004,854.0868667000004,854.0868667000004,854.0868667000004,854.0725537999997,indoor,f,1.816009899999699,0.0719982999999047,854.0771640000003,854.0772059999999,None,,,,,,,,,,,,,,00032,001,2026-01-16_11h31.50.282,MST_task,2024.2.0,59.958508711885266,2026-01-16 11h32.30.322065 +0530,
,Objects\238a.jpg,29,0,30,,,,,,,f,0.8604357000003802,0.11918619999960356,None,,,,,,30,0,29,854.0868667000004,,,,,,,,,,,,,,,,,,,,,,,854.0773859999999,854.0868667000004,854.5875913999998,854.5712762000003,,,,,,,,,,,,,,,,,,,,,,,,,,854.5803541000005,854.5875913999998,854.5875913999998,854.5875913999998,857.5869625000005,857.5869625000005,857.5869625000005,857.5721410000006,indoor,f,0.8604357000003802,0.11918619999960356,857.5723331999998,857.5723797,None,,,,,,,,,,,,,,00032,001,2026-01-16_11h31.50.282,MST_task,2024.2.0,59.958508711885266,2026-01-16 11h32.30.322065 +0530,
,Objects\245a.jpg,30,0,31,,,,,,,f,1.3678856000005908,0.11158379999960744,None,,,,,,31,0,30,857.5869625000005,,,,,,,,,,,,,,,,,,,,,,,857.5726006000004,857.5869625000005,858.0875836000005,858.0712426,,,,,,,,,,,,,,,,,,,,,,,,,,858.0773712999999,858.0875836000005,858.0875836000005,858.0875836000005,861.0869831999998,861.0869831999998,861.0869831999998,861.0722341000001,indoor,f,1.3678856000005908,0.11158379999960744,861.0724,861.0724551000003,None,,,,,,,,,,,,,,00032,001,2026-01-16_11h31.50.282,MST_task,2024.2.0,59.958508711885266,2026-01-16 11h32.30.322065 +0530,
,Objects\122a.jpg,31,0,32,,,,,,,f,1.7788143999996464,0.12049110000043584,None,,,,,,32,0,31,861.0869831999998,,,,,,,,,,,,,,,,,,,,,,,861.0727091999997,861.0869831999998,861.6127385,861.5712420999998,,,,,,,,,,,,,,,,,,,,,,,,,,861.6094647999998,861.6127385,861.6127385,861.6127385,,,,864.5874178000004,indoor,f,1.7788143999996464,0.12049110000043584,864.5875719000005,864.5876426000004,None,,,,,,,,,,,,,,00032,001,2026-01-16_11h31.50.282,MST_task,2024.2.0,59.958508711885266,2026-01-16 11h32.30.322065 +0530,
,Objects\372a.jpg,32,0,33,,,,,,,f,2.2952724999995553,0.16751730000032694,None,,,,,,33,0,32,864.6037805000005,,,,,,,,,,,,,,,,,,,,,,,864.5879095,864.6037805000005,865.1044303999997,865.0878546000004,,,,,,,,,,,,,,,,,,,,,,,,,,865.0950594000005,865.1044303999997,865.1044303999997,865.1044303999997,868.1036636999997,868.1036636999997,868.1036636999997,868.088683,indoor,f,2.2952724999995553,0.16751730000032694,868.0888313000005,868.0889149000004,None,,,,,,,,,,,,,,00032,001,2026-01-16_11h31.50.282,MST_task,2024.2.0,59.958508711885266,2026-01-16 11h32.30.322065 +0530,
,Objects\104a.jpg,33,0,34,,,,,,,f,0.8077925999996296,0.1594159000005675,None,,,,,,34,0,33,868.1036636999997,,,,,,,,,,,,,,,,,,,,,,,868.0891707999999,868.1036636999997,868.6798460999998,868.5874862999999,,,,,,,,,,,,,,,,,,,,,,,,,,868.6768640999999,868.6798460999998,868.6798460999998,868.6798460999998,,,,871.6040146000005,indoor,f,0.8077925999996296,0.1594159000005675,871.6041572000004,871.6042098999997,None,,,,,,,,,,,,,,00032,001,2026-01-16_11h31.50.282,MST_task,2024.2.0,59.958508711885266,2026-01-16 11h32.30.322065 +0530,
,Objects\292a.jpg,34,0,35,,,,,,,j,2.478771500000221,0.0877080999998725,None,,,,,,35,0,34,871.6203194,,,,,,,,,,,,,,,,,,,,,,,871.6044548,871.6203194,872.1209447000001,872.1046090999998,,,,,,,,,,,,,,,,,,,,,,,,,,872.1108985000001,872.1209447000001,872.1209447000001,872.1209447000001,875.1203830000004,875.1203830000004,875.1203830000004,875.1056017000001,indoor,j,2.478771500000221,0.0877080999998725,875.1057674000003,875.1058235999999,None,,,,,,,,,,,,,,00032,001,2026-01-16_11h31.50.282,MST_task,2024.2.0,59.958508711885266,2026-01-16 11h32.30.322065 +0530,
,Objects\117a.jpg,35,0,36,,,,,,,f,2.1466387000000395,0.11954029999924387,None,,,,,,36,0,35,875.1203830000004,,,,,,,,,,,,,,,,,,,,,,,875.1060967000003,875.1203830000004,875.6210057999997,875.6046142000005,,,,,,,,,,,,,,,,,,,,,,,,,,875.6161136999999,875.6210057999997,875.6210057999997,875.6210057999997,878.6204479999997,878.6204479999997,878.6204479999997,878.6054294000005,shoe,f,2.1466387000000395,0.11954029999924387,878.6090199999999,878.6090411000005,None,,,,,,,,,,,,,,00032,001,2026-01-16_11h31.50.282,MST_task,2024.2.0,59.958508711885266,2026-01-16 11h32.30.322065 +0530,
,Objects\173a.jpg,36,0,37,,,,,,,f,1.4547219999994923,0.14385850000053324,None,,,,,,37,0,36,878.6204479999997,,,,,,,,,,,,,,,,,,,,,,,878.6091261000001,878.6204479999997,879.1208564999997,879.1047834000001,,,,,,,,,,,,,,,,,,,,,,,,,,879.1111565000001,879.1208564999997,879.1208564999997,879.1208564999997,882.1204020000005,882.1204020000005,882.1204020000005,882.1052768999998,shoe,f,1.4547219999994923,0.14385850000053324,882.1053794,882.1054132999998,None,,,,,,,,,,,,,,00032,001,2026-01-16_11h31.50.282,MST_task,2024.2.0,59.958508711885266,2026-01-16 11h32.30.322065 +0530,
,Objects\003a.jpg,37,0,38,,,,,,,j,0.9228302000001349,0.15186760000051436,None,,,,,,38,0,37,882.1204020000005,,,,,,,,,,,,,,,,,,,,,,,882.1056611000004,882.1204020000005,882.6206170000005,882.6044850999997,,,,,,,,,,,,,,,,,,,,,,,,,,882.6107465000005,882.6206170000005,882.6206170000005,882.6206170000005,885.6204347000003,885.6204347000003,885.6204347000003,885.6061382999997,shoe,j,0.9228302000001349,0.15186760000051436,885.6063173000002,885.6063757000002,None,,,,,,,,,,,,,,00032,001,2026-01-16_11h31.50.282,MST_task,2024.2.0,59.958508711885266,2026-01-16 11h32.30.322065 +0530,
,Objects\241a.jpg,38,0,39,,,,,,,f,2.3583978000006027,0.120611899999858,None,,,,,,39,0,38,885.6204347000003,,,,,,,,,,,,,,,,,,,,,,,885.6065104999998,885.6204347000003,886.1207873000003,886.1042133999999,,,,,,,,,,,,,,,,,,,,,,,,,,886.1115549000006,886.1207873000003,886.1207873000003,886.1207873000003,889.1204612000001,889.1204612000001,889.1204612000001,889.1056478,shoe,f,2.3583978000006027,0.120611899999858,889.1058189000005,889.1058782999999,None,,,,,,,,,,,,,,00032,001,2026-01-16_11h31.50.282,MST_task,2024.2.0,59.958508711885266,2026-01-16 11h32.30.322065 +0530,
,Objects\132a.jpg,39,0,40,,,,,,,f,1.3541523000003508,0.17661979999957111,None,,,,,,40,0,39,889.1204612000001,,,,,,,,,,,,,,,,,,,,,,,889.1061624000004,889.1204612000001,889.6208632999997,889.6047964999998,,,,,,,,,,,,,,,,,,,,,,,,,,889.6135107999999,889.6208632999997,889.6208632999997,889.6208632999997,892.6204419000005,892.6204419000005,892.6204419000005,892.6052086999998,shoe,f,1.3541523000003508,0.17661979999957111,892.6052620999999,892.6052789000005,None,,,,,,,,,,,,,,00032,001,2026-01-16_11h31.50.282,MST_task,2024.2.0,59.958508711885266,2026-01-16 11h32.30.322065 +0530,
,Objects\176a.jpg,40,0,41,,,,,,,j,1.118931099999827,0.10376839999935328,None,,,,,,41,0,40,892.6204419000005,,,,,,,,,,,,,,,,,,,,,,,892.6054187,892.6204419000005,893.1206159000003,893.1043903999998,,,,,,,,,,,,,,,,,,,,,,,,,,893.1118205000002,893.1206159000003,893.1206159000003,893.1206159000003,896.1202969000005,896.1202969000005,896.1202969000005,896.1048014999997,shoe,j,1.118931099999827,0.10376839999935328,896.1049782,896.1050329,None,,,,,,,,,,,,,,00032,001,2026-01-16_11h31.50.282,MST_task,2024.2.0,59.958508711885266,2026-01-16 11h32.30.322065 +0530,
,Objects\087a.jpg,41,0,42,,,,,,,j,2.138642799999616,0.1121806999999535,None,,,,,,42,0,41,896.1202969000005,,,,,,,,,,,,,,,,,,,,,,,896.1054082,896.1202969000005,896.6207644000006,896.6045586,,,,,,,,,,,,,,,,,,,,,,,,,,896.6115114000004,896.6207644000006,896.6207644000006,896.6207644000006,899.6203941000003,899.6203941000003,899.6203941000003,899.6045669000005,shoe,j,2.138642799999616,0.1121806999999535,899.6046292000001,899.6046506000002,None,,,,,,,,,,,,,,00032,001,2026-01-16_11h31.50.282,MST_task,2024.2.0,59.958508711885266,2026-01-16 11h32.30.322065 +0530,
,Objects\289a.jpg,42,0,43,,,,,,,f,2.0509750999999596,0.15221270000074583,None,,,,,,43,0,42,899.6203941000003,,,,,,,,,,,,,,,,,,,,,,,899.6047624000003,899.6203941000003,900.1561164000004,900.1045052999998,,,,,,,,,,,,,,,,,,,,,,,,,,900.1531162000001,900.1561164000004,900.1561164000004,900.1561164000004,,,,903.1208386999997,indoor,f,2.0509750999999596,0.15221270000074583,903.1255698000004,903.1256386000005,None,,,,,,,,,,,,,,00032,001,2026-01-16_11h31.50.282,MST_task,2024.2.0,59.958508711885266,2026-01-16 11h32.30.322065 +0530,
,Objects\317a.jpg,43,0,44,,,,,,,f,1.649833000000399,0.1439700000000812,None,,,,,,44,0,43,903.1370991000003,,,,,,,,,,,,,,,,,,,,,,,903.1259074999998,903.1370991000003,903.6376158000003,903.6211813999998,,,,,,,,,,,,,,,,,,,,,,,,,,903.6292233000004,903.6376158000003,903.6376158000003,903.6376158000003,906.6370299,906.6370299,906.6370299,906.6219749000002,indoor,f,1.649833000000399,0.1439700000000812,906.6221287999997,906.6221803999997,None,,,,,,,,,,,,,,00032,001,2026-01-16_11h31.50.282,MST_task,2024.2.0,59.958508711885266,2026-01-16 11h32.30.322065 +0530,
,Objects\068a.jpg,44,0,45,,,,,,,j,1.7197019999994154,0.11956970000028377,None,,,,,,45,0,44,906.6370299,,,,,,,,,,,,,,,,,,,,,,,906.6224178000002,906.6370299,907.1602665,907.1210658999998,,,,,,,,,,,,,,,,,,,,,,,,,,907.1565826000005,907.1602665,907.1602665,907.1602665,,,,910.1375422000001,indoor,j,1.7197019999994154,0.11956970000028377,910.1376988000002,910.1377557000005,None,,,,,,,,,,,,,,00032,001,2026-01-16_11h31.50.282,MST_task,2024.2.0,59.958508711885266,2026-01-16 11h32.30.322065 +0530,
,Objects\268a.jpg,45,0,46,,,,,,,j,1.9609001999997417,0.11243800000011106,None,,,,,,46,0,45,910.1536953000004,,,,,,,,,,,,,,,,,,,,,,,910.1380177000001,910.1536953000004,910.6539868,910.6374542000003,,,,,,,,,,,,,,,,,,,,,,,,,,910.6408793,910.6539868,910.6539868,910.6539868,913.6535721999999,913.6535721999999,913.6535721999999,913.6389128999999,indoor,j,1.9609001999997417,0.11243800000011106,913.6390690999997,913.6391253000002,None,,,,,,,,,,,,,,00032,001,2026-01-16_11h31.50.282,MST_task,2024.2.0,59.958508711885266,2026-01-16 11h32.30.322065 +0530,
,Objects\296a.jpg,46,0,47,,,,,,,f,1.8932267000000138,0.11263920000055805,None,,,,,,47,0,46,913.6535721999999,,,,,,,,,,,,,,,,,,,,,,,913.6393804999998,913.6535721999999,914.1541812000005,914.1377890000003,,,,,,,,,,,,,,,,,,,,,,,,,,914.1443417999999,914.1541812000005,914.1541812000005,914.1541812000005,917.1538872000001,917.1538872000001,917.1538872000001,917.1389433000004,indoor,f,1.8932267000000138,0.11263920000055805,917.1390978999998,917.1391530000001,None,,,,,,,,,,,,,,00032,001,2026-01-16_11h31.50.282,MST_task,2024.2.0,59.958508711885266,2026-01-16 11h32.30.322065 +0530,
,Objects\004a.jpg,47,0,48,,,,,,,f,1.960923399999956,0.1443386000000828,None,,,,,,48,0,47,917.1538872000001,,,,,,,,,,,,,,,,,,,,,,,917.1394311000004,917.1538872000001,917.6543143999997,917.637858,,,,,,,,,,,,,,,,,,,,,,,,,,917.6451163000002,917.6543143999997,917.6543143999997,917.6543143999997,920.6536308000004,920.6536308000004,920.6536308000004,920.6387144,indoor,f,1.960923399999956,0.1443386000000828,920.6388804999997,920.6389393,None,,,,,,,,,,,,,,00032,001,2026-01-16_11h31.50.282,MST_task,2024.2.0,59.958508711885266,2026-01-16 11h32.30.322065 +0530,
,Objects\193a.jpg,48,0,49,,,,,,,f,1.0297241000007489,0.11963049999940267,None,,,,,,49,0,48,920.6536308000004,,,,,,,,,,,,,,,,,,,,,,,920.6391705000005,920.6536308000004,921.1539586999997,921.1377287000005,,,,,,,,,,,,,,,,,,,,,,,,,,921.1424658000005,921.1539586999997,921.1539586999997,921.1539586999997,924.1536353000001,924.1536353000001,924.1536353000001,924.1384761999998,indoor,f,1.0297241000007489,0.11963049999940267,924.1386270000003,924.1386770999998,None,,,,,,,,,,,,,,00032,001,2026-01-16_11h31.50.282,MST_task,2024.2.0,59.958508711885266,2026-01-16 11h32.30.322065 +0530,
,Objects\345a.jpg,49,0,50,,,,,,,f,2.2094907000000603,0.10404319999997824,None,,,,,,50,0,49,924.1536353000001,,,,,,,,,,,,,,,,,,,,,,,924.1387869999999,924.1536353000001,924.6540857999998,924.6375409000002,,,,,,,,,,,,,,,,,,,,,,,,,,924.6432778999997,924.6540857999998,924.6540857999998,924.6540857999998,927.6536091999997,927.6536091999997,927.6536091999997,927.6391460000004,shoe,f,2.2094907000000603,0.10404319999997824,927.6447571999997,927.6448164000003,None,,,,,,,,,,,,,,00032,001,2026-01-16_11h31.50.282,MST_task,2024.2.0,59.958508711885266,2026-01-16 11h32.30.322065 +0530,
,Objects\269a.jpg,50,0,51,,,,,,,f,1.8320184000003792,0.09665390000009211,None,,,,,,51,0,50,927.6536091999997,,,,,,,,,,,,,,,,,,,,,,,927.6450541000004,927.6536091999997,928.1830849999997,928.1379261000002,,,,,,,,,,,,,,,,,,,,,,,,,,928.1798712,928.1830849999997,928.1830849999997,928.1830849999997,,,,931.1540858999997,shoe,f,1.8320184000003792,0.09665390000009211,931.1541382000005,931.1541549000003,None,,,,,,,,,,,,,,00032,001,2026-01-16_11h31.50.282,MST_task,2024.2.0,59.958508711885266,2026-01-16 11h32.30.322065 +0530,
,Objects\354a.jpg,51,0,52,,,,,,,f,2.0810550000005605,0.14405360000000655,None,,,,,,52,0,51,931.1703552999998,,,,,,,,,,,,,,,,,,,,,,,931.1542549000005,931.1703552999998,931.6709163000005,931.6544143000001,,,,,,,,,,,,,,,,,,,,,,,,,,931.6622279000003,931.6709163000005,931.6709163000005,931.6709163000005,934.6703253000005,934.6703253000005,934.6703253000005,934.6551101000005,shoe,f,2.0810550000005605,0.14405360000000655,934.6552758999997,934.6553316999998,None,,,,,,,,,,,,,,00032,001,2026-01-16_11h31.50.282,MST_task,2024.2.0,59.958508711885266,2026-01-16 11h32.30.322065 +0530,
,Objects\107a.jpg,52,0,53,,,,,,,j,1.1969756999997117,0.11895840000033786,None,,,,,,53,0,52,934.6703253000005,,,,,,,,,,,,,,,,,,,,,,,934.6556740000005,934.6703253000005,935.1709688000001,935.1543282000002,,,,,,,,,,,,,,,,,,,,,,,,,,935.1633987000005,935.1709688000001,935.1709688000001,935.1709688000001,938.1703648000002,938.1703648000002,938.1703648000002,938.1553608000004,shoe,j,1.1969756999997117,0.11895840000033786,938.1555232999999,938.1555803000001,None,,,,,,,,,,,,,,00032,001,2026-01-16_11h31.50.282,MST_task,2024.2.0,59.958508711885266,2026-01-16 11h32.30.322065 +0530,
,Objects\095a.jpg,53,0,54,,,,,,,f,1.0166029999991224,0.12014890000045853,None,,,,,,54,0,53,938.1703648000002,,,,,,,,,,,,,,,,,,,,,,,938.1559471999999,938.1703648000002,938.6707619999997,938.6544525999998,,,,,,,,,,,,,,,,,,,,,,,,,,938.6617007000004,938.6707619999997,938.6707619999997,938.6707619999997,941.6704000999998,941.6704000999998,941.6704000999998,941.6557385000006,shoe,f,1.0166029999991224,0.12014890000045853,941.6558956999997,941.6559439000002,None,,,,,,,,,,,,,,00032,001,2026-01-16_11h31.50.282,MST_task,2024.2.0,59.958508711885266,2026-01-16 11h32.30.322065 +0530,
,Objects\335a.jpg,54,0,55,,,,,,,j,0.9888904999997976,0.09486550000019633,None,,,,,,55,0,54,941.6704000999998,,,,,,,,,,,,,,,,,,,,,,,941.6562916000003,941.6704000999998,942.1711084999997,942.1544997999999,,,,,,,,,,,,,,,,,,,,,,,,,,942.1595088000004,942.1711084999997,942.1711084999997,942.1711084999997,945.1702204000003,945.1702204000003,945.1702204000003,945.1548214000004,shoe,j,0.9888904999997976,0.09486550000019633,945.1549482,945.1549935000003,None,,,,,,,,,,,,,,00032,001,2026-01-16_11h31.50.282,MST_task,2024.2.0,59.958508711885266,2026-01-16 11h32.30.322065 +0530,
,Objects\093a.jpg,55,0,56,,,,,,,j,1.2173485000002984,0.0961922999995295,None,,,,,,56,0,55,945.1702204000003,,,,,,,,,,,,,,,,,,,,,,,945.1552919000005,945.1702204000003,945.6707071000001,945.6541471,,,,,,,,,,,,,,,,,,,,,,,,,,945.6616896000005,945.6707071000001,945.6707071000001,945.6707071000001,948.6703911000004,948.6703911000004,948.6703911000004,948.6549354999997,shoe,j,1.2173485000002984,0.0961922999995295,948.6550190999997,948.6550359000003,None,,,,,,,,,,,,,,00032,001,2026-01-16_11h31.50.282,MST_task,2024.2.0,59.958508711885266,2026-01-16 11h32.30.322065 +0530,
,Objects\182a.jpg,56,0,57,,,,,,,f,1.7727410000006785,0.1361481999992975,None,,,,,,57,0,56,948.6703911000004,,,,,,,,,,,,,,,,,,,,,,,948.6551160999998,948.6703911000004,949.1708227999998,949.1547392000002,,,,,,,,,,,,,,,,,,,,,,,,,,949.1646818999998,949.1708227999998,949.1708227999998,949.1708227999998,952.1702881000001,952.1702881000001,952.1702881000001,952.1545966000003,indoor,f,1.7727410000006785,0.1361481999992975,952.1580924,952.1581329999999,None,,,,,,,,,,,,,,00032,001,2026-01-16_11h31.50.282,MST_task,2024.2.0,59.958508711885266,2026-01-16 11h32.30.322065 +0530,
,Objects\306a.jpg,57,0,58,,,,,,,f,1.4565640999999232,0.19206790000043839,None,,,,,,58,0,57,952.1702881000001,,,,,,,,,,,,,,,,,,,,,,,952.1582635000004,952.1702881000001,952.6712312,952.6539226000004,,,,,,,,,,,,,,,,,,,,,,,,,,952.6614845000004,952.6712312,952.6712312,952.6712312,955.6703370000005,955.6703370000005,955.6703370000005,955.6548954999998,indoor,f,1.4565640999999232,0.19206790000043839,955.6550445000003,955.6550938,None,,,,,,,,,,,,,,00032,001,2026-01-16_11h31.50.282,MST_task,2024.2.0,59.958508711885266,2026-01-16 11h32.30.322065 +0530,
,Objects\103a.jpg,58,0,59,,,,,,,f,1.4207119000002422,0.10362810000060563,None,,,,,,59,0,58,955.6703370000005,,,,,,,,,,,,,,,,,,,,,,,955.6553683000002,955.6703370000005,956.1707445000002,956.1544016999997,,,,,,,,,,,,,,,,,,,,,,,,,,956.1636426000005,956.1707445000002,956.1707445000002,956.1707445000002,959.1704127000003,959.1704127000003,959.1704127000003,959.1550766999999,indoor,f,1.4207119000002422,0.10362810000060563,959.1551928999997,959.1552325000002,None,,,,,,,,,,,,,,00032,001,2026-01-16_11h31.50.282,MST_task,2024.2.0,59.958508711885266,2026-01-16 11h32.30.322065 +0530,
,Objects\131a.jpg,59,0,60,,,,,,,f,2.312417699999969,0.12834289999955217,None,,,,,,60,0,59,959.1704127000003,,,,,,,,,,,,,,,,,,,,,,,959.1554299999998,959.1704127000003,959.6707130000004,959.6544795999998,,,,,,,,,,,,,,,,,,,,,,,,,,959.6622171999998,959.6707130000004,959.6707130000004,959.6707130000004,962.6703771000002,962.6703771000002,962.6703771000002,962.6550341000002,indoor,f,2.312417699999969,0.12834289999955217,962.6551405999999,962.6551742000001,None,,,,,,,,,,,,,,00032,001,2026-01-16_11h31.50.282,MST_task,2024.2.0,59.958508711885266,2026-01-16 11h32.30.322065 +0530,
,Objects\084a.jpg,60,0,61,,,,,,,f,2.147565399999621,0.09611949999998615,None,,,,,,61,0,60,962.6703771000002,,,,,,,,,,,,,,,,,,,,,,,962.6553353999998,962.6703771000002,963.1713231000003,963.1548432,,,,,,,,,,,,,,,,,,,,,,,,,,963.1605360000003,963.1713231000003,963.1713231000003,963.1713231000003,966.1704412999998,966.1704412999998,966.1704412999998,966.1549439999999,indoor,f,2.147565399999621,0.09611949999998615,966.1551196999999,966.1551879999997,None,,,,,,,,,,,,,,00032,001,2026-01-16_11h31.50.282,MST_task,2024.2.0,59.958508711885266,2026-01-16 11h32.30.322065 +0530,
,Objects\196a.jpg,61,0,62,,,,,,,f,1.5173898000002737,0.09575829999994312,None,,,,,,62,0,61,966.1704412999998,,,,,,,,,,,,,,,,,,,,,,,966.1553417000005,966.1704412999998,966.7542663000004,966.6546952999997,,,,,,,,,,,,,,,,,,,,,,,,,,966.7512592000003,966.7542663000004,966.7542663000004,966.7542663000004,,,,969.6709086000001,indoor,f,1.5173898000002737,0.09575829999994312,969.6711015999999,969.6711655999998,None,,,,,,,,,,,,,,00032,001,2026-01-16_11h31.50.282,MST_task,2024.2.0,59.958508711885266,2026-01-16 11h32.30.322065 +0530,
,Objects\083a.jpg,62,0,63,,,,,,,f,1.9967808000001241,0.1197904999999082,None,,,,,,63,0,62,969.6872997,,,,,,,,,,,,,,,,,,,,,,,969.6714972,969.6872997,970.2183671000003,970.1712213000001,,,,,,,,,,,,,,,,,,,,,,,,,,970.2149197999997,970.2183671000003,970.2183671000003,970.2183671000003,,,,973.1875957000002,indoor,f,1.9967808000001241,0.1197904999999082,973.1877912999998,973.1878574000002,None,,,,,,,,,,,,,,00032,001,2026-01-16_11h31.50.282,MST_task,2024.2.0,59.958508711885266,2026-01-16 11h32.30.322065 +0530,
,Objects\358a.jpg,63,0,64,,,,,,,j,1.604531699999825,0.048039000000244414,None,,,,,,64,0,63,973.2039461000004,,,,,,,,,,,,,,,,,,,,,,,973.1881093000002,973.2039461000004,973.7072089000003,973.6883823999997,,,,,,,,,,,,,,,,,,,,,,,,,,973.7035231999998,973.7072089000003,973.7072089000003,973.7072089000003,,,,976.7044339000004,shoe,j,1.604531699999825,0.048039000000244414,976.7085683000005,976.7085996000005,None,,,,,,,,,,,,,,00032,001,2026-01-16_11h31.50.282,MST_task,2024.2.0,59.958508711885266,2026-01-16 11h32.30.322065 +0530,
,Objects\163a.jpg,64,0,65,,,,,,,f,1.626431099999536,0.0970115000000078,None,,,,,,65,0,64,976.7205598,,,,,,,,,,,,,,,,,,,,,,,976.7086816000001,976.7205598,977.2204882000005,977.2043014999999,,,,,,,,,,,,,,,,,,,,,,,,,,977.2142409999997,977.2204882000005,977.2204882000005,977.2204882000005,980.2204621999999,980.2204621999999,980.2204621999999,980.2056209000002,shoe,f,1.626431099999536,0.0970115000000078,980.2058024999997,980.2058438000004,None,,,,,,,,,,,,,,00032,001,2026-01-16_11h31.50.282,MST_task,2024.2.0,59.958508711885266,2026-01-16 11h32.30.322065 +0530,
,Objects\350a.jpg,65,0,66,,,,,,,j,2.2952000999994198,0.078877800000555,None,,,,,,66,0,65,980.2204621999999,,,,,,,,,,,,,,,,,,,,,,,980.2060388,980.2204621999999,980.7210735999997,980.7038584000002,,,,,,,,,,,,,,,,,,,,,,,,,,980.7077090000002,980.7210735999997,980.7210735999997,980.7210735999997,983.7202459999999,983.7202459999999,983.7202459999999,983.7054491999997,shoe,j,2.2952000999994198,0.078877800000555,983.7056004000005,983.705637,None,,,,,,,,,,,,,,00032,001,2026-01-16_11h31.50.282,MST_task,2024.2.0,59.958508711885266,2026-01-16 11h32.30.322065 +0530,
,Objects\383a.jpg,66,0,67,,,,,,,f,1.506055799999558,0.15296829999988404,None,,,,,,67,0,66,983.7202459999999,,,,,,,,,,,,,,,,,,,,,,,983.7058287,983.7202459999999,984.2208903000001,984.2048500000001,,,,,,,,,,,,,,,,,,,,,,,,,,984.2139361999998,984.2208903000001,984.2208903000001,984.2208903000001,987.2202416,987.2202416,987.2202416,987.2055022000004,shoe,f,1.506055799999558,0.15296829999988404,987.2056290999999,987.2056794,None,,,,,,,,,,,,,,00032,001,2026-01-16_11h31.50.282,MST_task,2024.2.0,59.958508711885266,2026-01-16 11h32.30.322065 +0530,
,Objects\035a.jpg,67,0,68,,,,,,,j,1.2950203000000329,0.09555410000029951,None,,,,,,68,0,67,987.2202416,,,,,,,,,,,,,,,,,,,,,,,987.2059092,987.2202416,987.7207827000002,987.7049951999998,,,,,,,,,,,,,,,,,,,,,,,,,,987.7119671,987.7207827000002,987.7207827000002,987.7207827000002,990.7203325999999,990.7203325999999,990.7203325999999,990.7057031000004,shoe,j,1.2950203000000329,0.09555410000029951,990.70586,990.7059147999998,None,,,,,,,,,,,,,,00032,001,2026-01-16_11h31.50.282,MST_task,2024.2.0,59.958508711885266,2026-01-16 11h32.30.322065 +0530,
,Objects\236a.jpg,68,0,69,,,,,,,j,2.371223099999952,0.09537410000029922,None,,,,,,69,0,68,990.7203325999999,,,,,,,,,,,,,,,,,,,,,,,990.7062363000005,990.7203325999999,991.2206068000005,991.2045549000004,,,,,,,,,,,,,,,,,,,,,,,,,,991.2141907000005,991.2206068000005,991.2206068000005,991.2206068000005,994.2202938,994.2202938,994.2202938,994.2060849999998,shoe,j,2.371223099999952,0.09537410000029922,994.2062794000003,994.2063447,None,,,,,,,,,,,,,,00032,001,2026-01-16_11h31.50.282,MST_task,2024.2.0,59.958508711885266,2026-01-16 11h32.30.322065 +0530,
,Objects\264a.jpg,69,0,70,,,,,,,f,2.2059582000001683,0.1449320000001535,None,,,,,,70,0,69,994.2202938,,,,,,,,,,,,,,,,,,,,,,,994.2066569999997,994.2202938,994.7209456999999,994.7048500999999,,,,,,,,,,,,,,,,,,,,,,,,,,994.7146671,994.7209456999999,994.7209456999999,994.7209456999999,997.7205064,997.7205064,997.7205064,997.7060209000001,shoe,f,2.2059582000001683,0.1449320000001535,997.7061541000003,997.7062021000002,None,,,,,,,,,,,,,,00032,001,2026-01-16_11h31.50.282,MST_task,2024.2.0,59.958508711885266,2026-01-16 11h32.30.322065 +0530,
,Objects\228a.jpg,70,0,71,,,,,,,f,2.5859699000002365,0.14511380000021745,None,,,,,,71,0,70,997.7205064,,,,,,,,,,,,,,,,,,,,,,,997.7064447000002,997.7205064,998.2208177000002,998.2050684000005,,,,,,,,,,,,,,,,,,,,,,,,,,998.2160611999998,998.2208177000002,998.2208177000002,998.2208177000002,1001.2201782000002,1001.2201782000002,1001.2201782000002,1001.2050303000005,indoor,f,2.5859699000002365,0.14511380000021745,1001.2093383000001,1001.2094005999998,None,,,,,,,,,,,,,,00032,001,2026-01-16_11h31.50.282,MST_task,2024.2.0,59.958508711885266,2026-01-16 11h32.30.322065 +0530,
,Objects\142a.jpg,71,0,72,,,,,,,f,0.9436501000000135,0.11155830000006972,None,,,,,,72,0,71,1001.2201782000002,,,,,,,,,,,,,,,,,,,,,,,1001.2096498000001,1001.2201782000002,1001.7205671000002,1001.7047142000001,,,,,,,,,,,,,,,,,,,,,,,,,,1001.7129641000001,1001.7205671000002,1001.7205671000002,1001.7205671000002,1004.7201133999997,1004.7201133999997,1004.7201133999997,1004.7054090000001,indoor,f,0.9436501000000135,0.11155830000006972,1004.7055521000002,1004.7056024000003,None,,,,,,,,,,,,,,00032,001,2026-01-16_11h31.50.282,MST_task,2024.2.0,59.958508711885266,2026-01-16 11h32.30.322065 +0530,
,Objects\160a.jpg,72,0,73,,,,,,,f,2.0649530000000595,0.09643750000032014,None,,,,,,73,0,72,1004.7201133999997,,,,,,,,,,,,,,,,,,,,,,,1004.7058550000002,1004.7201133999997,1005.2545010000003,1005.2046554999997,,,,,,,,,,,,,,,,,,,,,,,,,,1005.2514879999999,1005.2545010000003,1005.2545010000003,1005.2545010000003,,,,1008.2207884999998,indoor,f,2.0649530000000595,0.09643750000032014,1008.2208934999999,1008.2209307000003,None,,,,,,,,,,,,,,00032,001,2026-01-16_11h31.50.282,MST_task,2024.2.0,59.958508711885266,2026-01-16 11h32.30.322065 +0530,
,Objects\089a.jpg,73,0,74,,,,,,,f,1.2218135000002803,0.11963360000027023,None,,,,,,74,0,73,1008.2372268999998,,,,,,,,,,,,,,,,,,,,,,,1008.2211095000002,1008.2372268999998,1008.7373195,1008.7211800000005,,,,,,,,,,,,,,,,,,,,,,,,,,1008.7279414000004,1008.7373195,1008.7373195,1008.7373195,1011.7371499000001,1011.7371499000001,1011.7371499000001,1011.7219579000002,indoor,f,1.2218135000002803,0.11963360000027023,1011.7220653000004,1011.7221019999997,None,,,,,,,,,,,,,,00032,001,2026-01-16_11h31.50.282,MST_task,2024.2.0,59.958508711885266,2026-01-16 11h32.30.322065 +0530,
,Objects\164a.jpg,74,0,75,,,,,,,f,1.481241599999521,0.05596090000017284,None,,,,,,75,0,74,1011.7371499000001,,,,,,,,,,,,,,,,,,,,,,,1011.7222755000003,1011.7371499000001,1012.2374212000004,1012.2215329,,,,,,,,,,,,,,,,,,,,,,,,,,1012.2273728,1012.2374212000004,1012.2374212000004,1012.2374212000004,1015.2370063999997,1015.2370063999997,1015.2370063999997,1015.2224131000003,indoor,f,1.481241599999521,0.05596090000017284,1015.2225864000002,1015.2226492999998,None,,,,,,,,,,,,,,00032,001,2026-01-16_11h31.50.282,MST_task,2024.2.0,59.958508711885266,2026-01-16 11h32.30.322065 +0530,
,Objects\322a.jpg,75,0,76,,,,,,,f,1.1574798000001465,0.13692489999993995,None,,,,,,76,0,75,1015.2370063999997,,,,,,,,,,,,,,,,,,,,,,,1015.2229383000004,1015.2370063999997,1015.7372881000001,1015.7214534000004,,,,,,,,,,,,,,,,,,,,,,,,,,1015.7335751,1015.7372881000001,1015.7372881000001,1015.7372881000001,1018.7371970000004,1018.7371970000004,1018.7371970000004,1018.7211539,indoor,f,1.1574798000001465,0.13692489999993995,1018.7212053000003,1018.7212208000001,None,,,,,,,,,,,,,,00032,001,2026-01-16_11h31.50.282,MST_task,2024.2.0,59.958508711885266,2026-01-16 11h32.30.322065 +0530,
,Objects\214a.jpg,76,0,77,,,,,,,f,1.2621151999992435,0.11102860000028159,None,,,,,,77,0,76,1018.7371970000004,,,,,,,,,,,,,,,,,,,,,,,1018.7212981000002,1018.7371970000004,1019.3304347000003,1019.2216138000003,,,,,,,,,,,,,,,,,,,,,,,,,,1019.3278171000002,1019.3304347000003,1019.3304347000003,1019.3304347000003,,,,1022.2378663,indoor,f,1.2621151999992435,0.11102860000028159,1022.2379467000001,1022.2379726999998,None,,,,,,,,,,,,,,00032,001,2026-01-16_11h31.50.282,MST_task,2024.2.0,59.958508711885266,2026-01-16 11h32.30.322065 +0530,
,Objects\256a.jpg,77,0,78,,,,,,,f,2.582465100000263,0.10435690000031173,None,,,,,,78,0,77,1022.2536176000003,,,,,,,,,,,,,,,,,,,,,,,1022.2381003999999,1022.2536176000003,1022.7848808999997,1022.7381971000004,,,,,,,,,,,,,,,,,,,,,,,,,,1022.7811655000005,1022.7848808999997,1022.7848808999997,1022.7848808999997,,,,1025.7538790999997,shoe,f,2.582465100000263,0.10435690000031173,1025.7582713000002,1025.7583122000005,None,,,,,,,,,,,,,,00032,001,2026-01-16_11h31.50.282,MST_task,2024.2.0,59.958508711885266,2026-01-16 11h32.30.322065 +0530,
,Objects\192a.jpg,78,0,79,,,,,,,f,1.0967442999999548,0.09647570000015548,None,,,,,,79,0,78,1025.7705293,,,,,,,,,,,,,,,,,,,,,,,1025.7584744000005,1025.7705293,1026.2708469999998,1026.2544376000005,,,,,,,,,,,,,,,,,,,,,,,,,,1026.2622265999998,1026.2708469999998,1026.2708469999998,1026.2708469999998,1029.2703087,1029.2703087,1029.2703087,1029.2556090999997,shoe,f,1.0967442999999548,0.09647570000015548,1029.2557578000005,1029.2558135,None,,,,,,,,,,,,,,00032,001,2026-01-16_11h31.50.282,MST_task,2024.2.0,59.958508711885266,2026-01-16 11h32.30.322065 +0530,
,Objects\054a.jpg,79,0,80,,,,,,,j,1.124496999999792,0.10471780000079889,None,,,,,,80,0,79,1029.2703087,,,,,,,,,,,,,,,,,,,,,,,1029.2561538,1029.2703087,1029.7708849,1029.7547853000005,,,,,,,,,,,,,,,,,,,,,,,,,,1029.7634054,1029.7708849,1029.7708849,1029.7708849,1032.7703848,1032.7703848,1032.7703848,1032.7556242,shoe,j,1.124496999999792,0.10471780000079889,1032.7558299000002,1032.7559235999997,None,,,,,,,,,,,,,,00032,001,2026-01-16_11h31.50.282,MST_task,2024.2.0,59.958508711885266,2026-01-16 11h32.30.322065 +0530,
,Objects\216a.jpg,80,0,81,,,,,,,f,1.5370553000002474,0.05610109999997803,None,,,,,,81,0,80,1032.7703848,,,,,,,,,,,,,,,,,,,,,,,1032.7567834000001,1032.7703848,1033.2708836000002,1033.2548674999998,,,,,,,,,,,,,,,,,,,,,,,,,,1033.2614445,1033.2708836000002,1033.2708836000002,1033.2708836000002,1036.2704837,1036.2704837,1036.2704837,1036.2555167,shoe,f,1.5370553000002474,0.05610109999997803,1036.2556544999998,1036.2557039000003,None,,,,,,,,,,,,,,00032,001,2026-01-16_11h31.50.282,MST_task,2024.2.0,59.958508711885266,2026-01-16 11h32.30.322065 +0530,
,Objects\302a.jpg,81,0,82,,,,,,,f,1.2120167000002766,0.18434439999964525,None,,,,,,82,0,81,1036.2704837,,,,,,,,,,,,,,,,,,,,,,,1036.2560071999997,1036.2704837,1036.7712350000002,1036.7548896999997,,,,,,,,,,,,,,,,,,,,,,,,,,1036.7614645000003,1036.7712350000002,1036.7712350000002,1036.7712350000002,1039.7703662000004,1039.7703662000004,1039.7703662000004,1039.7553679000002,shoe,f,1.2120167000002766,0.18434439999964525,1039.7555186999998,1039.7555725000002,None,,,,,,,,,,,,,,00032,001,2026-01-16_11h31.50.282,MST_task,2024.2.0,59.958508711885266,2026-01-16 11h32.30.322065 +0530,
,Objects\244a.jpg,82,0,83,,,,,,,f,1.8408857999993415,0.12040170000000217,None,,,,,,83,0,82,1039.7703662000004,,,,,,,,,,,,,,,,,,,,,,,1039.7558262000002,1039.7703662000004,1040.2705811000005,1040.2544103999999,,,,,,,,,,,,,,,,,,,,,,,,,,1040.2618536,1040.2705811000005,1040.2705811000005,1040.2705811000005,1043.2703867999999,1043.2703867999999,1043.2703867999999,1043.255126,shoe,f,1.8408857999993415,0.12040170000000217,1043.2552512000002,1043.2552948000002,None,,,,,,,,,,,,,,00032,001,2026-01-16_11h31.50.282,MST_task,2024.2.0,59.958508711885266,2026-01-16 11h32.30.322065 +0530,
,Objects\153a.jpg,83,0,84,,,,,,,j,1.555893400000059,0.09620160000031319,None,,,,,,84,0,83,1043.2703867999999,,,,,,,,,,,,,,,,,,,,,,,1043.2555096000006,1043.2703867999999,1043.7710447,1043.7541382,,,,,,,,,,,,,,,,,,,,,,,,,,1043.7627653999998,1043.7710447,1043.7710447,1043.7710447,1046.7702774999998,1046.7702774999998,1046.7702774999998,1046.7556043000004,shoe,j,1.555893400000059,0.09620160000031319,1046.7557582999998,1046.7558208,None,,,,,,,,,,,,,,00032,001,2026-01-16_11h31.50.282,MST_task,2024.2.0,59.958508711885266,2026-01-16 11h32.30.322065 +0530,
,Objects\171a.jpg,84,0,85,,,,,,,j,0.7832221999997273,0.06392330000016955,None,,,,,,85,0,84,1046.7702774999998,,,,,,,,,,,,,,,,,,,,,,,1046.7560149,1046.7702774999998,1047.3046473000004,1047.2538332000004,,,,,,,,,,,,,,,,,,,,,,,,,,1047.3008274000003,1047.3046473000004,1047.3046473000004,1047.3046473000004,,,,1050.2704478000005,indoor,j,0.7832221999997273,0.06392330000016955,1050.2748512999997,1050.2748950000005,None,,,,,,,,,,,,,,00032,001,2026-01-16_11h31.50.282,MST_task,2024.2.0,59.958508711885266,2026-01-16 11h32.30.322065 +0530,
,Objects\061a.jpg,85,0,86,,,,,,,j,2.036447400000725,0.10399819999929605,None,,,,,,86,0,85,1050.2869794999997,,,,,,,,,,,,,,,,,,,,,,,1050.2750606999998,1050.2869794999997,1050.7873025999997,1050.7710619999998,,,,,,,,,,,,,,,,,,,,,,,,,,1050.7778900000003,1050.7873025999997,1050.7873025999997,1050.7873025999997,1053.7869833000004,1053.7869833000004,1053.7869833000004,1053.7712769,indoor,j,2.036447400000725,0.10399819999929605,1053.7714586000002,1053.7714746000001,None,,,,,,,,,,,,,,00032,001,2026-01-16_11h31.50.282,MST_task,2024.2.0,59.958508711885266,2026-01-16 11h32.30.322065 +0530,
,Objects\277a.jpg,86,0,87,,,,,,,f,1.5463780999998562,0.16721419999976206,None,,,,,,87,0,86,1053.7869833000004,,,,,,,,,,,,,,,,,,,,,,,1053.7715520000002,1053.7869833000004,1054.3092825000003,1054.2709843000002,,,,,,,,,,,,,,,,,,,,,,,,,,1054.3052329000002,1054.3092825000003,1054.3092825000003,1054.3092825000003,,,,1057.2875382000002,indoor,f,1.5463780999998562,0.16721419999976206,1057.2876904000004,1057.2877483000002,None,,,,,,,,,,,,,,00032,001,2026-01-16_11h31.50.282,MST_task,2024.2.0,59.958508711885266,2026-01-16 11h32.30.322065 +0530,
,Objects\263a.jpg,87,0,88,,,,,,,j,1.0193368000000191,0.08022929999970074,None,,,,,,88,0,87,1057.3036683,,,,,,,,,,,,,,,,,,,,,,,1057.2880142000004,1057.3036683,1057.8041746999997,1057.7877009000003,,,,,,,,,,,,,,,,,,,,,,,,,,1057.7962448999997,1057.8041746999997,1057.8041746999997,1057.8041746999997,1060.8035645999998,1060.8035645999998,1060.8035645999998,1060.7887815000004,indoor,j,1.0193368000000191,0.08022929999970074,1060.7889180000002,1060.7889690000002,None,,,,,,,,,,,,,,00032,001,2026-01-16_11h31.50.282,MST_task,2024.2.0,59.958508711885266,2026-01-16 11h32.30.322065 +0530,
,Objects\303a.jpg,88,0,89,,,,,,,j,1.3190693999995347,0.08858490000056918,None,,,,,,89,0,88,1060.8035645999998,,,,,,,,,,,,,,,,,,,,,,,1060.7892134000003,1060.8035645999998,1061.3039962000003,1061.2882178,,,,,,,,,,,,,,,,,,,,,,,,,,1061.2985841999998,1061.3039962000003,1061.3039962000003,1061.3039962000003,1064.3036768000002,1064.3036768000002,1064.3036768000002,1064.2889541000004,indoor,j,1.3190693999995347,0.08858490000056918,1064.2891039000006,1064.2891716000004,None,,,,,,,,,,,,,,00032,001,2026-01-16_11h31.50.282,MST_task,2024.2.0,59.958508711885266,2026-01-16 11h32.30.322065 +0530,
,Objects\281a.jpg,89,0,90,,,,,,,f,1.187630899999931,0.11961369999971794,None,,,,,,90,0,89,1064.3036768000002,,,,,,,,,,,,,,,,,,,,,,,1064.2894235000003,1064.3036768000002,1064.8040959,1064.7877033000004,,,,,,,,,,,,,,,,,,,,,,,,,,1064.7953405999997,1064.8040959,1064.8040959,1064.8040959,1067.8035774999998,1067.8035774999998,1067.8035774999998,1067.7881428,indoor,f,1.187630899999931,0.11961369999971794,1067.7881967000003,1067.7882200000004,None,,,,,,,,,,,,,,00032,001,2026-01-16_11h31.50.282,MST_task,2024.2.0,59.958508711885266,2026-01-16 11h32.30.322065 +0530,
,Objects\127a.jpg,90,0,91,,,,,,,f,1.6067225999995571,0.1124945999999909,None,,,,,,91,0,90,1067.8035774999998,,,,,,,,,,,,,,,,,,,,,,,1067.7883108000005,1067.8035774999998,1068.3041197000002,1068.2878645,,,,,,,,,,,,,,,,,,,,,,,,,,1068.2961108,1068.3041197000002,1068.3041197000002,1068.3041197000002,1071.3037302000002,1071.3037302000002,1071.3037302000002,1071.288673,indoor,f,1.6067225999995571,0.1124945999999909,1071.2888149,1071.2888693000004,None,,,,,,,,,,,,,,00032,001,2026-01-16_11h31.50.282,MST_task,2024.2.0,59.958508711885266,2026-01-16 11h32.30.322065 +0530,
,Objects\274a.jpg,91,0,92,,,,,,,j,1.6996194000003015,0.055686900000182504,None,,,,,,92,0,91,1071.3037302000002,,,,,,,,,,,,,,,,,,,,,,,1071.2891271999997,1071.3037302000002,1071.804059,1071.7877919000002,,,,,,,,,,,,,,,,,,,,,,,,,,1071.7960036000004,1071.804059,1071.804059,1071.804059,1074.8035910999997,1074.8035910999997,1074.8035910999997,1074.7880918,shoe,j,1.6996194000003015,0.055686900000182504,1074.7933300000004,1074.7933751,None,,,,,,,,,,,,,,00032,001,2026-01-16_11h31.50.282,MST_task,2024.2.0,59.958508711885266,2026-01-16 11h32.30.322065 +0530,
,Objects\114a.jpg,92,0,93,,,,,,,f,0.8868658999999752,0.14439800000036485,None,,,,,,93,0,92,1074.8035910999997,,,,,,,,,,,,,,,,,,,,,,,1074.7935677000005,1074.8035910999997,1075.3041915000003,1075.2887147000001,,,,,,,,,,,,,,,,,,,,,,,,,,1075.2956831000001,1075.3041915000003,1075.3041915000003,1075.3041915000003,1078.3036749000003,1078.3036749000003,1078.3036749000003,1078.2887965,shoe,f,0.8868658999999752,0.14439800000036485,1078.2889579000002,1078.2890159999997,None,,,,,,,,,,,,,,00032,001,2026-01-16_11h31.50.282,MST_task,2024.2.0,59.958508711885266,2026-01-16 11h32.30.322065 +0530,
,Objects\255a.jpg,93,0,94,,,,,,,f,1.2607152000000497,0.15922180000052322,None,,,,,,94,0,93,1078.3036749000003,,,,,,,,,,,,,,,,,,,,,,,1078.2892462,1078.3036749000003,1078.8267465999998,1078.7877618000002,,,,,,,,,,,,,,,,,,,,,,,,,,1078.8236210000005,1078.8267465999998,1078.8267465999998,1078.8267465999998,,,,1081.804115,shoe,f,1.2607152000000497,0.15922180000052322,1081.8042778999998,1081.8043542000005,None,,,,,,,,,,,,,,00032,001,2026-01-16_11h31.50.282,MST_task,2024.2.0,59.958508711885266,2026-01-16 11h32.30.322065 +0530,
,Objects\342a.jpg,94,0,95,,,,,,,f,1.941738699999405,0.12070380000022851,None,,,,,,95,0,94,1081.8202387000001,,,,,,,,,,,,,,,,,,,,,,,1081.8046190000005,1081.8202387000001,1082.3209132000002,1082.3046106000002,,,,,,,,,,,,,,,,,,,,,,,,,,1082.3129349,1082.3209132000002,1082.3209132000002,1082.3209132000002,,,,1085.3052269999998,shoe,f,1.941738699999405,0.12070380000022851,1085.3053705000002,1085.3054352,None,,,,,,,,,,,,,,00032,001,2026-01-16_11h31.50.282,MST_task,2024.2.0,59.958508711885266,2026-01-16 11h32.30.322065 +0530,
,Objects\361a.jpg,95,0,96,,,,,,,j,1.46723799999927,0.07141290000072331,None,,,,,,96,0,95,1085.3202797000004,,,,,,,,,,,,,,,,,,,,,,,1085.3057084000002,1085.3202797000004,1085.8207957000004,1085.8049264,,,,,,,,,,,,,,,,,,,,,,,,,,1085.8131030000004,1085.8207957000004,1085.8207957000004,1085.8207957000004,1088.8202571000002,1088.8202571000002,1088.8202571000002,1088.8055255999998,shoe,j,1.46723799999927,0.07141290000072331,1088.8056806000004,1088.8057360000003,None,,,,,,,,,,,,,,00032,001,2026-01-16_11h31.50.282,MST_task,2024.2.0,59.958508711885266,2026-01-16 11h32.30.322065 +0530,
,Objects\226a.jpg,96,0,97,,,,,,,j,1.5318803999998636,0.07294689999980619,None,,,,,,97,0,96,1088.8202571000002,,,,,,,,,,,,,,,,,,,,,,,1088.8060956,1088.8202571000002,1089.4029087,1089.3045843,,,,,,,,,,,,,,,,,,,,,,,,,,1089.3984990999998,1089.4029087,1089.4029087,1089.4029087,,,,1092.3208428999997,shoe,j,1.5318803999998636,0.07294689999980619,1092.3210144000004,1092.3210725999998,None,,,,,,,,,,,,,,00032,001,2026-01-16_11h31.50.282,MST_task,2024.2.0,59.958508711885266,2026-01-16 11h32.30.322065 +0530,
,Objects\247a.jpg,97,0,98,,,,,,,f,1.8414067000003342,0.14374249999946187,None,,,,,,98,0,97,1092.3368381999999,,,,,,,,,,,,,,,,,,,,,,,1092.3213378,1092.3368381999999,1092.8376162000004,1092.8211916,,,,,,,,,,,,,,,,,,,,,,,,,,1092.8287427000005,1092.8376162000004,1092.8376162000004,1092.8376162000004,1095.8369269000004,1095.8369269000004,1095.8369269000004,1095.8220203,shoe,f,1.8414067000003342,0.14374249999946187,1095.8221936,1095.8222457000002,None,,,,,,,,,,,,,,00032,001,2026-01-16_11h31.50.282,MST_task,2024.2.0,59.958508711885266,2026-01-16 11h32.30.322065 +0530,
,Objects\133a.jpg,98,0,99,,,,,,,f,2.557286600000225,0.1038418999996793,None,,,,,,99,0,98,1095.8369269000004,,,,,,,,,,,,,,,,,,,,,,,1095.8225000000002,1095.8369269000004,1096.3375394000004,1096.3210938000002,,,,,,,,,,,,,,,,,,,,,,,,,,1096.3296547999998,1096.3375394000004,1096.3375394000004,1096.3375394000004,1099.3368767000002,1099.3368767000002,1099.3368767000002,1099.3218507000001,indoor,f,2.557286600000225,0.1038418999996793,1099.3249769000004,1099.3250321000005,None,,,,,,,,,,,,,,00032,001,2026-01-16_11h31.50.282,MST_task,2024.2.0,59.958508711885266,2026-01-16 11h32.30.322065 +0530,
,Objects\240a.jpg,99,0,100,,,,,,,f,1.2983543000000282,0.1595203999995647,None,,,,,,100,0,99,1099.3368767000002,,,,,,,,,,,,,,,,,,,,,,,1099.3252579999998,1099.3368767000002,1099.8374439,1099.8207971000002,,,,,,,,,,,,,,,,,,,,,,,,,,1099.8266801999998,1099.8374439,1099.8374439,1099.8374439,1102.8369915000003,1102.8369915000003,1102.8369915000003,1102.8221279999998,indoor,f,1.2983543000000282,0.1595203999995647,1102.8222845999999,1102.8223411,None,,,,,,,,,,,,,,00032,001,2026-01-16_11h31.50.282,MST_task,2024.2.0,59.958508711885266,2026-01-16 11h32.30.322065 +0530,
,Objects\326a.jpg,100,0,101,,,,,,,f,0.8939409000004161,0.12825559999964753,None,,,,,,101,0,100,1102.8369915000003,,,,,,,,,,,,,,,,,,,,,,,1102.8225964000003,1102.8369915000003,1103.3373424000001,1103.3210311000003,,,,,,,,,,,,,,,,,,,,,,,,,,1103.3340778000002,1103.3373424000001,1103.3373424000001,1103.3373424000001,1106.3370391999997,1106.3370391999997,1106.3370391999997,1106.3221039,indoor,f,0.8939409000004161,0.12825559999964753,1106.3222682000005,1106.3223268000002,None,,,,,,,,,,,,,,00032,001,2026-01-16_11h31.50.282,MST_task,2024.2.0,59.958508711885266,2026-01-16 11h32.30.322065 +0530,
,Objects\251a.jpg,101,0,102,,,,,,,f,1.4658620000000155,0.14355490000070859,None,,,,,,102,0,101,1106.3370391999997,,,,,,,,,,,,,,,,,,,,,,,1106.3225068000002,1106.3370391999997,1106.8374419000002,1106.8209237,,,,,,,,,,,,,,,,,,,,,,,,,,1106.8270654999997,1106.8374419000002,1106.8374419000002,1106.8374419000002,1109.8368597999997,1109.8368597999997,1109.8368597999997,1109.8219148999997,indoor,f,1.4658620000000155,0.14355490000070859,1109.8220796000005,1109.8221322,None,,,,,,,,,,,,,,00032,001,2026-01-16_11h31.50.282,MST_task,2024.2.0,59.958508711885266,2026-01-16 11h32.30.322065 +0530,
,Objects\079a.jpg,102,0,103,,,,,,,f,2.0258912999997847,0.09628690000045026,None,,,,,,103,0,102,1109.8368597999997,,,,,,,,,,,,,,,,,,,,,,,1109.8223878,1109.8368597999997,1110.3732259999997,1110.3212836000002,,,,,,,,,,,,,,,,,,,,,,,,,,1110.3699180000003,1110.3732259999997,1110.3732259999997,1110.3732259999997,,,,1113.3374775000002,indoor,f,2.0258912999997847,0.09628690000045026,1113.3376187000003,1113.3376693,None,,,,,,,,,,,,,,00032,001,2026-01-16_11h31.50.282,MST_task,2024.2.0,59.958508711885266,2026-01-16 11h32.30.322065 +0530,
,Objects\065a.jpg,103,0,104,,,,,,,j,1.881128400000307,0.12078810000002704,None,,,,,,104,0,103,1113.3536454000005,,,,,,,,,,,,,,,,,,,,,,,1113.3379147000005,1113.3536454000005,1113.8539295,1113.8379852999997,,,,,,,,,,,,,,,,,,,,,,,,,,1113.8463280000005,1113.8539295,1113.8539295,1113.8539295,1116.8534458000004,1116.8534458000004,1116.8534458000004,1116.8385745000005,indoor,j,1.881128400000307,0.12078810000002704,1116.8386296999997,1116.8386462999997,None,,,,,,,,,,,,,,00032,001,2026-01-16_11h31.50.282,MST_task,2024.2.0,59.958508711885266,2026-01-16 11h32.30.322065 +0530,
,Objects\137a.jpg,104,0,105,,,,,,,f,2.2073725000000195,0.16845699999976205,None,,,,,,105,0,104,1116.8534458000004,,,,,,,,,,,,,,,,,,,,,,,1116.8387312000004,1116.8534458000004,1117.4399328,1117.3379984000003,,,,,,,,,,,,,,,,,,,,,,,,,,1117.4369142000005,1117.4399328,1117.4399328,1117.4399328,,,,1120.3536842000003,indoor,f,2.2073725000000195,0.16845699999976205,1120.3538003000003,1120.3538188000002,None,,,,,,,,,,,,,,00032,001,2026-01-16_11h31.50.282,MST_task,2024.2.0,59.958508711885266,2026-01-16 11h32.30.322065 +0530,
,Objects\090a.jpg,105,0,106,,,,,,,j,1.9447387000000163,0.07914479999999458,None,,,,,,106,0,105,1120.3699111000005,,,,,,,,,,,,,,,,,,,,,,,1120.3539093999998,1120.3699111000005,,1120.8541194,,,,,,,,,,,,,,,,,,,,,,,,,,1120.8656479,1120.8708084,1120.8708084,1120.8708084,,,,1123.8541971000004,shoe,j,1.9447387000000163,0.07914479999999458,1123.8604463000001,1123.8604811000005,None,,,,,,,,,,,,,,00032,001,2026-01-16_11h31.50.282,MST_task,2024.2.0,59.958508711885266,2026-01-16 11h32.30.322065 +0530,
,Objects\224a.jpg,106,0,107,,,,,,,f,0.8707768000003853,0.12648609999996552,None,,,,,,107,0,106,1123.8704195999999,,,,,,,,,,,,,,,,,,,,,,,1123.8606078000003,1123.8704195999999,1124.3705989,1124.3552064000005,,,,,,,,,,,,,,,,,,,,,,,,,,1124.3664208,1124.3705989,1124.3705989,1124.3705989,1127.3703876,1127.3703876,1127.3703876,1127.3558030000004,shoe,f,0.8707768000003853,0.12648609999996552,1127.3559532999998,1127.3559980999999,None,,,,,,,,,,,,,,00032,001,2026-01-16_11h31.50.282,MST_task,2024.2.0,59.958508711885266,2026-01-16 11h32.30.322065 +0530,
,Objects\291a.jpg,107,0,108,,,,,,,f,1.9764918999999281,0.11172320000059699,None,,,,,,108,0,107,1127.3703876,,,,,,,,,,,,,,,,,,,,,,,1127.3562037000002,1127.3703876,1127.8710325000002,1127.8550550999998,,,,,,,,,,,,,,,,,,,,,,,,,,1127.8634091000004,1127.8710325000002,1127.8710325000002,1127.8710325000002,1130.8703142000004,1130.8703142000004,1130.8703142000004,1130.8560216000005,shoe,f,1.9764918999999281,0.11172320000059699,1130.8562229,1130.8562879,None,,,,,,,,,,,,,,00032,001,2026-01-16_11h31.50.282,MST_task,2024.2.0,59.958508711885266,2026-01-16 11h32.30.322065 +0530,
,Objects\026a.jpg,108,0,109,,,,,,,j,1.3492796000000453,0.08815020000020013,None,,,,,,109,0,108,1130.8703142000004,,,,,,,,,,,,,,,,,,,,,,,1130.8566134000002,1130.8703142000004,1131.4500567000005,1131.3549866000003,,,,,,,,,,,,,,,,,,,,,,,,,,1131.4456037999998,1131.4500567000005,1131.4500567000005,1131.4500567000005,,,,1134.3706977000002,shoe,j,1.3492796000000453,0.08815020000020013,1134.3708033000003,1134.3708425000004,None,,,,,,,,,,,,,,00032,001,2026-01-16_11h31.50.282,MST_task,2024.2.0,59.958508711885266,2026-01-16 11h32.30.322065 +0530,
,Objects\009a.jpg,109,0,110,,,,,,,f,1.5120062000005419,0.13524379999944358,None,,,,,,110,0,109,1134.3870214999997,,,,,,,,,,,,,,,,,,,,,,,1134.3710982000002,1134.3870214999997,1134.8876372000004,1134.8714054000002,,,,,,,,,,,,,,,,,,,,,,,,,,1134.8771207999998,1134.8876372000004,1134.8876372000004,1134.8876372000004,1137.8871383000005,1137.8871383000005,1137.8871383000005,1137.8715093,shoe,f,1.5120062000005419,0.13524379999944358,1137.8715866000002,1137.8716042000005,None,,,,,,,,,,,,,,00032,001,2026-01-16_11h31.50.282,MST_task,2024.2.0,59.958508711885266,2026-01-16 11h32.30.322065 +0530,
,Objects\018a.jpg,110,0,111,,,,,,,j,1.2434495999996216,0.09690669999963575,None,,,,,,111,0,110,1137.8871383000005,,,,,,,,,,,,,,,,,,,,,,,1137.8716942,1137.8871383000005,1138.3873672,1138.3715303,,,,,,,,,,,,,,,,,,,,,,,,,,1138.3778901000005,1138.3873672,1138.3873672,1138.3873672,1141.3872259,1141.3872259,1141.3872259,1141.3721231,shoe,j,1.2434495999996216,0.09690669999963575,1141.3722637,1141.3723142,None,,,,,,,,,,,,,,00032,001,2026-01-16_11h31.50.282,MST_task,2024.2.0,59.958508711885266,2026-01-16 11h32.30.322065 +0530,
,Objects\325a.jpg,111,0,112,,,,,,,f,1.2633314999993672,0.18379619999996066,None,,,,,,112,0,111,1141.3872259,,,,,,,,,,,,,,,,,,,,,,,1141.3725474000003,1141.3872259,1142.0481399,1141.8712674999997,,,,,,,,,,,,,,,,,,,,,,,,,,1142.0448174000003,1142.0481399,1142.0481399,1142.0481399,,,,1144.8876937000005,shoe,f,1.2633314999993672,0.18379619999996066,1144.8878126,1144.887855,None,,,,,,,,,,,,,,00032,001,2026-01-16_11h31.50.282,MST_task,2024.2.0,59.958508711885266,2026-01-16 11h32.30.322065 +0530,
,Objects\198a.jpg,112,0,113,,,,,,,j,2.530942000000323,0.10370750000038242,None,,,,,,113,0,112,1144.9037906000003,,,,,,,,,,,,,,,,,,,,,,,1144.8880582000002,1144.9037906000003,1145.4039927000003,1145.3881730000003,,,,,,,,,,,,,,,,,,,,,,,,,,1145.4010386,1145.4039927000003,1145.4039927000003,1145.4039927000003,1148.4036666000002,1148.4036666000002,1148.4036666000002,1148.3890090000004,indoor,j,2.530942000000323,0.10370750000038242,1148.3922505,1148.3922912999997,None,,,,,,,,,,,,,,00032,001,2026-01-16_11h31.50.282,MST_task,2024.2.0,59.958508711885266,2026-01-16 11h32.30.322065 +0530,
,Objects\116a.jpg,113,0,114,,,,,,,j,1.84689520000029,0.11184789999970235,None,,,,,,114,0,113,1148.4036666000002,,,,,,,,,,,,,,,,,,,,,,,1148.3924048999997,1148.4036666000002,1148.9040869,1148.8882021999998,,,,,,,,,,,,,,,,,,,,,,,,,,1148.8963423000005,1148.9040869,1148.9040869,1148.9040869,1151.9037323000002,1151.9037323000002,1151.9037323000002,1151.8886367000005,indoor,j,1.84689520000029,0.11184789999970235,1151.8887426000001,1151.8887809999997,None,,,,,,,,,,,,,,00032,001,2026-01-16_11h31.50.282,MST_task,2024.2.0,59.958508711885266,2026-01-16 11h32.30.322065 +0530,
,Objects\175a.jpg,114,0,115,,,,,,,f,1.1080289000001358,0.11922810000032769,None,,,,,,115,0,114,1151.9037323000002,,,,,,,,,,,,,,,,,,,,,,,1151.8890856999997,1151.9037323000002,1152.4040035999997,1152.3885669000001,,,,,,,,,,,,,,,,,,,,,,,,,,1152.3961110999999,1152.4040035999997,1152.4040035999997,1152.4040035999997,1155.4035891000003,1155.4035891000003,1155.4035891000003,1155.3883979000002,indoor,f,1.1080289000001358,0.11922810000032769,1155.3884888000002,1155.3885207000003,None,,,,,,,,,,,,,,00032,001,2026-01-16_11h31.50.282,MST_task,2024.2.0,59.958508711885266,2026-01-16 11h32.30.322065 +0530,
,Objects\152a.jpg,115,0,116,,,,,,,f,1.358888499999921,0.12053780000042025,None,,,,,,116,0,115,1155.4035891000003,,,,,,,,,,,,,,,,,,,,,,,1155.3886744000001,1155.4035891000003,1155.9040234000004,1155.8881413,,,,,,,,,,,,,,,,,,,,,,,,,,1155.8948247999997,1155.9040234000004,1155.9040234000004,1155.9040234000004,1158.9039184000003,1158.9039184000003,1158.9039184000003,1158.8884097999999,indoor,f,1.358888499999921,0.12053780000042025,1158.8884642000003,1158.8884816999998,None,,,,,,,,,,,,,,00032,001,2026-01-16_11h31.50.282,MST_task,2024.2.0,59.958508711885266,2026-01-16 11h32.30.322065 +0530,
,Objects\219a.jpg,116,0,117,,,,,,,f,2.643472599999768,0.15900909999982105,None,,,,,,117,0,116,1158.9039184000003,,,,,,,,,,,,,,,,,,,,,,,1158.8885683999997,1158.9039184000003,1159.4042531000005,1159.3882878000004,,,,,,,,,,,,,,,,,,,,,,,,,,1159.3970949000004,1159.4042531000005,1159.4042531000005,1159.4042531000005,1162.4035657000004,1162.4035657000004,1162.4035657000004,1162.3888385,indoor,f,2.643472599999768,0.15900909999982105,1162.3890019,1162.3890610999997,None,,,,,,,,,,,,,,00032,001,2026-01-16_11h31.50.282,MST_task,2024.2.0,59.958508711885266,2026-01-16 11h32.30.322065 +0530,
,Objects\040a.jpg,117,0,118,,,,,,,f,0.775650399999904,0.13548700000046665,None,,,,,,118,0,117,1162.4035657000004,,,,,,,,,,,,,,,,,,,,,,,1162.3892757000003,1162.4035657000004,1162.9041659000004,1162.8883795000002,,,,,,,,,,,,,,,,,,,,,,,,,,1162.8943798999999,1162.9041659000004,1162.9041659000004,1162.9041659000004,1165.9036864,1165.9036864,1165.9036864,1165.889139,indoor,f,0.775650399999904,0.13548700000046665,1165.8892892000003,1165.8893397000002,None,,,,,,,,,,,,,,00032,001,2026-01-16_11h31.50.282,MST_task,2024.2.0,59.958508711885266,2026-01-16 11h32.30.322065 +0530,
,Objects\081a.jpg,118,0,119,,,,,,,j,2.1393148000006477,0.10446609999962675,None,,,,,,119,0,118,1165.9036864,,,,,,,,,,,,,,,,,,,,,,,1165.8895386000004,1165.9036864,1166.4040031000004,1166.3882783,,,,,,,,,,,,,,,,,,,,,,,,,,1166.3960643,1166.4040031000004,1166.4040031000004,1166.4040031000004,1169.4039042000004,1169.4039042000004,1169.4039042000004,1169.3886726,indoor,j,2.1393148000006477,0.10446609999962675,1169.3888438000004,1169.3889094000006,None,,,,,,,,,,,,,,00032,001,2026-01-16_11h31.50.282,MST_task,2024.2.0,59.958508711885266,2026-01-16 11h32.30.322065 +0530,
,Objects\246a.jpg,119,0,120,,,,,,,f,1.9994790000000648,0.12800900000002002,None,,,,,,120,0,119,1169.4039042000004,,,,,,,,,,,,,,,,,,,,,,,1169.3892089,1169.4039042000004,1169.903964,1169.8881222999998,,,,,,,,,,,,,,,,,,,,,,,,,,1169.8990079000005,1169.903964,1169.903964,1169.903964,1172.9037080999997,1172.9037080999997,1172.9037080999997,1172.8881886999998,shoe,f,1.9994790000000648,0.12800900000002002,1172.8929015000003,1172.8929392999999,None,,,,,,,,,,,,,,00032,001,2026-01-16_11h31.50.282,MST_task,2024.2.0,59.958508711885266,2026-01-16 11h32.30.322065 +0530,
,Objects\359a.jpg,120,0,121,,,,,,,f,1.437827799999468,0.16046800000003714,None,,,,,,121,0,120,1172.9037080999997,,,,,,,,,,,,,,,,,,,,,,,1172.8930931000004,1172.9037080999997,1173.6809556999997,1173.3879951999998,,,,,,,,,,,,,,,,,,,,,,,,,,1173.6780619,1173.6809556999997,1173.6809556999997,1173.6809556999997,,,,1176.4039983000002,shoe,f,1.437827799999468,0.16046800000003714,1176.4041280000001,1176.4041752000003,None,,,,,,,,,,,,,,00032,001,2026-01-16_11h31.50.282,MST_task,2024.2.0,59.958508711885266,2026-01-16 11h32.30.322065 +0530,
,Objects\140a.jpg,121,0,122,,,,,,,j,1.910658499999954,0.09631890000036947,None,,,,,,122,0,121,1176.4204808000004,,,,,,,,,,,,,,,,,,,,,,,1176.4043940000001,1176.4204808000004,1176.9207230000002,1176.9045891000005,,,,,,,,,,,,,,,,,,,,,,,,,,1176.9172004000002,1176.9207230000002,1176.9207230000002,1176.9207230000002,1179.9204860999998,1179.9204860999998,1179.9204860999998,1179.9053874,shoe,j,1.910658499999954,0.09631890000036947,1179.9055380999998,1179.9055993000002,None,,,,,,,,,,,,,,00032,001,2026-01-16_11h31.50.282,MST_task,2024.2.0,59.958508711885266,2026-01-16 11h32.30.322065 +0530,
,Objects\384a.jpg,122,0,123,,,,,,,f,1.0578962999998112,0.13670159999946918,None,,,,,,123,0,122,1179.9204860999998,,,,,,,,,,,,,,,,,,,,,,,1179.9058443000004,1179.9204860999998,1180.4208626999998,1180.4048184000003,,,,,,,,,,,,,,,,,,,,,,,,,,1180.4135332000005,1180.4208626999998,1180.4208626999998,1180.4208626999998,1183.4204545000002,1183.4204545000002,1183.4204545000002,1183.4050161000005,shoe,f,1.0578962999998112,0.13670159999946918,1183.4051221999998,1183.4051588000002,None,,,,,,,,,,,,,,00032,001,2026-01-16_11h31.50.282,MST_task,2024.2.0,59.958508711885266,2026-01-16 11h32.30.322065 +0530,
,Objects\333a.jpg,123,0,124,,,,,,,f,1.031335599999693,0.12681179999981396,None,,,,,,124,0,123,1183.4204545000002,,,,,,,,,,,,,,,,,,,,,,,1183.4053341,1183.4204545000002,1183.9205957000004,1183.9048373000005,,,,,,,,,,,,,,,,,,,,,,,,,,1183.9106711000004,1183.9205957000004,1183.9205957000004,1183.9205957000004,1186.9209004000004,1186.9209004000004,1186.9209004000004,1186.9054622000003,shoe,f,1.031335599999693,0.12681179999981396,1186.9056418999999,1186.9057191000002,None,,,,,,,,,,,,,,00032,001,2026-01-16_11h31.50.282,MST_task,2024.2.0,59.958508711885266,2026-01-16 11h32.30.322065 +0530,
,Objects\109a.jpg,124,0,125,,,,,,,j,1.3787984000000506,0.11112859999957436,None,,,,,,125,0,124,1186.9209004000004,,,,,,,,,,,,,,,,,,,,,,,1186.9061479000002,1186.9209004000004,1187.4207414000002,1187.4041319999997,,,,,,,,,,,,,,,,,,,,,,,,,,1187.408738,1187.4207414000002,1187.4207414000002,1187.4207414000002,1190.4204636000004,1190.4204636000004,1190.4204636000004,1190.4053235000001,shoe,j,1.3787984000000506,0.11112859999957436,1190.4054932999998,1190.4055539,None,,,,,,,,,,,,,,00032,001,2026-01-16_11h31.50.282,MST_task,2024.2.0,59.958508711885266,2026-01-16 11h32.30.322065 +0530,
,Objects\362a.jpg,125,0,126,,,,,,,f,1.814959400000589,0.13574580000022252,None,,,,,,126,0,125,1190.4204636000004,,,,,,,,,,,,,,,,,,,,,,,1190.4058311,1190.4204636000004,1190.9207078999998,1190.9042256000002,,,,,,,,,,,,,,,,,,,,,,,,,,1190.9153283000005,1190.9207078999998,1190.9207078999998,1190.9207078999998,1193.9204416000002,1193.9204416000002,1193.9204416000002,1193.9055946999997,shoe,f,1.814959400000589,0.13574580000022252,1193.9057817000003,1193.9058459999997,None,,,,,,,,,,,,,,00032,001,2026-01-16_11h31.50.282,MST_task,2024.2.0,59.958508711885266,2026-01-16 11h32.30.322065 +0530,
,Objects\324a.jpg,126,0,127,,,,,,,f,2.113953200000651,0.15154789999996865,None,,,,,,127,0,126,1193.9204416000002,,,,,,,,,,,,,,,,,,,,,,,1193.9061539000004,1193.9204416000002,1194.4213613000002,1194.4048795999997,,,,,,,,,,,,,,,,,,,,,,,,,,1194.4179814999998,1194.4213613000002,1194.4213613000002,1194.4213613000002,1197.4205477000005,1197.4205477000005,1197.4205477000005,1197.4056216,indoor,f,2.113953200000651,0.15154789999996865,1197.4103476,1197.4104020000004,None,,,,,,,,,,,,,,00032,001,2026-01-16_11h31.50.282,MST_task,2024.2.0,59.958508711885266,2026-01-16 11h32.30.322065 +0530,
,Objects\022a.jpg,127,0,128,,,,,,,f,2.693963900000199,0.11990280000009079,None,,,,,,128,0,127,1197.4205477000005,,,,,,,,,,,,,,,,,,,,,,,1197.4106228,1197.4205477000005,1197.9210172000003,1197.9049313000005,,,,,,,,,,,,,,,,,,,,,,,,,,1197.9155812999998,1197.9210172000003,1197.9210172000003,1197.9210172000003,1200.9205923,1200.9205923,1200.9205923,1200.9055144000004,indoor,f,2.693963900000199,0.11990280000009079,1200.9056424,1200.9056865000002,None,,,,,,,,,,,,,,00032,001,2026-01-16_11h31.50.282,MST_task,2024.2.0,59.958508711885266,2026-01-16 11h32.30.322065 +0530,
,Objects\360a.jpg,128,0,129,,,,,,,f,0.9299378999994588,0.11239650000061374,None,,,,,,129,0,128,1200.9205923,,,,,,,,,,,,,,,,,,,,,,,1200.9059945999998,1200.9205923,1201.4208905000005,1201.4048750000002,,,,,,,,,,,,,,,,,,,,,,,,,,1201.41133,1201.4208905000005,1201.4208905000005,1201.4208905000005,1204.4205456999998,1204.4205456999998,1204.4205456999998,1204.4053431000002,indoor,f,0.9299378999994588,0.11239650000061374,1204.4055215999997,1204.4055868000005,None,,,,,,,,,,,,,,00032,001,2026-01-16_11h31.50.282,MST_task,2024.2.0,59.958508711885266,2026-01-16 11h32.30.322065 +0530,
,Objects\025a.jpg,129,0,130,,,,,,,j,1.4551749000002019,0.11949230000027455,None,,,,,,130,0,129,1204.4205456999998,,,,,,,,,,,,,,,,,,,,,,,1204.4058894999998,1204.4205456999998,1204.9520192999998,1204.9048216,,,,,,,,,,,,,,,,,,,,,,,,,,1204.9481284000003,1204.9520192999998,1204.9520192999998,1204.9520192999998,,,,1207.9209266999997,indoor,j,1.4551749000002019,0.11949230000027455,1207.9210273999997,1207.9210627000002,None,,,,,,,,,,,,,,00032,001,2026-01-16_11h31.50.282,MST_task,2024.2.0,59.958508711885266,2026-01-16 11h32.30.322065 +0530,
,Objects\379a.jpg,130,0,131,,,,,,,f,1.2911199999998644,0.11974490000011428,None,,,,,,131,0,130,1207.9372426999998,,,,,,,,,,,,,,,,,,,,,,,1207.9212284000005,1207.9372426999998,1208.4687801,1208.4215174,,,,,,,,,,,,,,,,,,,,,,,,,,1208.4654134000002,1208.4687801,1208.4687801,1208.4687801,,,,1211.4374925000002,indoor,f,1.2911199999998644,0.11974490000011428,1211.4376641999997,1211.4377253000002,None,,,,,,,,,,,,,,00032,001,2026-01-16_11h31.50.282,MST_task,2024.2.0,59.958508711885266,2026-01-16 11h32.30.322065 +0530,
,Objects\221a.jpg,131,0,132,,,,,,,j,0.9654571999999462,0.14379640000061045,None,,,,,,132,0,131,1211.453692,,,,,,,,,,,,,,,,,,,,,,,1211.4380358999997,1211.453692,1211.9541439000004,1211.9381282000004,,,,,,,,,,,,,,,,,,,,,,,,,,1211.9442371000005,1211.9541439000004,1211.9541439000004,1211.9541439000004,1214.9536090000001,1214.9536090000001,1214.9536090000001,1214.9390954,indoor,j,0.9654571999999462,0.14379640000061045,1214.9392456000005,1214.9393005000002,None,,,,,,,,,,,,,,00032,001,2026-01-16_11h31.50.282,MST_task,2024.2.0,59.958508711885266,2026-01-16 11h32.30.322065 +0530,
,Objects\007a.jpg,132,0,133,,,,,,,f,0.8807639999995445,0.09596130000045378,None,,,,,,133,0,132,1214.9536090000001,,,,,,,,,,,,,,,,,,,,,,,1214.9395329999998,1214.9536090000001,1215.4541004000002,1215.4382363000004,,,,,,,,,,,,,,,,,,,,,,,,,,1215.4486210000005,1215.4541004000002,1215.4541004000002,1215.4541004000002,1218.4537531000005,1218.4537531000005,1218.4537531000005,1218.4389585,indoor,f,0.8807639999995445,0.09596130000045378,1218.4390850999998,1218.4391242000002,None,,,,,,,,,,,,,,00032,001,2026-01-16_11h31.50.282,MST_task,2024.2.0,59.958508711885266,2026-01-16 11h32.30.322065 +0530,
,Objects\125a.jpg,133,0,134,,,,,,,j,1.3170089999994161,0.1116998000006788,None,,,,,,134,0,133,1218.4537531000005,,,,,,,,,,,,,,,,,,,,,,,1218.4393037999998,1218.4537531000005,1218.9539800000002,1218.9382791999997,,,,,,,,,,,,,,,,,,,,,,,,,,1218.9469346000005,1218.9539800000002,1218.9539800000002,1218.9539800000002,1221.9538143999998,1221.9538143999998,1221.9538143999998,1221.9390494,shoe,j,1.3170089999994161,0.1116998000006788,1221.9436598000002,1221.9436931999999,None,,,,,,,,,,,,,,00032,001,2026-01-16_11h31.50.282,MST_task,2024.2.0,59.958508711885266,2026-01-16 11h32.30.322065 +0530,
,Objects\170a.jpg,134,0,135,,,,,,,j,1.081606699999611,0.11149220000061177,None,,,,,,135,0,134,1221.9538143999998,,,,,,,,,,,,,,,,,,,,,,,1221.9439001,1221.9538143999998,1222.4539772999997,1222.4381660999998,,,,,,,,,,,,,,,,,,,,,,,,,,1222.4469653000006,1222.4539772999997,1222.4539772999997,1222.4539772999997,1225.453727,1225.453727,1225.453727,1225.4391548000003,shoe,j,1.081606699999611,0.11149220000061177,1225.4393464000004,1225.4394122000003,None,,,,,,,,,,,,,,00032,001,2026-01-16_11h31.50.282,MST_task,2024.2.0,59.958508711885266,2026-01-16 11h32.30.322065 +0530,
,Objects\143a.jpg,135,0,136,,,,,,,j,1.4209344999999303,0.12037200000031589,None,,,,,,136,0,135,1225.453727,,,,,,,,,,,,,,,,,,,,,,,1225.4396182,1225.453727,1225.9539591000002,1225.9382109999997,,,,,,,,,,,,,,,,,,,,,,,,,,1225.9446256,1225.9539591000002,1225.9539591000002,1225.9539591000002,1228.9536419000005,1228.9536419000005,1228.9536419000005,1228.9388688,shoe,j,1.4209344999999303,0.12037200000031589,1228.9390430000003,1228.9390966,None,,,,,,,,,,,,,,00032,001,2026-01-16_11h31.50.282,MST_task,2024.2.0,59.958508711885266,2026-01-16 11h32.30.322065 +0530,
,Objects\155a.jpg,136,0,137,,,,,,,f,0.9533334999996441,0.1759607000003598,None,,,,,,137,0,136,1228.9536419000005,,,,,,,,,,,,,,,,,,,,,,,1228.9393498999998,1228.9536419000005,1229.4544370000003,1229.4383311000001,,,,,,,,,,,,,,,,,,,,,,,,,,1229.4441828,1229.4544370000003,1229.4544370000003,1229.4544370000003,1232.4536416,1232.4536416,1232.4536416,1232.4387335000001,shoe,f,0.9533334999996441,0.1759607000003598,1232.4388654000004,1232.4389057999997,None,,,,,,,,,,,,,,00032,001,2026-01-16_11h31.50.282,MST_task,2024.2.0,59.958508711885266,2026-01-16 11h32.30.322065 +0530,
,Objects\075a.jpg,137,0,138,,,,,,,f,1.2451213000003918,0.1675768999994034,None,,,,,,138,0,137,1232.4536416,,,,,,,,,,,,,,,,,,,,,,,1232.439284,1232.4536416,1232.9540348,1232.9383834,,,,,,,,,,,,,,,,,,,,,,,,,,1232.9436280999998,1232.9540348,1232.9540348,1232.9540348,1235.9536865999999,1235.9536865999999,1235.9536865999999,1235.938916,shoe,f,1.2451213000003918,0.1675768999994034,1235.9390884000004,1235.9391557999998,None,,,,,,,,,,,,,,00032,001,2026-01-16_11h31.50.282,MST_task,2024.2.0,59.958508711885266,2026-01-16 11h32.30.322065 +0530,
,Objects\218a.jpg,138,0,139,,,,,,,j,0.8485654999994949,0.08855080000012094,None,,,,,,139,0,138,1235.9536865999999,,,,,,,,,,,,,,,,,,,,,,,1235.9395901999997,1235.9536865999999,1236.4542478000003,1236.4382212,,,,,,,,,,,,,,,,,,,,,,,,,,1236.4484094,1236.4542478000003,1236.4542478000003,1236.4542478000003,1239.4536870000002,1239.4536870000002,1239.4536870000002,1239.4388202,shoe,j,0.8485654999994949,0.08855080000012094,1239.4390916000002,1239.4391562,None,,,,,,,,,,,,,,00032,001,2026-01-16_11h31.50.282,MST_task,2024.2.0,59.958508711885266,2026-01-16 11h32.30.322065 +0530,
,Objects\070a.jpg,139,0,140,,,,,,,f,0.8447621000004801,0.12746340000012424,None,,,,,,140,0,139,1239.4536870000002,,,,,,,,,,,,,,,,,,,,,,,1239.4394868,1239.4536870000002,1239.9543211,1239.9382099000004,,,,,,,,,,,,,,,,,,,,,,,,,,1239.9470871000003,1239.9543211,1239.9543211,1239.9543211,1242.9536665000005,1242.9536665000005,1242.9536665000005,1242.9389600000004,shoe,f,0.8447621000004801,0.12746340000012424,1242.9391329,1242.9391989000005,None,,,,,,,,,,,,,,00032,001,2026-01-16_11h31.50.282,MST_task,2024.2.0,59.958508711885266,2026-01-16 11h32.30.322065 +0530,
,Objects\086a.jpg,140,0,141,,,,,,,j,1.832310700000562,0.10469110000030923,None,,,,,,141,0,140,1242.9536665000005,,,,,,,,,,,,,,,,,,,,,,,1242.9394891000002,1242.9536665000005,1243.4544772,1243.4381802999997,,,,,,,,,,,,,,,,,,,,,,,,,,1243.4470837,1243.4544772,1243.4544772,1243.4544772,1246.4537692000004,1246.4537692000004,1246.4537692000004,1246.4392101000003,indoor,j,1.832310700000562,0.10469110000030923,1246.4431863999998,1246.4432198000004,None,,,,,,,,,,,,,,00032,001,2026-01-16_11h31.50.282,MST_task,2024.2.0,59.958508711885266,2026-01-16 11h32.30.322065 +0530,
,Objects\353a.jpg,141,0,142,,,,,,,f,0.9007918999996036,0.13633200000003853,None,,,,,,142,0,141,1246.4537692000004,,,,,,,,,,,,,,,,,,,,,,,1246.4433673000003,1246.4537692000004,1246.9541295,1246.9382566000004,,,,,,,,,,,,,,,,,,,,,,,,,,1246.9465044999997,1246.9541295,1246.9541295,1246.9541295,1249.9537209999999,1249.9537209999999,1249.9537209999999,1249.9390570000005,indoor,f,0.9007918999996036,0.13633200000003853,1249.9392270999997,1249.9392914999999,None,,,,,,,,,,,,,,00032,001,2026-01-16_11h31.50.282,MST_task,2024.2.0,59.958508711885266,2026-01-16 11h32.30.322065 +0530,
,Objects\282a.jpg,142,0,143,,,,,,,j,1.936499599999479,0.11252080000031128,None,,,,,,143,0,142,1249.9537209999999,,,,,,,,,,,,,,,,,,,,,,,1249.9395557999997,1249.9537209999999,1250.4541547,1250.4381456,,,,,,,,,,,,,,,,,,,,,,,,,,1250.4454317999998,1250.4541547,1250.4541547,1250.4541547,1253.4534485000004,1253.4534485000004,1253.4534485000004,1253.4388538000003,indoor,j,1.936499599999479,0.11252080000031128,1253.4390141000003,1253.439061,None,,,,,,,,,,,,,,00032,001,2026-01-16_11h31.50.282,MST_task,2024.2.0,59.958508711885266,2026-01-16 11h32.30.322065 +0530,
,Objects\060a.jpg,143,0,144,,,,,,,f,1.8132329000000027,0.1753527999999278,None,,,,,,144,0,143,1253.4534485000004,,,,,,,,,,,,,,,,,,,,,,,1253.4392946999997,1253.4534485000004,1253.953993,1253.9380750999999,,,,,,,,,,,,,,,,,,,,,,,,,,1253.9443658999999,1253.953993,1253.953993,1253.953993,1256.953845,1256.953845,1256.953845,1256.9389286000005,indoor,f,1.8132329000000027,0.1753527999999278,1256.9390572000002,1256.9391028,None,,,,,,,,,,,,,,00032,001,2026-01-16_11h31.50.282,MST_task,2024.2.0,59.958508711885266,2026-01-16 11h32.30.322065 +0530,
,Objects\229a.jpg,144,0,145,,,,,,,f,1.6483535999996093,0.1672367999999551,None,,,,,,145,0,144,1256.953845,,,,,,,,,,,,,,,,,,,,,,,1256.9393494000005,1256.953845,1257.5108099999998,1257.4372813,,,,,,,,,,,,,,,,,,,,,,,,,,1257.5079415,1257.5108099999998,1257.5108099999998,1257.5108099999998,,,,1260.4544328000002,indoor,f,1.6483535999996093,0.1672367999999551,1260.4546005000002,1260.4546387999999,None,,,,,,,,,,,,,,00032,001,2026-01-16_11h31.50.282,MST_task,2024.2.0,59.958508711885266,2026-01-16 11h32.30.322065 +0530,
,Objects\080a.jpg,145,0,146,,,,,,,f,0.9721472000001086,0.10455939999974362,None,,,,,,146,0,145,1260.4704659,,,,,,,,,,,,,,,,,,,,,,,1260.4548221000005,1260.4704659,1260.9709386000004,1260.9548434999997,,,,,,,,,,,,,,,,,,,,,,,,,,1260.9641374000003,1260.9709386000004,1260.9709386000004,1260.9709386000004,1263.9703872,1263.9703872,1263.9703872,1263.9553711999997,indoor,f,0.9721472000001086,0.10455939999974362,1263.9555286000004,1263.9555927000001,None,,,,,,,,,,,,,,00032,001,2026-01-16_11h31.50.282,MST_task,2024.2.0,59.958508711885266,2026-01-16 11h32.30.322065 +0530,
,Objects\021a.jpg,146,0,147,,,,,,,f,1.1121494999997594,0.11966680000023189,None,,,,,,147,0,146,1263.9703872,,,,,,,,,,,,,,,,,,,,,,,1263.9558769000005,1263.9703872,1264.4707119000004,1264.4547705000004,,,,,,,,,,,,,,,,,,,,,,,,,,1264.4619891000002,1264.4707119000004,1264.4707119000004,1264.4707119000004,1267.4703569000003,1267.4703569000003,1267.4703569000003,1267.4560001,indoor,f,1.1121494999997594,0.11966680000023189,1267.4561426999999,1267.4561894999997,None,,,,,,,,,,,,,,00032,001,2026-01-16_11h31.50.282,MST_task,2024.2.0,59.958508711885266,2026-01-16 11h32.30.322065 +0530,
,Objects\369a.jpg,147,0,148,,,,,,,f,0.7141585999997915,0.1192548999997598,None,,,,,,148,0,147,1267.4703569000003,,,,,,,,,,,,,,,,,,,,,,,1267.4564712000001,1267.4703569000003,1268.0054187000005,1267.9548303000001,,,,,,,,,,,,,,,,,,,,,,,,,,1268.0029099000003,1268.0054187000005,1268.0054187000005,1268.0054187000005,,,,1270.9708858000004,shoe,f,0.7141585999997915,0.1192548999997598,1270.9750322,1270.9750620000004,None,,,,,,,,,,,,,,00032,001,2026-01-16_11h31.50.282,MST_task,2024.2.0,59.958508711885266,2026-01-16 11h32.30.322065 +0530,
,Objects\375a.jpg,148,0,149,,,,,,,f,0.9034718000002613,0.1274303999998665,None,,,,,,149,0,148,1270.9870830999998,,,,,,,,,,,,,,,,,,,,,,,1270.9752396000004,1270.9870830999998,1271.4876602000004,1271.4716620999998,,,,,,,,,,,,,,,,,,,,,,,,,,1271.4786759999997,1271.4876602000004,1271.4876602000004,1271.4876602000004,1274.4870652999998,1274.4870652999998,1274.4870652999998,1274.4721630000004,shoe,f,0.9034718000002613,0.1274303999998665,1274.4722822000003,1274.4723226000006,None,,,,,,,,,,,,,,00032,001,2026-01-16_11h31.50.282,MST_task,2024.2.0,59.958508711885266,2026-01-16 11h32.30.322065 +0530,
,Objects\115a.jpg,149,0,150,,,,,,,f,1.0034162000001743,0.1449651000002632,None,,,,,,150,0,149,1274.4870652999998,,,,,,,,,,,,,,,,,,,,,,,1274.4725883,1274.4870652999998,1274.987244,1274.9706212,,,,,,,,,,,,,,,,,,,,,,,,,,1274.9752273000004,1274.987244,1274.987244,1274.987244,1277.9870852000004,1277.9870852000004,1277.9870852000004,1277.9721627999998,shoe,f,1.0034162000001743,0.1449651000002632,1277.9723028999997,1277.9723491000004,None,,,,,,,,,,,,,,00032,001,2026-01-16_11h31.50.282,MST_task,2024.2.0,59.958508711885266,2026-01-16 11h32.30.322065 +0530,
,Objects\316a.jpg,150,0,151,,,,,,,f,2.3442544999998063,0.12772279999990133,None,,,,,,151,0,150,1277.9870852000004,,,,,,,,,,,,,,,,,,,,,,,1277.9726805,1277.9870852000004,1278.4875641999997,1278.4715185000005,,,,,,,,,,,,,,,,,,,,,,,,,,1278.4807416000003,1278.4875641999997,1278.4875641999997,1278.4875641999997,1281.4866886999998,1281.4866886999998,1281.4866886999998,1281.4710651000005,shoe,f,2.3442544999998063,0.12772279999990133,1281.4711175000002,1281.4711331999997,None,,,,,,,,,,,,,,00032,001,2026-01-16_11h31.50.282,MST_task,2024.2.0,59.958508711885266,2026-01-16 11h32.30.322065 +0530,
,Objects\135a.jpg,151,0,152,,,,,,,f,0.788126999999804,0.1675386000006256,None,,,,,,152,0,151,1281.4866886999998,,,,,,,,,,,,,,,,,,,,,,,1281.4712130999997,1281.4866886999998,1281.9875017000004,1281.9707509,,,,,,,,,,,,,,,,,,,,,,,,,,1281.9744147000001,1281.9875017000004,1281.9875017000004,1281.9875017000004,1284.9871056000002,1284.9871056000002,1284.9871056000002,1284.9722192,shoe,f,0.788126999999804,0.1675386000006256,1284.9724016,1284.9724674999998,None,,,,,,,,,,,,,,00032,001,2026-01-16_11h31.50.282,MST_task,2024.2.0,59.958508711885266,2026-01-16 11h32.30.322065 +0530,
,Objects\232a.jpg,152,0,153,,,,,,,f,1.1832608000004257,0.07225070000004052,None,,,,,,153,0,152,1284.9871056000002,,,,,,,,,,,,,,,,,,,,,,,1284.9729275,1284.9871056000002,1285.4882794000005,1285.4715078999998,,,,,,,,,,,,,,,,,,,,,,,,,,1285.4787131000003,1285.4882794000005,1285.4882794000005,1285.4882794000005,1288.4870213000004,1288.4870213000004,1288.4870213000004,1288.4722478000003,shoe,f,1.1832608000004257,0.07225070000004052,1288.4723456000002,1288.4723758999999,None,,,,,,,,,,,,,,00032,001,2026-01-16_11h31.50.282,MST_task,2024.2.0,59.958508711885266,2026-01-16 11h32.30.322065 +0530,
,Objects\348a.jpg,153,0,154,,,,,,,f,1.914895500000057,0.1521192999998675,None,,,,,,154,0,153,1288.4870213000004,,,,,,,,,,,,,,,,,,,,,,,1288.4725141999998,1288.4870213000004,1288.9875399000002,1288.9715443000005,,,,,,,,,,,,,,,,,,,,,,,,,,1288.9791584000004,1288.9875399000002,1288.9875399000002,1288.9875399000002,1291.9877032000004,1291.9877032000004,1291.9877032000004,1291.9718854000002,shoe,f,1.914895500000057,0.1521192999998675,1291.9720613,1291.9721214,None,,,,,,,,,,,,,,00032,001,2026-01-16_11h31.50.282,MST_task,2024.2.0,59.958508711885266,2026-01-16 11h32.30.322065 +0530,
,Objects\227a.jpg,154,0,155,,,,,,,f,2.2724238999999216,0.215779900000598,None,,,,,,155,0,154,1291.9877032000004,,,,,,,,,,,,,,,,,,,,,,,1291.9723411000004,1291.9877032000004,1292.6717561000005,1292.4719227000005,,,,,,,,,,,,,,,,,,,,,,,,,,1292.6687182000005,1292.6717561000005,1292.6717561000005,1292.6717561000005,,,,1295.4881594999997,indoor,f,2.2724238999999216,0.215779900000598,1295.4922926999998,1295.4923275,None,,,,,,,,,,,,,,00032,001,2026-01-16_11h31.50.282,MST_task,2024.2.0,59.958508711885266,2026-01-16 11h32.30.322065 +0530,
,Objects\339a.jpg,155,0,156,,,,,,,j,1.1154694999995627,0.10428830000000744,None,,,,,,156,0,155,1295.5037343000004,,,,,,,,,,,,,,,,,,,,,,,1295.4924603,1295.5037343000004,1296.0039738000005,1295.9877332000005,,,,,,,,,,,,,,,,,,,,,,,,,,1295.9956324000004,1296.0039738000005,1296.0039738000005,1296.0039738000005,1299.0037395999998,1299.0037395999998,1299.0037395999998,1298.9897631000003,indoor,j,1.1154694999995627,0.10428830000000744,1298.9898904000001,1298.9899363000004,None,,,,,,,,,,,,,,00032,001,2026-01-16_11h31.50.282,MST_task,2024.2.0,59.958508711885266,2026-01-16 11h32.30.322065 +0530,
,Objects\033a.jpg,156,0,157,,,,,,,f,1.2154188999993494,0.1436303999998927,None,,,,,,157,0,156,1299.0037395999998,,,,,,,,,,,,,,,,,,,,,,,1298.9901466000001,1299.0037395999998,1299.5038431000003,1299.4871492000002,,,,,,,,,,,,,,,,,,,,,,,,,,1299.4917307000005,1299.5038431000003,1299.5038431000003,1299.5038431000003,1302.5034468000003,1302.5034468000003,1302.5034468000003,1302.4881462000003,indoor,f,1.2154188999993494,0.1436303999998927,1302.4882782000004,1302.4883262000003,None,,,,,,,,,,,,,,00032,001,2026-01-16_11h31.50.282,MST_task,2024.2.0,59.958508711885266,2026-01-16 11h32.30.322065 +0530,
,Objects\257a.jpg,157,0,158,,,,,,,f,1.0101534000004904,0.13643229999979667,None,,,,,,158,0,157,1302.5034468000003,,,,,,,,,,,,,,,,,,,,,,,1302.4885510000004,1302.5034468000003,1303.0042061000004,1302.9875994000004,,,,,,,,,,,,,,,,,,,,,,,,,,1302.9918355999998,1303.0042061000004,1303.0042061000004,1303.0042061000004,1306.0037106,1306.0037106,1306.0037106,1305.9884988000003,indoor,f,1.0101534000004904,0.13643229999979667,1305.9885500999999,1305.9885667999997,None,,,,,,,,,,,,,,00032,001,2026-01-16_11h31.50.282,MST_task,2024.2.0,59.958508711885266,2026-01-16 11h32.30.322065 +0530,
,Objects\288a.jpg,158,0,159,,,,,,,f,0.7322283999992578,0.14388970000072732,None,,,,,,159,0,158,1306.0037106,,,,,,,,,,,,,,,,,,,,,,,1305.9886495,1306.0037106,1306.5310243000004,1306.4872692999998,,,,,,,,,,,,,,,,,,,,,,,,,,1306.5281296000003,1306.5310243000004,1306.5310243000004,1306.5310243000004,,,,1309.5038624999997,indoor,f,0.7322283999992578,0.14388970000072732,1309.5039716,1309.5040166999997,None,,,,,,,,,,,,,,00032,001,2026-01-16_11h31.50.282,MST_task,2024.2.0,59.958508711885266,2026-01-16 11h32.30.322065 +0530,
,Objects\168a.jpg,159,0,160,,,,,,,j,2.394655799999782,0.08699710000018968,None,,,,,,160,0,159,1309.5198958,,,,,,,,,,,,,,,,,,,,,,,1309.5042227000004,1309.5198958,1310.0369857000005,1310.0040592000005,,,,,,,,,,,,,,,,,,,,,,,,,,1310.0342372000005,1310.0369857000005,1310.0369857000005,1310.0369857000005,,,,1313.0207366000004,indoor,j,2.394655799999782,0.08699710000018968,1313.0208769,1313.0209290000003,None,,,,,,,,,,,,,,00032,001,2026-01-16_11h31.50.282,MST_task,2024.2.0,59.958508711885266,2026-01-16 11h32.30.322065 +0530,
,Objects\101a.jpg,160,0,161,,,,,,,f,2.941542799999297,None,None,,,,,,161,0,160,1313.0371591000003,,,,,,,,,,,,,,,,,,,,,,,1313.0211779,1313.0371591000003,1313.5377565999997,1313.5214621000005,,,,,,,,,,,,,,,,,,,,,,,,,,1313.5290887,1313.5377565999997,1313.5377565999997,1313.5377565999997,1316.5370522000003,1316.5370522000003,1316.5370522000003,1316.5222323999997,indoor,f,2.941542799999297,None,1316.5224538000002,1316.5225028000004,None,,,,,,,,,,,,,,00032,001,2026-01-16_11h31.50.282,MST_task,2024.2.0,59.958508711885266,2026-01-16 11h32.30.322065 +0530,
,Objects\205a.jpg,161,0,162,,,,,,,j,1.768950799999402,0.12070350000067265,None,,,,,,162,0,161,1316.5370522000003,,,,,,,,,,,,,,,,,,,,,,,1316.5227302000003,1316.5370522000003,1317.0375992,1317.0214195999997,,,,,,,,,,,,,,,,,,,,,,,,,,1317.0296525000003,1317.0375992,1317.0375992,1317.0375992,1320.0371332000004,1320.0371332000004,1320.0371332000004,1320.0224675999998,shoe,j,1.768950799999402,0.12070350000067265,1320.0267148000003,1320.0267515000005,None,,,,,,,,,,,,,,00032,001,2026-01-16_11h31.50.282,MST_task,2024.2.0,59.958508711885266,2026-01-16 11h32.30.322065 +0530,
,Objects\113a.jpg,162,0,163,,,,,,,f,1.7334008999996513,0.13570100000015373,None,,,,,,163,0,162,1320.0371332000004,,,,,,,,,,,,,,,,,,,,,,,1320.0269043999997,1320.0371332000004,1320.5374923,1320.5215583,,,,,,,,,,,,,,,,,,,,,,,,,,1320.5290207999997,1320.5374923,1320.5374923,1320.5374923,1323.5369711000003,1323.5369711000003,1323.5369711000003,1323.5222783999998,shoe,f,1.7334008999996513,0.13570100000015373,1323.5224610000005,1323.5225178,None,,,,,,,,,,,,,,00032,001,2026-01-16_11h31.50.282,MST_task,2024.2.0,59.958508711885266,2026-01-16 11h32.30.322065 +0530,
