Sl_no,image_path,thisN,thisTrialN,thisRepN,key_resp_5.keys,key_resp_7.keys,key_resp_7.rt,key_resp_7.duration,key_resp_5.rt,key_resp_5.duration,key_resp_9.keys,key_resp_9.rt,key_resp_9.duration,key_resp_8.keys,key_resp_8.rt,key_resp_8.duration,practice.thisRepN,practice.thisTrialN,practice.thisN,trials.thisRepN,trials.thisTrialN,trials.thisN,thisRow.t,notes,welcome_page.started,text.started,key_resp.started,welcome_page.stopped,key_resp.keys,key_resp.rt,key_resp.duration,instructions.started,ins.started,key_resp_2.started,instructions.stopped,key_resp_2.keys,key_resp_2.rt,key_resp_2.duration,objects_only_instruction.started,text_3.started,key_resp_3.started,objects_only_instruction.stopped,key_resp_3.keys,key_resp_3.rt,key_resp_3.duration,ISI.started,text_4.started,ISI.stopped,practice_block.started,image.started,key_resp_5.started,text_5.started,practice_block.stopped,practice.key_resp_5.keys,indoor_outdoor.started,text_7.started,key_resp_7.started,indoor_outdoor.stopped,practice.key_resp_7.keys,practice.key_resp_7.rt,practice.key_resp_7.duration,text_4.stopped,image.stopped,key_resp_5.stopped,text_5.stopped,practice.key_resp_5.rt,practice.key_resp_5.duration,practice_to_main.started,text_2.started,key_resp_4.started,practice_to_main.stopped,key_resp_4.keys,key_resp_4.rt,key_resp_4.duration,objects.started,image_2.started,text_9.started,key_resp_9.started,objects.stopped,category,trials.key_resp_9.keys,trials.key_resp_9.rt,trials.key_resp_9.duration,encoding_task.started,encoding_task.stopped,trials.key_resp_8.keys,image_2.stopped,text_9.stopped,key_resp_9.stopped,text_8.started,key_resp_8.started,trials.key_resp_8.rt,trials.key_resp_8.duration,end_experiment.started,text_6.started,key_resp_6.started,end_experiment.stopped,key_resp_6.keys,key_resp_6.rt,key_resp_6.duration,list_of_stimuli,encoding_task_accuracy,participant,session,date,expName,psychopyVersion,frameRate,expStart,
,,,,,,,,,,,,,,,,,,,,,,,,,0.0018244999999978972,0.004448899999999867,0.004448899999999867,35.6561662,space,35.58582709999999,None,,,,,,,,,,,,,,,,,,,,,,,,,,,,,,,,,,,,,,,,,,,,,,,,,,,,,,,,,,,,,,,,,,,,,,,,00033,001,2025-11-18_14h44.49.862,MST_task,2024.2.0,59.76911192065587,2025-11-18 14h45.07.956705 +0530,
,,,,,,,,,,,,,,,,,,,,,,,,,,,,,,,,35.656208600000014,35.667104800000004,35.667104800000004,51.904660500000006,space,16.226619499999998,None,,,,,,,,,,,,,,,,,,,,,,,,,,,,,,,,,,,,,,,,,,,,,,,,,,,,,,,,,,,,,,,,,00033,001,2025-11-18_14h44.49.862,MST_task,2024.2.0,59.76911192065587,2025-11-18 14h45.07.956705 +0530,
,,,,,,,,,,,,,,,,,,,,,,,,,,,,,,,,,,,,,,,51.904692900000015,51.92071280000002,51.92071280000002,58.25608310000001,space,6.318157899999989,None,,,,,,,,,,,,,,,,,,,,,,,,,,,,,,,,,,,,,,,,,,,,,,,,,,,,,,,,,,00033,001,2025-11-18_14h44.49.862,MST_task,2024.2.0,59.76911192065587,2025-11-18 14h45.07.956705 +0530,
4,practice_images/002b.jpg,0,0,1,None,f,1.6908406000000014,None,,,,,,,,,1,0,0,,,,58.28043500000001,,,,,,,,,,,,,,,,,,,,,,,58.278071100000005,58.28043500000001,58.77162100000001,58.791077,58.802970500000015,58.802970500000015,58.802970500000015,61.77191619999999,None,61.77814460000002,61.78759120000001,61.78759120000001,63.48944130000001,f,1.6908406000000014,None,,,,,,,,,,,,,,,,,,,,,,,,,,,,,,,,,,,,,,,,,,00033,001,2025-11-18_14h44.49.862,MST_task,2024.2.0,59.76911192065587,2025-11-18 14h45.07.956705 +0530,
2,practice_images/031a.jpg,1,1,1,f,None,,,1.673548100000005,0.1274699999999882,,,,,,,1,1,1,,,,63.5045619,,,,,,,,,,,,,,,,,,,,,,,63.48979080000001,63.5045619,63.98861840000001,64.00279660000001,64.0051407,64.0051407,64.0051407,66.98915630000002,f,66.98931340000001,,,66.9893812,None,,,64.0051407,67.0044212,67.0044212,67.0044212,1.673548100000005,0.1274699999999882,,,,,,,,,,,,,,,,,,,,,,,,,,,,,,,,,,,,00033,001,2025-11-18_14h44.49.862,MST_task,2024.2.0,59.76911192065587,2025-11-18 14h45.07.956705 +0530,
9,practice_images/180a.jpg,2,2,1,f,None,,,1.4836957999999925,0.10397979999999052,,,,,,,1,2,2,,,,67.0044212,,,,,,,,,,,,,,,,,,,,,,,66.9896584,67.0044212,67.48857530000001,67.5044662,67.5068742,67.5068742,67.5068742,70.504534,f,70.50457400000002,,,70.5045873,None,,,67.5068742,,,,1.4836957999999925,0.10397979999999052,,,,,,,,,,,,,,,,,,,,,,,,,,,,,,,,,,,,00033,001,2025-11-18_14h44.49.862,MST_task,2024.2.0,59.76911192065587,2025-11-18 14h45.07.956705 +0530,
10,practice_images/182a.jpg,3,3,1,f,None,,,2.0489592999999786,0.11225440000001186,,,,,,,1,3,3,,,,70.5207676,,,,,,,,,,,,,,,,,,,,,,,70.50465170000001,70.5207676,71.00436110000001,71.01225260000001,71.0211701,71.0211701,71.0211701,74.00472820000002,f,74.0047696,,,74.0047821,None,,,71.0211701,74.0207149,74.0207149,74.0207149,2.0489592999999786,0.11225440000001186,,,,,,,,,,,,,,,,,,,,,,,,,,,,,,,,,,,,00033,001,2025-11-18_14h44.49.862,MST_task,2024.2.0,59.76911192065587,2025-11-18 14h45.07.956705 +0530,
1,practice_images/013a.jpg,4,4,1,j,None,,,1.7573938000000169,0.13545259999997938,,,,,,,1,4,4,,,,74.0207149,,,,,,,,,,,,,,,,,,,,,,,74.0048438,74.0207149,74.5042623,74.5123939,74.5211242,74.5211242,74.5211242,77.50466850000001,j,77.50470390000001,,,77.50471590000001,None,,,74.5211242,77.5207428,77.5207428,77.5207428,1.7573938000000169,0.13545259999997938,,,,,,,,,,,,,,,,,,,,,,,,,,,,,,,,,,,,00033,001,2025-11-18_14h44.49.862,MST_task,2024.2.0,59.76911192065587,2025-11-18 14h45.07.956705 +0530,
7,practice_images/166a.jpg,5,5,1,None,f,1.0496096999999907,None,,,,,,,,,1,5,5,,,,77.5207428,,,,,,,,,,,,,,,,,,,,,,,77.5047778,77.5207428,78.0042995,78.0175609,78.02098040000001,78.02098040000001,78.02098040000001,81.00459470000001,None,81.00677010000001,81.0207652,81.0207652,82.07147120000002,f,1.0496096999999907,None,78.02098040000001,81.0207652,81.0207652,81.0207652,,,,,,,,,,,,,,,,,,,,,,,,,,,,,,,,,,,,,,00033,001,2025-11-18_14h44.49.862,MST_task,2024.2.0,59.76911192065587,2025-11-18 14h45.07.956705 +0530,
6,practice_images/158a.jpg,6,6,1,None,j,1.1548162999999931,None,,,,,,,,,1,6,6,,,,82.08758120000002,,,,,,,,,,,,,,,,,,,,,,,82.0715764,82.08758120000002,82.57104100000001,82.5795934,82.58768069999999,82.58768069999999,82.58768069999999,85.5722227,None,85.5723429,85.587548,85.587548,86.7562385,j,1.1548162999999931,None,82.58768069999999,85.587548,85.587548,85.587548,,,,,,,,,,,,,,,,,,,,,,,,,,,,,,,,,,,,,,00033,001,2025-11-18_14h44.49.862,MST_task,2024.2.0,59.76911192065587,2025-11-18 14h45.07.956705 +0530,
5,practice_images/139a.jpg,7,7,1,None,j,0.4620950999999991,None,,,,,,,,,1,7,7,,,,86.7709491,,,,,,,,,,,,,,,,,,,,,,,86.75662160000002,86.7709491,87.2555068,87.27086740000001,87.27314720000001,87.27314720000001,87.27314720000001,90.27183409999998,None,90.27195799999998,90.28761330000003,90.28761330000003,90.75530950000001,j,0.4620950999999991,None,87.27314720000001,,,,,,,,,,,,,,,,,,,,,,,,,,,,,,,,,,,,,,,,,00033,001,2025-11-18_14h44.49.862,MST_task,2024.2.0,59.76911192065587,2025-11-18 14h45.07.956705 +0530,
8,practice_images/178a.jpg,8,8,1,f,None,,,1.6437032000000045,0.09641260000000784,,,,,,,1,8,8,,,,90.77162220000002,,,,,,,,,,,,,,,,,,,,,,,90.755515,90.77162220000002,91.2555175,91.27190919999998,91.27420130000002,91.27420130000002,91.27420130000002,94.27148540000002,f,94.27163089999999,,,94.2716929,None,,,91.27420130000002,,,,1.6437032000000045,0.09641260000000784,,,,,,,,,,,,,,,,,,,,,,,,,,,,,,,,,,,,00033,001,2025-11-18_14h44.49.862,MST_task,2024.2.0,59.76911192065587,2025-11-18 14h45.07.956705 +0530,
3,practice_images/037a.jpg,9,9,1,None,f,0.6504881000000182,None,,,,,,,,,1,9,9,,,,94.28753690000002,,,,,,,,,,,,,,,,,,,,,,,94.27196650000002,94.28753690000002,94.77218970000001,94.790279,94.7925396,94.7925396,94.7925396,97.7881069,None,97.78839099999999,97.80432100000002,97.80432100000002,98.4568509,f,0.6504881000000182,None,94.7925396,,,,,,,,,,,,,,,,,,,,,,,,,,,,,,,,,,,,,,,,,00033,001,2025-11-18_14h44.49.862,MST_task,2024.2.0,59.76911192065587,2025-11-18 14h45.07.956705 +0530,
,,,,,,,,,,,,,,,,,,,,,,,,,,,,,,,,,,,,,,,,,,,,,,,,,,,,,,,,,,,,,,,,,,,,98.45708410000003,98.47150270000003,98.47150270000003,132.3893026,space,33.9026791,None,,,,,,,,,,,,,,,,,,,,,,,,,,,,,00033,001,2025-11-18_14h44.49.862,MST_task,2024.2.0,59.76911192065587,2025-11-18 14h45.07.956705 +0530,
,Objects\001a.jpg,0,0,1,,,,,,,f,1.8487577000000215,0.10438389999995934,None,,,,,,1,0,0,132.4041717,,,,,,,,,,,,,,,,,,,,,,,132.39130799999998,132.4041717,132.8888136,,,,,,,,,,,,,,132.9171602,,,,,,,,,,,,,132.91370469999998,132.9171602,132.9171602,132.9171602,135.90487560000003,shoe,f,1.8487577000000215,0.10438389999995934,135.91033670000002,135.9103659,None,,,,,,,,,,,,,,,,,00033,001,2025-11-18_14h44.49.862,MST_task,2024.2.0,59.76911192065587,2025-11-18 14h45.07.956705 +0530,
,Objects\372a.jpg,1,0,2,,,,,,,j,1.472054500000013,0.13523490000000038,None,,,,,,2,0,1,135.9208054,,,,,,,,,,,,,,,,,,,,,,,135.91048039999998,135.9208054,136.4051568,,,,,,,,,,,,,,136.42236100000002,,,,,,,,,,,,,136.4194435,136.42236100000002,136.42236100000002,136.42236100000002,139.4068193,shoe,j,1.472054500000013,0.13523490000000038,139.40699890000002,139.40706490000002,None,139.4209872,139.4209872,139.4209872,,,,,,,,,,,,,,00033,001,2025-11-18_14h44.49.862,MST_task,2024.2.0,59.76911192065587,2025-11-18 14h45.07.956705 +0530,
,Objects\376a.jpg,2,0,3,,,,,,,j,1.410587200000009,0.1447437999999579,None,,,,,,3,0,2,139.4209872,,,,,,,,,,,,,,,,,,,,,,,139.40734100000003,139.4209872,139.90545450000002,,,,,,,,,,,,,,139.9231813,,,,,,,,,,,,,139.9203341,139.9231813,139.9231813,139.9231813,142.9215079,shoe,j,1.410587200000009,0.1447437999999579,142.92193070000002,142.92200789999998,None,,,,,,,,,,,,,,,,,00033,001,2025-11-18_14h44.49.862,MST_task,2024.2.0,59.76911192065587,2025-11-18 14h45.07.956705 +0530,
,Objects\152a.jpg,3,0,4,,,,,,,f,1.2862258999999767,0.13521700000001147,None,,,,,,4,0,3,142.93751020000002,,,,,,,,,,,,,,,,,,,,,,,142.92228799999998,142.93751020000002,143.4220505,,,,,,,,,,,,,,143.44036319999998,,,,,,,,,,,,,143.4378089,143.44036319999998,143.44036319999998,143.44036319999998,146.4382493,shoe,f,1.2862258999999767,0.13521700000001147,146.4383927,146.4384453,None,,,,,,,,,,,,,,,,,00033,001,2025-11-18_14h44.49.862,MST_task,2024.2.0,59.76911192065587,2025-11-18 14h45.07.956705 +0530,
,Objects\186a.jpg,4,0,5,,,,,,,f,1.9719327000000249,0.14248589999999695,None,,,,,,5,0,4,146.4543132,,,,,,,,,,,,,,,,,,,,,,,146.4387929,146.4543132,146.93862210000003,,,,,,,,,,,,,,146.9556116,,,,,,,,,,,,,146.9531131,146.9556116,146.9556116,146.9556116,149.95493620000002,shoe,f,1.9719327000000249,0.14248589999999695,149.95510360000003,149.95519919999998,None,,,,,,,,,,,,,,,,,00033,001,2025-11-18_14h44.49.862,MST_task,2024.2.0,59.76911192065587,2025-11-18 14h45.07.956705 +0530,
,Objects\343a.jpg,5,0,6,,,,,,,f,1.3021979999999758,0.1439881000000014,None,,,,,,6,0,5,149.9710136,,,,,,,,,,,,,,,,,,,,,,,149.95549090000003,149.9710136,150.4544628,,,,,,,,,,,,,,150.47153980000002,,,,,,,,,,,,,150.4666193,150.47153980000002,150.47153980000002,150.47153980000002,153.4557805,shoe,f,1.3021979999999758,0.1439881000000014,153.45587670000003,153.45591230000002,None,153.4709401,153.4709401,153.4709401,,,,,,,,,,,,,,00033,001,2025-11-18_14h44.49.862,MST_task,2024.2.0,59.76911192065587,2025-11-18 14h45.07.956705 +0530,
,Objects\034a.jpg,6,0,7,,,,,,,f,0.9416382999999655,0.15953280000002223,None,,,,,,7,0,6,153.4709401,,,,,,,,,,,,,,,,,,,,,,,153.4561572,153.4709401,153.95522269999998,,,,,,,,,,,,,,153.97645690000002,,,,,,,,,,,,,153.97352310000002,153.97645690000002,153.97645690000002,153.97645690000002,156.97149330000002,shoe,f,0.9416382999999655,0.15953280000002223,156.97165719999998,156.97171000000003,None,,,,,,,,,,,,,,,,,00033,001,2025-11-18_14h44.49.862,MST_task,2024.2.0,59.76911192065587,2025-11-18 14h45.07.956705 +0530,
,Objects\143a.jpg,7,0,8,,,,,,,None,,,f,2.141886700000043,None,,,,8,0,7,156.9874878,,,,,,,,,,,,,,,,,,,,,,,156.9720325,156.9874878,157.47226410000002,,,,,,,,,,,,,,157.493653,,,,,,,,,,,,,157.49124390000003,157.493653,157.493653,157.493653,160.4880402,indoor,None,,,160.4923597,162.65460330000002,f,,,,160.50404600000002,160.50404600000002,2.141886700000043,None,,,,,,,,,,00033,001,2025-11-18_14h44.49.862,MST_task,2024.2.0,59.76911192065587,2025-11-18 14h45.07.956705 +0530,
,Objects\018a.jpg,8,0,9,,,,,,,j,1.5845211999999833,0.1756823000000054,None,,,,,,9,0,8,162.6710213,,,,,,,,,,,,,,,,,,,,,,,162.65469710000002,162.6710213,163.1547488,,,,,,,,,,,,,,,,,,,,,,,,,,,163.17098650000003,163.17347870000003,163.17347870000003,163.17347870000003,166.1548805,indoor,j,1.5845211999999833,0.1756823000000054,166.15509029999998,166.15515929999998,None,,,,,,,,,,,,,,,,,00033,001,2025-11-18_14h44.49.862,MST_task,2024.2.0,59.76911192065587,2025-11-18 14h45.07.956705 +0530,
,Objects\104a.jpg,9,0,10,,,,,,,f,2.5096307000000024,0.16001399999998966,None,,,,,,10,0,9,166.17099710000002,,,,,,,,,,,,,,,,,,,,,,,166.15546139999998,166.17099710000002,166.65563980000002,,,,,,,,,,,,,,166.67211430000003,,,,,,,,,,,,,166.6694256,166.67211430000003,166.67211430000003,166.67211430000003,169.65567570000002,indoor,f,2.5096307000000024,0.16001399999998966,169.6558663,169.65593,None,,,,,,,,,,,,,,,,,00033,001,2025-11-18_14h44.49.862,MST_task,2024.2.0,59.76911192065587,2025-11-18 14h45.07.956705 +0530,
,Objects\130a.jpg,10,0,11,,,,,,,f,1.2904465999999957,0.18386359999999513,None,,,,,,11,0,10,169.67113949999998,,,,,,,,,,,,,,,,,,,,,,,169.65620330000002,169.67113949999998,170.15530210000003,,,,,,,,,,,,,,170.17200830000002,,,,,,,,,,,,,170.16942540000002,170.17200830000002,170.17200830000002,170.17200830000002,173.1553894,indoor,f,1.2904465999999957,0.18386359999999513,173.1555022,173.1555361,None,173.171104,173.171104,173.171104,,,,,,,,,,,,,,00033,001,2025-11-18_14h44.49.862,MST_task,2024.2.0,59.76911192065587,2025-11-18 14h45.07.956705 +0530,
,Objects\263a.jpg,11,0,12,,,,,,,j,0.8312530999999694,0.18408390000001873,None,,,,,,12,0,11,173.171104,,,,,,,,,,,,,,,,,,,,,,,173.15568059999998,173.171104,173.65551700000003,,,,,,,,,,,,,,173.6787162,,,,,,,,,,,,,173.6756975,173.6787162,173.6787162,173.6787162,176.6716627,indoor,j,0.8312530999999694,0.18408390000001873,176.67183640000002,176.6719013,None,,,,,,,,,,,,,,,,,00033,001,2025-11-18_14h44.49.862,MST_task,2024.2.0,59.76911192065587,2025-11-18 14h45.07.956705 +0530,
,Objects\083a.jpg,12,0,13,,,,,,,f,1.591722700000048,0.1516570999999658,None,,,,,,13,0,12,176.6874317,,,,,,,,,,,,,,,,,,,,,,,176.67217620000002,176.6874317,177.17217090000003,,,,,,,,,,,,,,177.19037000000003,,,,,,,,,,,,,177.187525,177.19037000000003,177.19037000000003,177.19037000000003,180.1880933,indoor,f,1.591722700000048,0.1516570999999658,180.18828109999998,180.18834329999999,None,,,,,,,,,,,,,,,,,00033,001,2025-11-18_14h44.49.862,MST_task,2024.2.0,59.76911192065587,2025-11-18 14h45.07.956705 +0530,
,Objects\164a.jpg,13,0,14,,,,,,,j,1.0668354000000022,0.14426850000000968,None,,,,,,14,0,13,180.2044125,,,,,,,,,,,,,,,,,,,,,,,180.1886369,180.2044125,180.68853869999998,,,,,,,,,,,,,,180.70690080000003,,,,,,,,,,,,,180.7044383,180.70690080000003,180.70690080000003,180.70690080000003,183.7052076,indoor,j,1.0668354000000022,0.14426850000000968,183.7053801,183.7054802,None,,,,,,,,,,,,,,,,,00033,001,2025-11-18_14h44.49.862,MST_task,2024.2.0,59.76911192065587,2025-11-18 14h45.07.956705 +0530,
,Objects\325a.jpg,14,0,15,,,,,,,None,,,f,0.8483461000000148,None,,,,15,0,14,183.721045,,,,,,,,,,,,,,,,,,,,,,,183.7057865,183.721045,184.20522499999998,,,,,,,,,,,,,,184.22432830000002,,,,,,,,,,,,,184.22134950000003,184.22432830000002,184.22432830000002,184.22432830000002,187.22163749999999,shoe,None,,,187.22672720000003,188.0896876,f,,,,187.23747810000003,187.23747810000003,0.8483461000000148,None,,,,,,,,,,00033,001,2025-11-18_14h44.49.862,MST_task,2024.2.0,59.76911192065587,2025-11-18 14h45.07.956705 +0530,
,Objects\008a.jpg,15,0,16,,,,,,,f,0.9590559999999755,0.159910200000013,None,,,,,,16,0,15,188.10435540000003,,,,,,,,,,,,,,,,,,,,,,,188.09007990000003,188.10435540000003,188.5889232,,,,,,,,,,,,,,188.6074987,,,,,,,,,,,,,188.60449520000003,188.6074987,188.6074987,188.6074987,191.60503799999998,shoe,f,0.9590559999999755,0.159910200000013,191.6052093,191.6052722,None,,,,,,,,,,,,,,,,,00033,001,2025-11-18_14h44.49.862,MST_task,2024.2.0,59.76911192065587,2025-11-18 14h45.07.956705 +0530,
,Objects\006a.jpg,16,0,17,,,,,,,f,2.362588399999993,0.17515800000001036,None,,,,,,17,0,16,191.62100329999998,,,,,,,,,,,,,,,,,,,,,,,191.60570380000001,191.62100329999998,192.105566,,,,,,,,,,,,,,192.12412920000003,,,,,,,,,,,,,192.12150760000003,192.12412920000003,192.12412920000003,192.12412920000003,195.12202180000003,shoe,f,2.362588399999993,0.17515800000001036,195.12219320000003,195.1222477,None,,,,,,,,,,,,,,,,,00033,001,2025-11-18_14h44.49.862,MST_task,2024.2.0,59.76911192065587,2025-11-18 14h45.07.956705 +0530,
,Objects\051a.jpg,17,0,18,,,,,,,j,1.5122417000000041,0.16799689999999146,None,,,,,,18,0,17,195.13756360000002,,,,,,,,,,,,,,,,,,,,,,,195.1224967,195.13756360000002,195.6210008,,,,,,,,,,,,,,195.63773170000002,,,,,,,,,,,,,195.6298008,195.63773170000002,195.63773170000002,195.63773170000002,198.6217137,shoe,j,1.5122417000000041,0.16799689999999146,198.62176169999998,198.6217755,None,198.6374105,198.6374105,198.6374105,,,,,,,,,,,,,,00033,001,2025-11-18_14h44.49.862,MST_task,2024.2.0,59.76911192065587,2025-11-18 14h45.07.956705 +0530,
,Objects\024a.jpg,18,0,19,,,,,,,f,0.9559496999999624,0.1840177000000267,None,,,,,,19,0,18,198.6374105,,,,,,,,,,,,,,,,,,,,,,,198.62184130000003,198.6374105,199.12095420000003,,,,,,,,,,,,,,199.1380769,,,,,,,,,,,,,199.1354996,199.1380769,199.1380769,199.1380769,202.12147270000003,shoe,f,0.9559496999999624,0.1840177000000267,202.12151870000002,202.121531,None,202.1372867,202.1372867,202.1372867,,,,,,,,,,,,,,00033,001,2025-11-18_14h44.49.862,MST_task,2024.2.0,59.76911192065587,2025-11-18 14h45.07.956705 +0530,
,Objects\344a.jpg,19,0,20,,,,,,,j,1.1039804999999774,0.16795030000002953,None,,,,,,20,0,19,202.1372867,,,,,,,,,,,,,,,,,,,,,,,202.1216328,202.1372867,202.6209728,,,,,,,,,,,,,,202.63809320000001,,,,,,,,,,,,,202.6327961,202.63809320000001,202.63809320000001,202.63809320000001,205.62138140000002,shoe,j,1.1039804999999774,0.16795030000002953,205.62142219999998,205.6214346,None,205.6372735,205.6372735,205.6372735,,,,,,,,,,,,,,00033,001,2025-11-18_14h44.49.862,MST_task,2024.2.0,59.76911192065587,2025-11-18 14h45.07.956705 +0530,
,Objects\017a.jpg,20,0,21,,,,,,,None,,,f,3.757000699999992,None,,,,21,0,20,205.6372735,,,,,,,,,,,,,,,,,,,,,,,205.6214986,205.6372735,206.1209665,,,,,,,,,,,,,,206.1380438,,,,,,,,,,,,,206.13345529999998,206.1380438,206.1380438,206.1380438,209.12162669999998,shoe,None,,,209.1216683,212.90667209999998,f,209.13733380000002,209.13733380000002,209.13733380000002,209.13733380000002,209.13733380000002,3.757000699999992,None,,,,,,,,,,00033,001,2025-11-18_14h44.49.862,MST_task,2024.2.0,59.76911192065587,2025-11-18 14h45.07.956705 +0530,
,Objects\189a.jpg,21,0,22,,,,,,,j,1.2224734999999782,0.19978290000000243,None,,,,,,22,0,21,212.9210049,,,,,,,,,,,,,,,,,,,,,,,212.90705789999998,212.9210049,213.4055894,,,,,,,,,,,,,,213.42399060000002,,,,,,,,,,,,,213.4208618,213.42399060000002,213.42399060000002,213.42399060000002,216.42188950000002,indoor,j,1.2224734999999782,0.19978290000000243,216.4271867,216.4272206,None,,,,,,,,,,,,,,,,,00033,001,2025-11-18_14h44.49.862,MST_task,2024.2.0,59.76911192065587,2025-11-18 14h45.07.956705 +0530,
,Objects\311a.jpg,22,0,23,,,,,,,j,1.0796591000000149,0.14410850000001574,None,,,,,,23,0,22,216.4374095,,,,,,,,,,,,,,,,,,,,,,,216.4273708,216.4374095,216.9221907,,,,,,,,,,,,,,216.94269889999998,,,,,,,,,,,,,216.93992730000002,216.94269889999998,216.94269889999998,216.94269889999998,219.93805559999998,indoor,j,1.0796591000000149,0.14410850000001574,219.93820470000003,219.93823279999998,None,,,,,,,,,,,,,,,,,00033,001,2025-11-18_14h44.49.862,MST_task,2024.2.0,59.76911192065587,2025-11-18 14h45.07.956705 +0530,
,Objects\200a.jpg,23,0,24,,,,,,,f,2.0603768000000287,0.17618599999997286,None,,,,,,24,0,23,219.954249,,,,,,,,,,,,,,,,,,,,,,,219.9383598,219.954249,220.4386589,,,,,,,,,,,,,,220.4575471,,,,,,,,,,,,,220.45459750000003,220.4575471,220.4575471,220.4575471,223.4548661,indoor,f,2.0603768000000287,0.17618599999997286,223.4550287,223.4550888,None,,,,,,,,,,,,,,,,,00033,001,2025-11-18_14h44.49.862,MST_task,2024.2.0,59.76911192065587,2025-11-18 14h45.07.956705 +0530,
,Objects\221a.jpg,24,0,25,,,,,,,j,1.0910964000000263,0.17598719999995183,None,,,,,,25,0,24,223.47101229999998,,,,,,,,,,,,,,,,,,,,,,,223.4553815,223.47101229999998,223.9554389,,,,,,,,,,,,,,223.97142359999998,,,,,,,,,,,,,223.96850210000002,223.97142359999998,223.97142359999998,223.97142359999998,226.95657169999998,indoor,j,1.0910964000000263,0.17598719999995183,226.956751,226.95681610000003,None,226.97122310000003,226.97122310000003,226.97122310000003,,,,,,,,,,,,,,00033,001,2025-11-18_14h44.49.862,MST_task,2024.2.0,59.76911192065587,2025-11-18 14h45.07.956705 +0530,
,Objects\371a.jpg,25,0,26,,,,,,,j,0.7298050999999646,0.1683017000000291,None,,,,,,26,0,25,226.97122310000003,,,,,,,,,,,,,,,,,,,,,,,226.95710200000002,226.97122310000003,227.45561070000002,,,,,,,,,,,,,,227.4764315,,,,,,,,,,,,,227.47370920000003,227.4764315,227.4764315,227.4764315,230.47193750000002,indoor,j,0.7298050999999646,0.1683017000000291,230.47213870000002,230.4722061,None,,,,,,,,,,,,,,,,,00033,001,2025-11-18_14h44.49.862,MST_task,2024.2.0,59.76911192065587,2025-11-18 14h45.07.956705 +0530,
,Objects\366a.jpg,26,0,27,,,,,,,j,1.3732378999999924,0.14420730000000503,None,,,,,,27,0,26,230.4877973,,,,,,,,,,,,,,,,,,,,,,,230.4725004,230.4877973,230.9725525,,,,,,,,,,,,,,230.9930968,,,,,,,,,,,,,230.99021679999998,230.9930968,230.9930968,230.9930968,233.9885577,indoor,j,1.3732378999999924,0.14420730000000503,233.98883720000003,233.9889134,None,,,,,,,,,,,,,,,,,00033,001,2025-11-18_14h44.49.862,MST_task,2024.2.0,59.76911192065587,2025-11-18 14h45.07.956705 +0530,
,Objects\025a.jpg,27,0,28,,,,,,,j,0.8496850999999879,0.15251360000002023,None,,,,,,28,0,27,234.004684,,,,,,,,,,,,,,,,,,,,,,,233.98922070000003,234.004684,234.488743,,,,,,,,,,,,,,234.5083024,,,,,,,,,,,,,234.5058762,234.5083024,234.5083024,234.5083024,237.50518590000001,indoor,j,0.8496850999999879,0.15251360000002023,237.5053582,237.5054227,None,,,,,,,,,,,,,,,,,00033,001,2025-11-18_14h44.49.862,MST_task,2024.2.0,59.76911192065587,2025-11-18 14h45.07.956705 +0530,
,Objects\108a.jpg,28,0,29,,,,,,,j,1.0508633000000032,0.16037130000000843,None,,,,,,29,0,28,237.52111810000002,,,,,,,,,,,,,,,,,,,,,,,237.5057109,237.52111810000002,238.00589630000002,,,,,,,,,,,,,,238.027356,,,,,,,,,,,,,238.02474820000003,238.027356,238.027356,238.027356,241.02172460000003,shoe,j,1.0508633000000032,0.16037130000000843,241.0292005,241.02923470000002,None,,,,,,,,,,,,,,,,,00033,001,2025-11-18_14h44.49.862,MST_task,2024.2.0,59.76911192065587,2025-11-18 14h45.07.956705 +0530,
,Objects\133a.jpg,29,0,30,,,,,,,j,1.735952300000008,0.1996608999999694,None,,,,,,30,0,29,241.0373765,,,,,,,,,,,,,,,,,,,,,,,241.02942130000002,241.0373765,241.5226161,,,,,,,,,,,,,,241.5421083,,,,,,,,,,,,,241.53951010000003,241.5421083,241.5421083,241.5421083,244.5379668,shoe,j,1.735952300000008,0.1996608999999694,244.538116,244.5381474,None,,,,,,,,,,,,,,,,,00033,001,2025-11-18_14h44.49.862,MST_task,2024.2.0,59.76911192065587,2025-11-18 14h45.07.956705 +0530,
,Objects\065a.jpg,30,0,31,,,,,,,j,1.125053600000001,0.14453829999996515,None,,,,,,31,0,30,244.55421619999998,,,,,,,,,,,,,,,,,,,,,,,244.5382725,244.55421619999998,245.0383028,,,,,,,,,,,,,,245.05704459999998,,,,,,,,,,,,,245.05428690000002,245.05704459999998,245.05704459999998,245.05704459999998,248.0550295,shoe,j,1.125053600000001,0.14453829999996515,248.0555351,248.0556302,None,,,,,,,,,,,,,,,,,00033,001,2025-11-18_14h44.49.862,MST_task,2024.2.0,59.76911192065587,2025-11-18 14h45.07.956705 +0530,
,Objects\331a.jpg,31,0,32,,,,,,,j,1.8550465999999801,0.16097469999999703,None,,,,,,32,0,31,248.0713439,,,,,,,,,,,,,,,,,,,,,,,248.0560845,248.0713439,248.55528630000003,,,,,,,,,,,,,,248.5753957,,,,,,,,,,,,,248.5723524,248.5753957,248.5753957,248.5753957,251.5716033,shoe,j,1.8550465999999801,0.16097469999999703,251.57176850000002,251.57183150000003,None,,,,,,,,,,,,,,,,,00033,001,2025-11-18_14h44.49.862,MST_task,2024.2.0,59.76911192065587,2025-11-18 14h45.07.956705 +0530,
,Objects\355a.jpg,32,0,33,,,,,,,f,1.6892910000000256,0.17623969999999645,None,,,,,,33,0,32,251.58789610000002,,,,,,,,,,,,,,,,,,,,,,,251.5721266,251.58789610000002,252.07233460000003,,,,,,,,,,,,,,252.0929562,,,,,,,,,,,,,252.09014310000003,252.0929562,252.0929562,252.0929562,255.08839460000002,shoe,f,1.6892910000000256,0.17623969999999645,255.0885831,255.08864549999998,None,,,,,,,,,,,,,,,,,00033,001,2025-11-18_14h44.49.862,MST_task,2024.2.0,59.76911192065587,2025-11-18 14h45.07.956705 +0530,
,Objects\245a.jpg,33,0,34,,,,,,,f,1.1439842999999996,0.16849279999996725,None,,,,,,34,0,33,255.1043709,,,,,,,,,,,,,,,,,,,,,,,255.08893899999998,255.1043709,255.58884590000002,,,,,,,,,,,,,,255.60623370000002,,,,,,,,,,,,,255.60315730000002,255.60623370000002,255.60623370000002,255.60623370000002,258.60499400000003,shoe,f,1.1439842999999996,0.16849279999996725,258.6052181,258.6052857,None,,,,,,,,,,,,,,,,,00033,001,2025-11-18_14h44.49.862,MST_task,2024.2.0,59.76911192065587,2025-11-18 14h45.07.956705 +0530,
,Objects\183a.jpg,34,0,35,,,,,,,j,0.9195338999999763,0.16720240000000786,None,,,,,,35,0,34,258.6210371,,,,,,,,,,,,,,,,,,,,,,,258.6055811,258.6210371,259.1056778,,,,,,,,,,,,,,259.12792310000003,,,,,,,,,,,,,259.1252816,259.12792310000003,259.12792310000003,259.12792310000003,262.1218487,shoe,j,0.9195338999999763,0.16720240000000786,262.1220316,262.12209740000003,None,,,,,,,,,,,,,,,,,00033,001,2025-11-18_14h44.49.862,MST_task,2024.2.0,59.76911192065587,2025-11-18 14h45.07.956705 +0530,
,Objects\233a.jpg,35,0,36,,,,,,,j,1.3562481999999818,0.16772100000002865,None,,,,,,36,0,35,262.1375984,,,,,,,,,,,,,,,,,,,,,,,262.1225844,262.1375984,262.6223316,,,,,,,,,,,,,,262.642292,,,,,,,,,,,,,262.6392612,262.642292,262.642292,262.642292,265.63831700000003,indoor,j,1.3562481999999818,0.16772100000002865,265.6430906,265.6431267,None,,,,,,,,,,,,,,,,,00033,001,2025-11-18_14h44.49.862,MST_task,2024.2.0,59.76911192065587,2025-11-18 14h45.07.956705 +0530,
,Objects\230a.jpg,36,0,37,,,,,,,j,0.8907125999999721,0.17594600000001037,None,,,,,,37,0,36,265.6541442,,,,,,,,,,,,,,,,,,,,,,,265.643245,265.6541442,266.1396342,,,,,,,,,,,,,,266.1633503,,,,,,,,,,,,,266.1603942,266.1633503,266.1633503,266.1633503,269.1550443,indoor,j,0.8907125999999721,0.17594600000001037,269.1552167,269.1552779,None,,,,,,,,,,,,,,,,,00033,001,2025-11-18_14h44.49.862,MST_task,2024.2.0,59.76911192065587,2025-11-18 14h45.07.956705 +0530,
,Objects\280a.jpg,37,0,38,,,,,,,f,1.7466074999999819,0.15966120000001638,None,,,,,,38,0,37,269.171199,,,,,,,,,,,,,,,,,,,,,,,269.1555788,269.171199,269.6555275,,,,,,,,,,,,,,269.6761077,,,,,,,,,,,,,269.673255,269.6761077,269.6761077,269.6761077,272.6717475,indoor,f,1.7466074999999819,0.15966120000001638,272.6719269,272.6719886,None,,,,,,,,,,,,,,,,,00033,001,2025-11-18_14h44.49.862,MST_task,2024.2.0,59.76911192065587,2025-11-18 14h45.07.956705 +0530,
,Objects\064a.jpg,38,0,39,,,,,,,j,0.810198899999989,0.168110200000001,None,,,,,,39,0,38,272.6876119,,,,,,,,,,,,,,,,,,,,,,,272.6722829,272.6876119,273.1713414,,,,,,,,,,,,,,273.187767,,,,,,,,,,,,,273.1838337,273.187767,273.187767,273.187767,276.17242880000003,indoor,j,0.810198899999989,0.168110200000001,276.1725406,276.1725756,None,276.1875687,276.1875687,276.1875687,,,,,,,,,,,,,,00033,001,2025-11-18_14h44.49.862,MST_task,2024.2.0,59.76911192065587,2025-11-18 14h45.07.956705 +0530,
,Objects\225a.jpg,39,0,40,,,,,,,j,2.6903767000000016,0.16733489999995754,None,,,,,,40,0,39,276.1875687,,,,,,,,,,,,,,,,,,,,,,,276.1727831,276.1875687,276.6720809,,,,,,,,,,,,,,276.6922774,,,,,,,,,,,,,276.6897432,276.6922774,276.6922774,276.6922774,279.6883365,indoor,j,2.6903767000000016,0.16733489999995754,279.6885371,279.688617,None,,,,,,,,,,,,,,,,,00033,001,2025-11-18_14h44.49.862,MST_task,2024.2.0,59.76911192065587,2025-11-18 14h45.07.956705 +0530,
,Objects\142a.jpg,40,0,41,,,,,,,f,1.0217012000000523,0.18394759999995358,None,,,,,,41,0,40,279.7043771,,,,,,,,,,,,,,,,,,,,,,,279.6889101,279.7043771,280.1890062,,,,,,,,,,,,,,280.208907,,,,,,,,,,,,,280.2060751,280.208907,280.208907,280.208907,283.2051927,indoor,f,1.0217012000000523,0.18394759999995358,283.2053634,283.2054245,None,,,,,,,,,,,,,,,,,00033,001,2025-11-18_14h44.49.862,MST_task,2024.2.0,59.76911192065587,2025-11-18 14h45.07.956705 +0530,
,Objects\145a.jpg,41,0,42,,,,,,,f,1.9946858000000134,0.1835256999999615,None,,,,,,42,0,41,283.2212255,,,,,,,,,,,,,,,,,,,,,,,283.205714,283.2212255,283.7057328,,,,,,,,,,,,,,283.7241354,,,,,,,,,,,,,283.7212429,283.7241354,283.7241354,283.7241354,286.7219135,indoor,f,1.9946858000000134,0.1835256999999615,286.72208390000003,286.7221437,None,,,,,,,,,,,,,,,,,00033,001,2025-11-18_14h44.49.862,MST_task,2024.2.0,59.76911192065587,2025-11-18 14h45.07.956705 +0530,
,Objects\060a.jpg,42,0,43,,,,,,,j,1.786253400000021,0.15249739999995882,None,,,,,,43,0,42,286.7377919,,,,,,,,,,,,,,,,,,,,,,,286.7224363,286.7377919,287.2221851,,,,,,,,,,,,,,287.2434437,,,,,,,,,,,,,287.2406515,287.2434437,287.2434437,287.2434437,290.2383098,shoe,j,1.786253400000021,0.15249739999995882,290.2464844,290.2465594,None,,,,,,,,,,,,,,,,,00033,001,2025-11-18_14h44.49.862,MST_task,2024.2.0,59.76911192065587,2025-11-18 14h45.07.956705 +0530,
,Objects\027a.jpg,43,0,44,,,,,,,f,1.7079396999999972,0.16135159999998905,None,,,,,,44,0,43,290.2545364,,,,,,,,,,,,,,,,,,,,,,,290.2468786,290.2545364,290.7387934,,,,,,,,,,,,,,290.7620465,,,,,,,,,,,,,290.7592057,290.7620465,290.7620465,290.7620465,293.7551003,shoe,f,1.7079396999999972,0.16135159999998905,293.7553969,293.7554643,None,,,,,,,,,,,,,,,,,00033,001,2025-11-18_14h44.49.862,MST_task,2024.2.0,59.76911192065587,2025-11-18 14h45.07.956705 +0530,
,Objects\160a.jpg,44,0,45,,,,,,,f,2.0187998999999763,0.15139210000000958,None,,,,,,45,0,44,293.7711684,,,,,,,,,,,,,,,,,,,,,,,293.7557514,293.7711684,294.2557077,,,,,,,,,,,,,,294.2757882,,,,,,,,,,,,,294.2730813,294.2757882,294.2757882,294.2757882,297.2717608,shoe,f,2.0187998999999763,0.15139210000000958,297.27206440000003,297.2721236,None,,,,,,,,,,,,,,,,,00033,001,2025-11-18_14h44.49.862,MST_task,2024.2.0,59.76911192065587,2025-11-18 14h45.07.956705 +0530,
,Objects\264a.jpg,45,0,46,,,,,,,f,1.1451073000000065,0.14331390000000965,None,,,,,,46,0,45,297.2877896,,,,,,,,,,,,,,,,,,,,,,,297.2723949,297.2877896,297.7722556,,,,,,,,,,,,,,297.7893996,,,,,,,,,,,,,297.7860607,297.7893996,297.7893996,297.7893996,300.7883784,shoe,f,1.1451073000000065,0.14331390000000965,300.788543,300.7886036,None,,,,,,,,,,,,,,,,,00033,001,2025-11-18_14h44.49.862,MST_task,2024.2.0,59.76911192065587,2025-11-18 14h45.07.956705 +0530,
,Objects\231a.jpg,46,0,47,,,,,,,j,0.6740335000000073,0.15957769999999982,None,,,,,,47,0,46,300.8045516,,,,,,,,,,,,,,,,,,,,,,,300.7888836,300.8045516,301.28907580000003,,,,,,,,,,,,,,301.3085856,,,,,,,,,,,,,301.3056593,301.3085856,301.3085856,301.3085856,304.3051066,shoe,j,0.6740335000000073,0.15957769999999982,304.3052748,304.3053367,None,,,,,,,,,,,,,,,,,00033,001,2025-11-18_14h44.49.862,MST_task,2024.2.0,59.76911192065587,2025-11-18 14h45.07.956705 +0530,
,Objects\069a.jpg,47,0,48,,,,,,,j,0.7946384999999623,0.1760949000000096,None,,,,,,48,0,47,304.321244,,,,,,,,,,,,,,,,,,,,,,,304.30562630000003,304.321244,304.8060287,,,,,,,,,,,,,,304.8274315,,,,,,,,,,,,,304.8244524,304.8274315,304.8274315,304.8274315,307.8219176,shoe,j,0.7946384999999623,0.1760949000000096,307.8220912,307.822154,None,,,,,,,,,,,,,,,,,00033,001,2025-11-18_14h44.49.862,MST_task,2024.2.0,59.76911192065587,2025-11-18 14h45.07.956705 +0530,
,Objects\336a.jpg,48,0,49,,,,,,,f,0.9273581999999578,0.18365140000003066,None,,,,,,49,0,48,307.8377845,,,,,,,,,,,,,,,,,,,,,,,307.8225775,307.8377845,308.3223326,,,,,,,,,,,,,,308.3432571,,,,,,,,,,,,,308.3402828,308.3432571,308.3432571,308.3432571,311.3382974,shoe,f,0.9273581999999578,0.18365140000003066,311.3384617,311.3385454,None,,,,,,,,,,,,,,,,,00033,001,2025-11-18_14h44.49.862,MST_task,2024.2.0,59.76911192065587,2025-11-18 14h45.07.956705 +0530,
,Objects\023a.jpg,49,0,50,,,,,,,f,1.5780675999999971,0.1673364000000106,None,,,,,,50,0,49,311.3545114,,,,,,,,,,,,,,,,,,,,,,,311.33890660000003,311.3545114,311.838849,,,,,,,,,,,,,,311.8603747,,,,,,,,,,,,,311.8571584,311.8603747,311.8603747,311.8603747,314.8551638,indoor,f,1.5780675999999971,0.1673364000000106,314.86145600000003,314.8614784,None,,,,,,,,,,,,,,,,,00033,001,2025-11-18_14h44.49.862,MST_task,2024.2.0,59.76911192065587,2025-11-18 14h45.07.956705 +0530,
,Objects\161a.jpg,50,0,51,,,,,,,j,1.1435657000000106,0.19155180000001337,None,,,,,,51,0,50,314.871211,,,,,,,,,,,,,,,,,,,,,,,314.8615479,314.871211,315.3555507,,,,,,,,,,,,,,315.37496830000003,,,,,,,,,,,,,315.3723539,315.37496830000003,315.37496830000003,315.37496830000003,318.37167800000003,indoor,j,1.1435657000000106,0.19155180000001337,318.3718844,318.3719497,None,,,,,,,,,,,,,,,,,00033,001,2025-11-18_14h44.49.862,MST_task,2024.2.0,59.76911192065587,2025-11-18 14h45.07.956705 +0530,
,Objects\342a.jpg,51,0,52,,,,,,,f,2.6618480000000204,0.20021399999995992,None,,,,,,52,0,51,318.38762660000003,,,,,,,,,,,,,,,,,,,,,,,318.3722477,318.38762660000003,318.8725344,,,,,,,,,,,,,,318.8962748,,,,,,,,,,,,,318.8932352,318.8962748,318.8962748,318.8962748,321.8880989,indoor,f,2.6618480000000204,0.20021399999995992,321.8882646,321.8883267,None,,,,,,,,,,,,,,,,,00033,001,2025-11-18_14h44.49.862,MST_task,2024.2.0,59.76911192065587,2025-11-18 14h45.07.956705 +0530,
,Objects\192a.jpg,52,0,53,,,,,,,j,1.1064582999999857,0.19158099999998512,None,,,,,,53,0,52,321.9043772,,,,,,,,,,,,,,,,,,,,,,,321.8886627,321.9043772,322.3889598,,,,,,,,,,,,,,322.42811720000003,,,,,,,,,,,,,322.42508730000003,322.42811720000003,322.42811720000003,322.42811720000003,325.4050475,indoor,j,1.1064582999999857,0.19158099999998512,325.4051997,325.4052543,None,,,,,,,,,,,,,,,,,00033,001,2025-11-18_14h44.49.862,MST_task,2024.2.0,59.76911192065587,2025-11-18 14h45.07.956705 +0530,
,Objects\226a.jpg,53,0,54,,,,,,,f,0.9200137999999924,0.17584550000003674,None,,,,,,54,0,53,325.4210675,,,,,,,,,,,,,,,,,,,,,,,325.4055131,325.4210675,325.9057438,,,,,,,,,,,,,,325.9265755,,,,,,,,,,,,,325.9236752,325.9265755,325.9265755,325.9265755,328.9218747,indoor,f,0.9200137999999924,0.17584550000003674,328.9220676,328.9221284,None,,,,,,,,,,,,,,,,,00033,001,2025-11-18_14h44.49.862,MST_task,2024.2.0,59.76911192065587,2025-11-18 14h45.07.956705 +0530,
,Objects\040a.jpg,54,0,55,,,,,,,f,1.0522763000000168,0.183692399999984,None,,,,,,55,0,54,328.9376784,,,,,,,,,,,,,,,,,,,,,,,328.9224224,328.9376784,329.4225063,,,,,,,,,,,,,,329.4420723,,,,,,,,,,,,,329.4391227,329.4420723,329.4420723,329.4420723,332.43808590000003,indoor,f,1.0522763000000168,0.183692399999984,332.4382499,332.4383131,None,,,,,,,,,,,,,,,,,00033,001,2025-11-18_14h44.49.862,MST_task,2024.2.0,59.76911192065587,2025-11-18 14h45.07.956705 +0530,
,Objects\254a.jpg,55,0,56,,,,,,,j,0.7952357000000347,0.168104900000003,None,,,,,,56,0,55,332.4545921,,,,,,,,,,,,,,,,,,,,,,,332.43860490000003,332.4545921,332.9391598,,,,,,,,,,,,,,332.9627411,,,,,,,,,,,,,332.9597323,332.9627411,332.9627411,332.9627411,335.9550683,indoor,j,0.7952357000000347,0.168104900000003,335.9552223,335.9552775,None,,,,,,,,,,,,,,,,,00033,001,2025-11-18_14h44.49.862,MST_task,2024.2.0,59.76911192065587,2025-11-18 14h45.07.956705 +0530,
,Objects\304a.jpg,56,0,57,,,,,,,f,1.888605000000041,0.1757342999999878,None,,,,,,57,0,56,335.97116950000003,,,,,,,,,,,,,,,,,,,,,,,335.9555807,335.97116950000003,336.4555918,,,,,,,,,,,,,,336.4779078,,,,,,,,,,,,,336.474902,336.4779078,336.4779078,336.4779078,339.4719097,shoe,f,1.888605000000041,0.1757342999999878,339.4787745,339.4787943,None,,,,,,,,,,,,,,,,,00033,001,2025-11-18_14h44.49.862,MST_task,2024.2.0,59.76911192065587,2025-11-18 14h45.07.956705 +0530,
,Objects\004a.jpg,57,0,58,,,,,,,j,1.5730538999999908,0.1833192000000281,None,,,,,,58,0,57,339.4876348,,,,,,,,,,,,,,,,,,,,,,,339.4789024,339.4876348,339.9724645,,,,,,,,,,,,,,339.9934566,,,,,,,,,,,,,339.9905708,339.9934566,339.9934566,339.9934566,342.9881583,shoe,j,1.5730538999999908,0.1833192000000281,342.9883234,342.9883863,None,,,,,,,,,,,,,,,,,00033,001,2025-11-18_14h44.49.862,MST_task,2024.2.0,59.76911192065587,2025-11-18 14h45.07.956705 +0530,
,Objects\287a.jpg,58,0,59,,,,,,,f,0.8219568000000095,0.17595970000002126,None,,,,,,59,0,58,343.0043886,,,,,,,,,,,,,,,,,,,,,,,342.9886792,343.0043886,343.488696,,,,,,,,,,,,,,343.51285,,,,,,,,,,,,,343.5099498,343.51285,343.51285,343.51285,346.5049311,shoe,f,0.8219568000000095,0.17595970000002126,346.5050916,346.50515400000006,None,,,,,,,,,,,,,,,,,00033,001,2025-11-18_14h44.49.862,MST_task,2024.2.0,59.76911192065587,2025-11-18 14h45.07.956705 +0530,
,Objects\380a.jpg,59,0,60,,,,,,,j,1.1981710999999677,0.17533290000005763,None,,,,,,60,0,59,346.5211121,,,,,,,,,,,,,,,,,,,,,,,346.5054434,346.5211121,347.00538530000006,,,,,,,,,,,,,,347.02438429999995,,,,,,,,,,,,,347.0214777,347.02438429999995,347.02438429999995,347.02438429999995,350.02162150000004,shoe,j,1.1981710999999677,0.17533290000005763,350.0217801,350.0218437,None,,,,,,,,,,,,,,,,,00033,001,2025-11-18_14h44.49.862,MST_task,2024.2.0,59.76911192065587,2025-11-18 14h45.07.956705 +0530,
,Objects\128a.jpg,60,0,61,,,,,,,f,1.3172182999999222,0.19160050000004958,None,,,,,,61,0,60,350.0375258,,,,,,,,,,,,,,,,,,,,,,,350.02217170000006,350.0375258,350.5225772,,,,,,,,,,,,,,350.545116,,,,,,,,,,,,,350.5421781,350.545116,350.545116,350.545116,353.5382383,shoe,f,1.3172182999999222,0.19160050000004958,353.53842299999997,353.53848300000004,None,,,,,,,,,,,,,,,,,00033,001,2025-11-18_14h44.49.862,MST_task,2024.2.0,59.76911192065587,2025-11-18 14h45.07.956705 +0530,
,Objects\206a.jpg,61,0,62,,,,,,,j,0.8686916999999994,0.151778199999967,None,,,,,,62,0,61,353.5544952,,,,,,,,,,,,,,,,,,,,,,,353.5388134,353.5544952,354.0379908,,,,,,,,,,,,,,354.0579868,,,,,,,,,,,,,354.0550392,354.0579868,354.0579868,354.0579868,357.05458710000005,shoe,j,0.8686916999999994,0.151778199999967,357.05463710000004,357.0546507,None,,,,,,,,,,,,,,,,,00033,001,2025-11-18_14h44.49.862,MST_task,2024.2.0,59.76911192065587,2025-11-18 14h45.07.956705 +0530,
,Objects\211a.jpg,62,0,63,,,,,,,None,,,j,0.8751125999999658,None,,,,63,0,62,357.0709707,,,,,,,,,,,,,,,,,,,,,,,357.05472469999995,357.0709707,357.5548251,,,,,,,,,,,,,,,,,,,,,,,,,,,357.57423589999996,357.5774079,357.5774079,357.5774079,360.5552064,shoe,None,,,360.5552993,361.45676749999996,j,,,,360.5708787,360.5708787,0.8751125999999658,None,,,,,,,,,,00033,001,2025-11-18_14h44.49.862,MST_task,2024.2.0,59.76911192065587,2025-11-18 14h45.07.956705 +0530,
,Objects\076a.jpg,63,0,64,,,,,,,f,1.4611519000000044,0.1687230999999656,None,,,,,,64,0,63,361.47114999999997,,,,,,,,,,,,,,,,,,,,,,,361.45714940000005,361.47114999999997,361.955591,,,,,,,,,,,,,,361.97670919999996,,,,,,,,,,,,,361.9734177,361.97670919999996,361.97670919999996,361.97670919999996,364.97186750000003,indoor,f,1.4611519000000044,0.1687230999999656,364.97887319999995,364.9788916,None,,,,,,,,,,,,,,,,,00033,001,2025-11-18_14h44.49.862,MST_task,2024.2.0,59.76911192065587,2025-11-18 14h45.07.956705 +0530,
,Objects\249a.jpg,64,0,65,,,,,,,j,1.883707700000059,0.18318759999999656,None,,,,,,65,0,64,364.98775539999997,,,,,,,,,,,,,,,,,,,,,,,364.9789595,364.98775539999997,365.4725344,,,,,,,,,,,,,,365.49139060000005,,,,,,,,,,,,,365.48847910000006,365.49139060000005,365.49139060000005,365.49139060000005,368.4884283,indoor,j,1.883707700000059,0.18318759999999656,368.48859990000005,368.48866239999995,None,,,,,,,,,,,,,,,,,00033,001,2025-11-18_14h44.49.862,MST_task,2024.2.0,59.76911192065587,2025-11-18 14h45.07.956705 +0530,
,Objects\057a.jpg,65,0,66,,,,,,,f,1.0388269000000037,0.1840154999999868,None,,,,,,66,0,65,368.50477939999996,,,,,,,,,,,,,,,,,,,,,,,368.48895660000005,368.50477939999996,368.9888469,,,,,,,,,,,,,,369.01520170000003,,,,,,,,,,,,,369.0122163,369.01520170000003,369.01520170000003,369.01520170000003,372.0051039,indoor,f,1.0388269000000037,0.1840154999999868,372.00526620000005,372.00532929999997,None,,,,,,,,,,,,,,,,,00033,001,2025-11-18_14h44.49.862,MST_task,2024.2.0,59.76911192065587,2025-11-18 14h45.07.956705 +0530,
,Objects\384a.jpg,66,0,67,,,,,,,None,,,f,0.8291376999999329,None,,,,67,0,66,372.021168,,,,,,,,,,,,,,,,,,,,,,,372.00563810000006,372.021168,372.50581139999997,,,,,,,,,,,,,,372.527367,,,,,,,,,,,,,372.5247216,372.527367,372.527367,372.527367,375.5217103,indoor,None,,,375.5218648,376.37313630000006,f,,,,375.53761959999997,375.53761959999997,0.8291376999999329,None,,,,,,,,,,00033,001,2025-11-18_14h44.49.862,MST_task,2024.2.0,59.76911192065587,2025-11-18 14h45.07.956705 +0530,
,Objects\296a.jpg,67,0,68,,,,,,,f,1.4933813999999757,0.1273085999999921,None,,,,,,68,0,67,376.3875951,,,,,,,,,,,,,,,,,,,,,,,376.373461,376.3875951,376.8721558,,,,,,,,,,,,,,376.8893935,,,,,,,,,,,,,376.8863302,376.8893935,376.8893935,376.8893935,379.8886456,indoor,f,1.4933813999999757,0.1273085999999921,379.88883910000004,379.88890720000006,None,,,,,,,,,,,,,,,,,00033,001,2025-11-18_14h44.49.862,MST_task,2024.2.0,59.76911192065587,2025-11-18 14h45.07.956705 +0530,
,Objects\045a.jpg,68,0,69,,,,,,,j,0.7636845999999196,0.15279359999999542,None,,,,,,69,0,68,379.90441999999996,,,,,,,,,,,,,,,,,,,,,,,379.8892005,379.90441999999996,380.3887959,,,,,,,,,,,,,,380.4103169,,,,,,,,,,,,,380.4073869,380.4103169,380.4103169,380.4103169,383.4050624,indoor,j,0.7636845999999196,0.15279359999999542,383.4052392,383.40534049999997,None,,,,,,,,,,,,,,,,,00033,001,2025-11-18_14h44.49.862,MST_task,2024.2.0,59.76911192065587,2025-11-18 14h45.07.956705 +0530,
,Objects\308a.jpg,69,0,70,,,,,,,j,1.144580000000019,0.18362209999997958,None,,,,,,70,0,69,383.42105160000006,,,,,,,,,,,,,,,,,,,,,,,383.40564489999997,383.42105160000006,383.9056143,,,,,,,,,,,,,,383.9262731,,,,,,,,,,,,,383.92339060000006,383.9262731,383.9262731,383.9262731,386.92139929999996,indoor,j,1.144580000000019,0.18362209999997958,386.92151579999995,386.92155809999997,None,,,,,,,,,,,,,,,,,00033,001,2025-11-18_14h44.49.862,MST_task,2024.2.0,59.76911192065587,2025-11-18 14h45.07.956705 +0530,
,Objects\305a.jpg,70,0,71,,,,,,,f,2.528490799999986,0.22426199999995333,None,,,,,,71,0,70,386.93753890000005,,,,,,,,,,,,,,,,,,,,,,,386.92176919999997,386.93753890000005,387.42122889999996,,,,,,,,,,,,,,387.4377634,,,,,,,,,,,,,387.43335220000006,387.4377634,387.4377634,387.4377634,390.42199619999997,shoe,f,2.528490799999986,0.22426199999995333,390.4240849,390.4241025,None,390.43756270000006,390.43756270000006,390.43756270000006,,,,,,,,,,,,,,00033,001,2025-11-18_14h44.49.862,MST_task,2024.2.0,59.76911192065587,2025-11-18 14h45.07.956705 +0530,
,Objects\261a.jpg,71,0,72,,,,,,,f,0.7847083999999995,0.19266879999997855,None,,,,,,72,0,71,390.43756270000006,,,,,,,,,,,,,,,,,,,,,,,390.42416950000006,390.43756270000006,390.92186000000004,,,,,,,,,,,,,,390.9415921,,,,,,,,,,,,,390.938263,390.9415921,390.9415921,390.9415921,393.9382482,shoe,f,0.7847083999999995,0.19266879999997855,393.93871720000004,393.9387984,None,,,,,,,,,,,,,,,,,00033,001,2025-11-18_14h44.49.862,MST_task,2024.2.0,59.76911192065587,2025-11-18 14h45.07.956705 +0530,
,Objects\191a.jpg,72,0,73,,,,,,,None,,,f,0.15922669999997652,None,,,,73,0,72,393.95440840000003,,,,,,,,,,,,,,,,,,,,,,,393.9390992,393.95440840000003,394.4388447,,,,,,,,,,,,,,394.45759440000006,,,,,,,,,,,,,394.454558,394.45759440000006,394.45759440000006,394.45759440000006,397.4550643,shoe,None,,,397.45520969999995,397.63950239999997,f,,,,397.47112749999997,397.47112749999997,0.15922669999997652,None,,,,,,,,,,00033,001,2025-11-18_14h44.49.862,MST_task,2024.2.0,59.76911192065587,2025-11-18 14h45.07.956705 +0530,
,Objects\148a.jpg,73,0,74,,,,,,,None,,,f,1.130660799999987,None,,,,74,0,73,397.6544388,,,,,,,,,,,,,,,,,,,,,,,397.64000139999996,397.6544388,398.138874,,,,,,,,,,,,,,398.1615927,,,,,,,,,,,,,398.158815,398.1615927,398.1615927,398.1615927,401.15495910000004,shoe,None,,,401.1550853,402.3065792,f,,,,401.1713615,401.1713615,1.130660799999987,None,,,,,,,,,,00033,001,2025-11-18_14h44.49.862,MST_task,2024.2.0,59.76911192065587,2025-11-18 14h45.07.956705 +0530,
,Objects\162a.jpg,74,0,75,,,,,,,None,,,f,0.024161199999980454,None,,,,75,0,74,402.3213213,,,,,,,,,,,,,,,,,,,,,,,402.3069061,402.3213213,402.805793,,,,,,,,,,,,,,402.82487330000004,,,,,,,,,,,,,402.8221654,402.82487330000004,402.82487330000004,402.82487330000004,405.8217697,shoe,None,,,405.82191380000006,405.872161,f,,,,405.8378927,405.8378927,0.024161199999980454,None,,,,,,,,,,00033,001,2025-11-18_14h44.49.862,MST_task,2024.2.0,59.76911192065587,2025-11-18 14h45.07.956705 +0530,
,Objects\248a.jpg,75,0,76,,,,,,,f,0.8109373000000915,0.15213649999998324,None,,,,,,76,0,75,405.88783409999996,,,,,,,,,,,,,,,,,,,,,,,405.872349,405.88783409999996,406.3723648,,,,,,,,,,,,,,406.3954609,,,,,,,,,,,,,406.3922186,406.3954609,406.3954609,406.3954609,409.38837060000003,shoe,f,0.8109373000000915,0.15213649999998324,409.38853489999997,409.3885996,None,,,,,,,,,,,,,,,,,00033,001,2025-11-18_14h44.49.862,MST_task,2024.2.0,59.76911192065587,2025-11-18 14h45.07.956705 +0530,
,Objects\379a.jpg,76,0,77,,,,,,,j,0.7059004000000186,0.16070049999996172,None,,,,,,77,0,76,409.40457849999996,,,,,,,,,,,,,,,,,,,,,,,409.38888959999997,409.40457849999996,409.88887320000003,,,,,,,,,,,,,,409.90791450000006,,,,,,,,,,,,,409.9047015,409.90791450000006,409.90791450000006,409.90791450000006,412.90513669999996,shoe,j,0.7059004000000186,0.16070049999996172,412.9053034,412.90536340000006,None,,,,,,,,,,,,,,,,,00033,001,2025-11-18_14h44.49.862,MST_task,2024.2.0,59.76911192065587,2025-11-18 14h45.07.956705 +0530,
,Objects\242a.jpg,77,0,78,,,,,,,j,1.641127900000015,0.15946100000007846,None,,,,,,78,0,77,412.92126299999995,,,,,,,,,,,,,,,,,,,,,,,412.90577410000003,412.92126299999995,413.4055667,,,,,,,,,,,,,,413.4454994,,,,,,,,,,,,,413.44225240000003,413.4454994,413.4454994,413.4454994,416.42176589999997,indoor,j,1.641127900000015,0.15946100000007846,416.42692450000004,416.42695990000004,None,,,,,,,,,,,,,,,,,00033,001,2025-11-18_14h44.49.862,MST_task,2024.2.0,59.76911192065587,2025-11-18 14h45.07.956705 +0530,
,Objects\054a.jpg,78,0,79,,,,,,,j,0.984485100000029,0.2081206000000293,None,,,,,,79,0,78,416.4376218,,,,,,,,,,,,,,,,,,,,,,,416.4271125,416.4376218,416.92221689999997,,,,,,,,,,,,,,416.9419885,,,,,,,,,,,,,416.9392203,416.9419885,416.9419885,416.9419885,419.93831609999995,indoor,j,0.984485100000029,0.2081206000000293,419.9384923,419.93855340000005,None,,,,,,,,,,,,,,,,,00033,001,2025-11-18_14h44.49.862,MST_task,2024.2.0,59.76911192065587,2025-11-18 14h45.07.956705 +0530,
,Objects\253a.jpg,79,0,80,,,,,,,f,0.9788502000000108,0.16874119999999948,None,,,,,,80,0,79,419.95455920000006,,,,,,,,,,,,,,,,,,,,,,,419.9389043,419.95455920000006,420.4391498,,,,,,,,,,,,,,420.4590574,,,,,,,,,,,,,420.4563105,420.4590574,420.4590574,420.4590574,423.4551352,indoor,f,0.9788502000000108,0.16874119999999948,423.45530040000006,423.45536419999996,None,,,,,,,,,,,,,,,,,00033,001,2025-11-18_14h44.49.862,MST_task,2024.2.0,59.76911192065587,2025-11-18 14h45.07.956705 +0530,
,Objects\114a.jpg,80,0,81,,,,,,,None,,,j,1.4905300000000352,None,,,,81,0,80,423.47136839999996,,,,,,,,,,,,,,,,,,,,,,,423.45565669999996,423.47136839999996,423.9557052,,,,,,,,,,,,,,423.975063,,,,,,,,,,,,,423.9724539,423.975063,423.975063,423.975063,426.9717749,indoor,None,,,426.97191810000004,428.49004990000003,j,,,,426.9879194,426.9879194,1.4905300000000352,None,,,,,,,,,,00033,001,2025-11-18_14h44.49.862,MST_task,2024.2.0,59.76911192065587,2025-11-18 14h45.07.956705 +0530,
,Objects\179a.jpg,81,0,82,,,,,,,f,2.461579699999902,0.18351380000001427,None,,,,,,82,0,81,428.5044282,,,,,,,,,,,,,,,,,,,,,,,428.49041850000003,428.5044282,428.9890629,,,,,,,,,,,,,,429.00903459999995,,,,,,,,,,,,,429.00637889999996,429.00903459999995,429.00903459999995,429.00903459999995,432.0057193,indoor,f,2.461579699999902,0.18351380000001427,432.00593460000005,432.0060002,None,,,,,,,,,,,,,,,,,00033,001,2025-11-18_14h44.49.862,MST_task,2024.2.0,59.76911192065587,2025-11-18 14h45.07.956705 +0530,
,Objects\172a.jpg,82,0,83,,,,,,,j,0.753281099999981,0.1601763999999548,None,,,,,,83,0,82,432.02108069999997,,,,,,,,,,,,,,,,,,,,,,,432.00631540000006,432.02108069999997,432.50539590000005,,,,,,,,,,,,,,432.5252954,,,,,,,,,,,,,432.52266080000004,432.5252954,432.5252954,432.5252954,435.5218767,indoor,j,0.753281099999981,0.1601763999999548,435.5220418,435.52210249999996,None,,,,,,,,,,,,,,,,,00033,001,2025-11-18_14h44.49.862,MST_task,2024.2.0,59.76911192065587,2025-11-18 14h45.07.956705 +0530,
,Objects\227a.jpg,83,0,84,,,,,,,f,1.3778860999999551,0.15182630000003883,None,,,,,,84,0,83,435.53766900000005,,,,,,,,,,,,,,,,,,,,,,,435.52239199999997,435.53766900000005,436.0223942,,,,,,,,,,,,,,436.04423859999997,,,,,,,,,,,,,436.04157710000004,436.04423859999997,436.04423859999997,436.04423859999997,439.0379014,indoor,f,1.3778860999999551,0.15182630000003883,439.03799860000004,439.03803430000005,None,,,,,,,,,,,,,,,,,00033,001,2025-11-18_14h44.49.862,MST_task,2024.2.0,59.76911192065587,2025-11-18 14h45.07.956705 +0530,
,Objects\314a.jpg,84,0,85,,,,,,,f,2.3388748999999507,0.1764646999999968,None,,,,,,85,0,84,439.0545509,,,,,,,,,,,,,,,,,,,,,,,439.0381982,439.0545509,439.538956,,,,,,,,,,,,,,439.57897920000005,,,,,,,,,,,,,439.5757625,439.57897920000005,439.57897920000005,439.57897920000005,442.5383869,shoe,f,2.3388748999999507,0.1764646999999968,442.54482240000004,442.5448516,None,,,,,,,,,,,,,,,,,00033,001,2025-11-18_14h44.49.862,MST_task,2024.2.0,59.76911192065587,2025-11-18 14h45.07.956705 +0530,
,Objects\080a.jpg,85,0,86,,,,,,,f,0.8373871999999665,0.13580880000006346,None,,,,,,86,0,85,442.55424189999997,,,,,,,,,,,,,,,,,,,,,,,442.54495959999997,442.55424189999997,443.03799060000006,,,,,,,,,,,,,,443.05679169999996,,,,,,,,,,,,,443.05357200000003,443.05679169999996,443.05679169999996,443.05679169999996,446.05538350000006,shoe,f,0.8373871999999665,0.13580880000006346,446.05551249999996,446.0555581,None,,,,,,,,,,,,,,,,,00033,001,2025-11-18_14h44.49.862,MST_task,2024.2.0,59.76911192065587,2025-11-18 14h45.07.956705 +0530,
,Objects\090a.jpg,86,0,87,,,,,,,j,1.4868869000000586,0.18368939999993472,None,,,,,,87,0,86,446.07118260000004,,,,,,,,,,,,,,,,,,,,,,,446.0557817,446.07118260000004,446.55586100000005,,,,,,,,,,,,,,446.5759659,,,,,,,,,,,,,446.57318080000005,446.5759659,446.5759659,446.5759659,449.5716943,shoe,j,1.4868869000000586,0.18368939999993472,449.5718557,449.57191910000006,None,,,,,,,,,,,,,,,,,00033,001,2025-11-18_14h44.49.862,MST_task,2024.2.0,59.76911192065587,2025-11-18 14h45.07.956705 +0530,
,Objects\014a.jpg,87,0,88,,,,,,,f,0.8311125000000175,0.175177299999973,None,,,,,,88,0,87,449.58770960000004,,,,,,,,,,,,,,,,,,,,,,,449.57220359999997,449.58770960000004,450.07154760000003,,,,,,,,,,,,,,450.0878665,,,,,,,,,,,,,450.0832282,450.0878665,450.0878665,450.0878665,453.07368529999997,shoe,f,0.8311125000000175,0.175177299999973,453.07386340000005,453.0739261,None,453.08771650000006,453.08771650000006,453.08771650000006,,,,,,,,,,,,,,00033,001,2025-11-18_14h44.49.862,MST_task,2024.2.0,59.76911192065587,2025-11-18 14h45.07.956705 +0530,
,Objects\031a.jpg,88,0,89,,,,,,,j,2.710926400000062,0.1847582999999986,None,,,,,,89,0,88,453.08771650000006,,,,,,,,,,,,,,,,,,,,,,,453.0743671,453.08771650000006,453.5725095,,,,,,,,,,,,,,453.5910175,,,,,,,,,,,,,453.5884082,453.5910175,453.5910175,453.5910175,456.5881802,shoe,j,2.710926400000062,0.1847582999999986,456.58831729999997,456.5883679,None,,,,,,,,,,,,,,,,,00033,001,2025-11-18_14h44.49.862,MST_task,2024.2.0,59.76911192065587,2025-11-18 14h45.07.956705 +0530,
,Objects\219a.jpg,89,0,90,,,,,,,f,1.2743725000000268,0.19196959999999308,None,,,,,,90,0,89,456.60472100000004,,,,,,,,,,,,,,,,,,,,,,,456.5887454,456.60472100000004,457.0889155,,,,,,,,,,,,,,457.1076316,,,,,,,,,,,,,457.1049444,457.1076316,457.1076316,457.1076316,460.1049322,shoe,f,1.2743725000000268,0.19196959999999308,460.1051017,460.10515669999995,None,,,,,,,,,,,,,,,,,00033,001,2025-11-18_14h44.49.862,MST_task,2024.2.0,59.76911192065587,2025-11-18 14h45.07.956705 +0530,
,Objects\316a.jpg,90,0,91,,,,,,,f,1.7446815999999217,0.19951930000001994,None,,,,,,91,0,90,460.1210698,,,,,,,,,,,,,,,,,,,,,,,460.10540549999996,460.1210698,460.60482579999996,,,,,,,,,,,,,,460.62161460000004,,,,,,,,,,,,,460.61362940000004,460.62161460000004,460.62161460000004,460.62161460000004,463.60661200000004,shoe,f,1.7446815999999217,0.19951930000001994,463.60679630000004,463.60685880000005,None,463.62120419999997,463.62120419999997,463.62120419999997,,,,,,,,,,,,,,00033,001,2025-11-18_14h44.49.862,MST_task,2024.2.0,59.76911192065587,2025-11-18 14h45.07.956705 +0530,
,Objects\098a.jpg,91,0,92,,,,,,,f,2.4147934000000078,0.19271059999994122,None,,,,,,92,0,91,463.62120419999997,,,,,,,,,,,,,,,,,,,,,,,463.60713840000005,463.62120419999997,464.1055818,,,,,,,,,,,,,,464.1271673,,,,,,,,,,,,,464.1241232,464.1271673,464.1271673,464.1271673,467.12187389999997,indoor,f,2.4147934000000078,0.19271059999994122,467.12724390000005,467.1272794,None,,,,,,,,,,,,,,,,,00033,001,2025-11-18_14h44.49.862,MST_task,2024.2.0,59.76911192065587,2025-11-18 14h45.07.956705 +0530,
,Objects\361a.jpg,92,0,93,,,,,,,f,1.374479699999938,0.14448030000005474,None,,,,,,93,0,92,467.1374587,,,,,,,,,,,,,,,,,,,,,,,467.1274132,467.1374587,467.6216362,,,,,,,,,,,,,,467.6396741,,,,,,,,,,,,,467.6371222,467.6396741,467.6396741,467.6396741,470.63835100000006,indoor,f,1.374479699999938,0.14448030000005474,470.63858700000003,470.63864820000003,None,,,,,,,,,,,,,,,,,00033,001,2025-11-18_14h44.49.862,MST_task,2024.2.0,59.76911192065587,2025-11-18 14h45.07.956705 +0530,
,Objects\046a.jpg,93,0,94,,,,,,,f,1.9834786999999778,0.176446300000066,None,,,,,,94,0,93,470.6545608,,,,,,,,,,,,,,,,,,,,,,,470.63894300000004,470.6545608,471.1390764,,,,,,,,,,,,,,471.15881880000006,,,,,,,,,,,,,471.1561187,471.15881880000006,471.15881880000006,471.15881880000006,474.1551571,indoor,f,1.9834786999999778,0.176446300000066,474.1554211,474.15549139999996,None,,,,,,,,,,,,,,,,,00033,001,2025-11-18_14h44.49.862,MST_task,2024.2.0,59.76911192065587,2025-11-18 14h45.07.956705 +0530,
,Objects\357a.jpg,94,0,95,,,,,,,f,1.1468979999999647,0.159868299999971,None,,,,,,95,0,94,474.1712913,,,,,,,,,,,,,,,,,,,,,,,474.15577270000006,474.1712913,474.6559585,,,,,,,,,,,,,,474.6752987,,,,,,,,,,,,,474.67262619999997,474.6752987,474.6752987,474.6752987,477.67177790000005,indoor,f,1.1468979999999647,0.159868299999971,477.67191679999996,477.671965,None,,,,,,,,,,,,,,,,,00033,001,2025-11-18_14h44.49.862,MST_task,2024.2.0,59.76911192065587,2025-11-18 14h45.07.956705 +0530,
,Objects\348a.jpg,95,0,96,,,,,,,j,1.624799199999984,0.13484829999993053,None,,,,,,96,0,95,477.68762749999996,,,,,,,,,,,,,,,,,,,,,,,477.6721818,477.68762749999996,478.17225129999997,,,,,,,,,,,,,,478.1905657,,,,,,,,,,,,,478.18764780000004,478.1905657,478.1905657,478.1905657,481.1883064,indoor,j,1.624799199999984,0.13484829999993053,481.18848390000005,481.18854510000006,None,,,,,,,,,,,,,,,,,00033,001,2025-11-18_14h44.49.862,MST_task,2024.2.0,59.76911192065587,2025-11-18 14h45.07.956705 +0530,
,Objects\110a.jpg,96,0,97,,,,,,,None,,,j,1.317408099999966,None,,,,97,0,96,481.20442620000006,,,,,,,,,,,,,,,,,,,,,,,481.1888867,481.20442620000006,481.68918240000005,,,,,,,,,,,,,,481.70746080000004,,,,,,,,,,,,,481.704576,481.70746080000004,481.70746080000004,481.70746080000004,484.70505119999996,indoor,None,,,484.7051973,486.0546031,j,,,,484.72117349999996,484.72117349999996,1.317408099999966,None,,,,,,,,,,00033,001,2025-11-18_14h44.49.862,MST_task,2024.2.0,59.76911192065587,2025-11-18 14h45.07.956705 +0530,
,Objects\350a.jpg,97,0,98,,,,,,,j,1.5029396999999562,0.15978400000005877,None,,,,,,98,0,97,486.0709891,,,,,,,,,,,,,,,,,,,,,,,486.05468770000004,486.0709891,486.55564619999996,,,,,,,,,,,,,,486.57547020000004,,,,,,,,,,,,,486.57248430000004,486.57547020000004,486.57547020000004,486.57547020000004,489.55498550000004,indoor,j,1.5029396999999562,0.15978400000005877,489.55515520000006,489.55521899999997,None,,,,,,,,,,,,,,,,,00033,001,2025-11-18_14h44.49.862,MST_task,2024.2.0,59.76911192065587,2025-11-18 14h45.07.956705 +0530,
,Objects\236a.jpg,98,0,99,,,,,,,None,,,j,1.0944395000000213,None,,,,99,0,98,489.57113449999997,,,,,,,,,,,,,,,,,,,,,,,489.5555117,489.57113449999997,490.055206,,,,,,,,,,,,,,490.07818910000003,,,,,,,,,,,,,490.0750478,490.07818910000003,490.07818910000003,490.07818910000003,493.07129150000003,shoe,None,,,493.0739545,494.1893142,j,,,,493.0874526,493.0874526,1.0944395000000213,None,,,,,,,,,,00033,001,2025-11-18_14h44.49.862,MST_task,2024.2.0,59.76911192065587,2025-11-18 14h45.07.956705 +0530,
,Objects\144a.jpg,99,0,100,,,,,,,j,1.024821299999985,0.15187779999996565,None,,,,,,100,0,99,494.2044307,,,,,,,,,,,,,,,,,,,,,,,494.1895832,494.2044307,494.68907750000005,,,,,,,,,,,,,,494.70939480000004,,,,,,,,,,,,,494.70637899999997,494.70939480000004,494.70939480000004,494.70939480000004,497.70514190000006,shoe,j,1.024821299999985,0.15187779999996565,497.70536400000003,497.70542839999996,None,,,,,,,,,,,,,,,,,00033,001,2025-11-18_14h44.49.862,MST_task,2024.2.0,59.76911192065587,2025-11-18 14h45.07.956705 +0530,
,Objects\356a.jpg,100,0,101,,,,,,,f,1.4019289999999955,0.16023949999998877,None,,,,,,101,0,100,497.7212284,,,,,,,,,,,,,,,,,,,,,,,497.70585189999997,497.7212284,498.20546709999996,,,,,,,,,,,,,,498.2281543,,,,,,,,,,,,,498.22525310000003,498.2281543,498.2281543,498.2281543,501.2212502,shoe,f,1.4019289999999955,0.16023949999998877,501.2212949,501.2213074,None,,,,,,,,,,,,,,,,,00033,001,2025-11-18_14h44.49.862,MST_task,2024.2.0,59.76911192065587,2025-11-18 14h45.07.956705 +0530,
,Objects\273a.jpg,101,0,102,,,,,,,j,0.8815669999999045,0.1758038000000397,None,,,,,,102,0,101,501.23755900000003,,,,,,,,,,,,,,,,,,,,,,,501.22138270000005,501.23755900000003,501.7224053,,,,,,,,,,,,,,501.74139590000004,,,,,,,,,,,,,501.73856320000004,501.74139590000004,501.74139590000004,501.74139590000004,504.7220433,shoe,j,0.8815669999999045,0.1758038000000397,504.7222091,504.7222712,None,,,,,,,,,,,,,,,,,00033,001,2025-11-18_14h44.49.862,MST_task,2024.2.0,59.76911192065587,2025-11-18 14h45.07.956705 +0530,
,Objects\292a.jpg,102,0,103,,,,,,,f,1.1750997000000325,0.18429229999992458,None,,,,,,103,0,102,504.7376839,,,,,,,,,,,,,,,,,,,,,,,504.7225612,504.7376839,505.22225679999997,,,,,,,,,,,,,,505.23961799999995,,,,,,,,,,,,,505.2364232,505.23961799999995,505.23961799999995,505.23961799999995,508.2383373,shoe,f,1.1750997000000325,0.18429229999992458,508.23852380000005,508.23858600000005,None,,,,,,,,,,,,,,,,,00033,001,2025-11-18_14h44.49.862,MST_task,2024.2.0,59.76911192065587,2025-11-18 14h45.07.956705 +0530,
,Objects\062a.jpg,103,0,104,,,,,,,j,2.1672323000000233,0.17594040000005862,None,,,,,,104,0,103,508.25456429999997,,,,,,,,,,,,,,,,,,,,,,,508.2388711,508.25456429999997,508.73875569999996,,,,,,,,,,,,,,508.75927909999996,,,,,,,,,,,,,508.7564476,508.75927909999996,508.75927909999996,508.75927909999996,511.75516500000003,shoe,j,2.1672323000000233,0.17594040000005862,511.75532250000003,511.75541699999997,None,,,,,,,,,,,,,,,,,00033,001,2025-11-18_14h44.49.862,MST_task,2024.2.0,59.76911192065587,2025-11-18 14h45.07.956705 +0530,
,Objects\262a.jpg,104,0,105,,,,,,,f,1.2189560000000483,0.17553750000001855,None,,,,,,105,0,104,511.7711194,,,,,,,,,,,,,,,,,,,,,,,511.7556886,511.7711194,512.2558,,,,,,,,,,,,,,512.2758633,,,,,,,,,,,,,512.2729072,512.2758633,512.2758633,512.2758633,515.2718166,shoe,f,1.2189560000000483,0.17553750000001855,515.2719545,515.2720104,None,,,,,,,,,,,,,,,,,00033,001,2025-11-18_14h44.49.862,MST_task,2024.2.0,59.76911192065587,2025-11-18 14h45.07.956705 +0530,
,Objects\367a.jpg,105,0,106,,,,,,,j,1.4475491000000602,0.18388159999994969,None,,,,,,106,0,105,515.2877271,,,,,,,,,,,,,,,,,,,,,,,515.2722539,515.2877271,515.7725061,,,,,,,,,,,,,,515.790521,,,,,,,,,,,,,515.7875662,515.790521,515.790521,515.790521,518.7881595,indoor,j,1.4475491000000602,0.18388159999994969,518.7943879000001,518.7944069,None,,,,,,,,,,,,,,,,,00033,001,2025-11-18_14h44.49.862,MST_task,2024.2.0,59.76911192065587,2025-11-18 14h45.07.956705 +0530,
,Objects\333a.jpg,106,0,107,,,,,,,f,1.385708300000033,0.1673432000000048,None,,,,,,107,0,106,518.8043861,,,,,,,,,,,,,,,,,,,,,,,518.7944805,518.8043861,519.289162,,,,,,,,,,,,,,519.3090349,,,,,,,,,,,,,519.3060979,519.3090349,519.3090349,519.3090349,522.3050528,indoor,f,1.385708300000033,0.1673432000000048,522.3052186,522.3052778,None,,,,,,,,,,,,,,,,,00033,001,2025-11-18_14h44.49.862,MST_task,2024.2.0,59.76911192065587,2025-11-18 14h45.07.956705 +0530,
,Objects\205a.jpg,107,0,108,,,,,,,f,1.6508201999999983,0.15180279999992763,None,,,,,,108,0,107,522.3211256,,,,,,,,,,,,,,,,,,,,,,,522.3055658,522.3211256,522.8057645,,,,,,,,,,,,,,522.8272213,,,,,,,,,,,,,522.8241625,522.8272213,522.8272213,522.8272213,525.8218249,indoor,f,1.6508201999999983,0.15180279999992763,525.821986,525.8220489,None,,,,,,,,,,,,,,,,,00033,001,2025-11-18_14h44.49.862,MST_task,2024.2.0,59.76911192065587,2025-11-18 14h45.07.956705 +0530,
,Objects\299a.jpg,108,0,109,,,,,,,j,0.907859300000041,0.19184759999996004,None,,,,,,109,0,108,525.8378149,,,,,,,,,,,,,,,,,,,,,,,525.8223382,525.8378149,526.3214975,,,,,,,,,,,,,,526.3381258000001,,,,,,,,,,,,,526.3350714000001,526.3381258000001,526.3381258000001,526.3381258000001,529.32365,indoor,j,0.907859300000041,0.19184759999996004,529.3238354,529.3238999,None,529.3376322,529.3376322,529.3376322,,,,,,,,,,,,,,00033,001,2025-11-18_14h44.49.862,MST_task,2024.2.0,59.76911192065587,2025-11-18 14h45.07.956705 +0530,
,Objects\266a.jpg,109,0,110,,,,,,,None,,,f,0.9761168999999654,None,,,,110,0,109,529.3376322,,,,,,,,,,,,,,,,,,,,,,,529.324195,529.3376322,529.8226759,,,,,,,,,,,,,,529.8408483000001,,,,,,,,,,,,,529.8376453,529.8408483000001,529.8408483000001,529.8408483000001,532.8385441,indoor,None,,,532.8387239,533.8397609,f,,,,532.854563,532.854563,0.9761168999999654,None,,,,,,,,,,00033,001,2025-11-18_14h44.49.862,MST_task,2024.2.0,59.76911192065587,2025-11-18 14h45.07.956705 +0530,
,Objects\029a.jpg,110,0,111,,,,,,,f,1.4046346000000085,0.12903979999998683,None,,,,,,111,0,110,533.8544613,,,,,,,,,,,,,,,,,,,,,,,533.8401017,533.8544613,534.3382747,,,,,,,,,,,,,,534.3771505,,,,,,,,,,,,,534.3738948,534.3771505,534.3771505,534.3771505,537.3550843,indoor,f,1.4046346000000085,0.12903979999998683,537.3552496,537.3553077,None,,,,,,,,,,,,,,,,,00033,001,2025-11-18_14h44.49.862,MST_task,2024.2.0,59.76911192065587,2025-11-18 14h45.07.956705 +0530,
,Objects\187a.jpg,111,0,112,,,,,,,f,2.154313200000047,0.14345170000001417,None,,,,,,112,0,111,537.3713574,,,,,,,,,,,,,,,,,,,,,,,537.3555785,537.3713574,537.8556034,,,,,,,,,,,,,,537.8762738,,,,,,,,,,,,,537.8734562,537.8762738,537.8762738,537.8762738,540.8719575,indoor,f,2.154313200000047,0.14345170000001417,540.8721491,540.8722056,None,,,,,,,,,,,,,,,,,00033,001,2025-11-18_14h44.49.862,MST_task,2024.2.0,59.76911192065587,2025-11-18 14h45.07.956705 +0530,
,Objects\269a.jpg,112,0,113,,,,,,,f,2.08813269999996,0.1599416999999903,None,,,,,,113,0,112,540.8877357,,,,,,,,,,,,,,,,,,,,,,,540.8724578,540.8877357,541.3715137,,,,,,,,,,,,,,541.3905456,,,,,,,,,,,,,541.387418,541.3905456,541.3905456,541.3905456,544.3884412,shoe,f,2.08813269999996,0.1599416999999903,544.3949569,544.3949863,None,,,,,,,,,,,,,,,,,00033,001,2025-11-18_14h44.49.862,MST_task,2024.2.0,59.76911192065587,2025-11-18 14h45.07.956705 +0530,
,Objects\317a.jpg,113,0,114,,,,,,,j,0.8189346000000342,0.16052609999997003,None,,,,,,114,0,113,544.4043443,,,,,,,,,,,,,,,,,,,,,,,544.3951029,544.4043443,544.8888145,,,,,,,,,,,,,,544.9069597,,,,,,,,,,,,,544.9040678,544.9069597,544.9069597,544.9069597,547.9051785,shoe,j,0.8189346000000342,0.16052609999997003,547.9053265,547.9053817,None,,,,,,,,,,,,,,,,,00033,001,2025-11-18_14h44.49.862,MST_task,2024.2.0,59.76911192065587,2025-11-18 14h45.07.956705 +0530,
,Objects\324a.jpg,114,0,115,,,,,,,f,0.9739077000000407,0.16716029999997772,None,,,,,,115,0,114,547.9211806,,,,,,,,,,,,,,,,,,,,,,,547.9057707000001,547.9211806,548.4054785,,,,,,,,,,,,,,548.4249739,,,,,,,,,,,,,548.4220044,548.4249739,548.4249739,548.4249739,551.4217205,shoe,f,0.9739077000000407,0.16716029999997772,551.4218808,551.421943,None,,,,,,,,,,,,,,,,,00033,001,2025-11-18_14h44.49.862,MST_task,2024.2.0,59.76911192065587,2025-11-18 14h45.07.956705 +0530,
,Objects\140a.jpg,115,0,116,,,,,,,None,,,j,0.20336910000003172,None,,,,116,0,115,551.4376944,,,,,,,,,,,,,,,,,,,,,,,551.4223761,551.4376944,551.9225882,,,,,,,,,,,,,,551.9398658,,,,,,,,,,,,,551.9367908,551.9398658,551.9398658,551.9398658,554.9381245,shoe,None,,,554.938193,555.1734517,j,,,,554.9545424,554.9545424,0.20336910000003172,None,,,,,,,,,,00033,001,2025-11-18_14h44.49.862,MST_task,2024.2.0,59.76911192065587,2025-11-18 14h45.07.956705 +0530,
,Objects\218a.jpg,116,0,117,,,,,,,j,0.8747822000000269,0.15964530000007926,None,,,,,,117,0,116,555.1876039,,,,,,,,,,,,,,,,,,,,,,,555.1737626,555.1876039,555.6719375,,,,,,,,,,,,,,555.6919921,,,,,,,,,,,,,555.6890259,555.6919921,555.6919921,555.6919921,558.6882703,shoe,j,0.8747822000000269,0.15964530000007926,558.6885849,558.6886795,None,,,,,,,,,,,,,,,,,00033,001,2025-11-18_14h44.49.862,MST_task,2024.2.0,59.76911192065587,2025-11-18 14h45.07.956705 +0530,
,Objects\309a.jpg,117,0,118,,,,,,,f,2.3497330999999804,0.16922759999999926,None,,,,,,118,0,117,558.7044695,,,,,,,,,,,,,,,,,,,,,,,558.6891108,558.7044695,559.1886351,,,,,,,,,,,,,,559.2082592,,,,,,,,,,,,,559.2054121,559.2082592,559.2082592,559.2082592,562.2052085,shoe,f,2.3497330999999804,0.16922759999999926,562.2053806,562.2054442,None,,,,,,,,,,,,,,,,,00033,001,2025-11-18_14h44.49.862,MST_task,2024.2.0,59.76911192065587,2025-11-18 14h45.07.956705 +0530,
,Objects\241a.jpg,118,0,119,,,,,,,f,2.669760300000007,0.15169609999998102,None,,,,,,119,0,118,562.221107,,,,,,,,,,,,,,,,,,,,,,,562.2057323,562.221107,562.7053746,,,,,,,,,,,,,,562.7284952,,,,,,,,,,,,,562.725324,562.7284952,562.7284952,562.7284952,565.7218471,shoe,f,2.669760300000007,0.15169609999998102,565.7220005,565.7220573,None,,,,,,,,,,,,,,,,,00033,001,2025-11-18_14h44.49.862,MST_task,2024.2.0,59.76911192065587,2025-11-18 14h45.07.956705 +0530,
,Objects\258a.jpg,119,0,120,,,,,,,j,0.6376187000000755,0.14343719999999394,None,,,,,,120,0,119,565.7374256,,,,,,,,,,,,,,,,,,,,,,,565.722301,565.7374256,566.2224267,,,,,,,,,,,,,,566.2412734,,,,,,,,,,,,,566.2381914,566.2412734,566.2412734,566.2412734,569.2382038,indoor,j,0.6376187000000755,0.14343719999999394,569.2437289,569.2437667,None,,,,,,,,,,,,,,,,,00033,001,2025-11-18_14h44.49.862,MST_task,2024.2.0,59.76911192065587,2025-11-18 14h45.07.956705 +0530,
,Objects\209a.jpg,120,0,121,,,,,,,f,1.1908588999999665,0.1516734000000497,None,,,,,,121,0,120,569.2543109,,,,,,,,,,,,,,,,,,,,,,,569.2439064,569.2543109,569.7384953,,,,,,,,,,,,,,569.7596158,,,,,,,,,,,,,569.7563654,569.7596158,569.7596158,569.7596158,572.7553418,indoor,f,1.1908588999999665,0.1516734000000497,572.7554962,572.7555527,None,,,,,,,,,,,,,,,,,00033,001,2025-11-18_14h44.49.862,MST_task,2024.2.0,59.76911192065587,2025-11-18 14h45.07.956705 +0530,
,Objects\047a.jpg,121,0,122,,,,,,,f,1.15271759999996,0.15970640000000458,None,,,,,,122,0,121,572.7713065,,,,,,,,,,,,,,,,,,,,,,,572.7558184,572.7713065,573.2556376,,,,,,,,,,,,,,573.2779949,,,,,,,,,,,,,573.2750113,573.2779949,573.2779949,573.2779949,576.2718084,indoor,f,1.15271759999996,0.15970640000000458,576.2720559,576.2721127,None,,,,,,,,,,,,,,,,,00033,001,2025-11-18_14h44.49.862,MST_task,2024.2.0,59.76911192065587,2025-11-18 14h45.07.956705 +0530,
,Objects\122a.jpg,122,0,123,,,,,,,f,1.8558022000000847,0.19170039999994515,None,,,,,,123,0,122,576.2876637,,,,,,,,,,,,,,,,,,,,,,,576.2723773,576.2876637,576.7721163,,,,,,,,,,,,,,576.7911023,,,,,,,,,,,,,576.7884293,576.7911023,576.7911023,576.7911023,579.7882652,indoor,f,1.8558022000000847,0.19170039999994515,579.7884283,579.7884911,None,,,,,,,,,,,,,,,,,00033,001,2025-11-18_14h44.49.862,MST_task,2024.2.0,59.76911192065587,2025-11-18 14h45.07.956705 +0530,
,Objects\116a.jpg,123,0,124,,,,,,,None,,,j,0.7016399999999976,None,,,,124,0,123,579.8045026,,,,,,,,,,,,,,,,,,,,,,,579.7887803,579.8045026,580.289086,,,,,,,,,,,,,,580.3079291,,,,,,,,,,,,,580.3052856,580.3079291,580.3079291,580.3079291,583.3051017,indoor,None,,,583.3052716,584.0390068,j,,,,583.3211475,583.3211475,0.7016399999999976,None,,,,,,,,,,00033,001,2025-11-18_14h44.49.862,MST_task,2024.2.0,59.76911192065587,2025-11-18 14h45.07.956705 +0530,
,Objects\072a.jpg,124,0,125,,,,,,,f,1.315852599999971,0.15165760000002138,None,,,,,,125,0,124,584.0545045,,,,,,,,,,,,,,,,,,,,,,,584.0392507,584.0545045,584.5379833,,,,,,,,,,,,,,584.5546897,,,,,,,,,,,,,584.5486967,584.5546897,584.5546897,584.5546897,587.5399344,indoor,f,1.315852599999971,0.15165760000002138,587.5401092,587.5401706,None,587.5545221,587.5545221,587.5545221,,,,,,,,,,,,,,00033,001,2025-11-18_14h44.49.862,MST_task,2024.2.0,59.76911192065587,2025-11-18 14h45.07.956705 +0530,
,Objects\129a.jpg,125,0,126,,,,,,,f,2.6060902000000397,0.1681731999999556,None,,,,,,126,0,125,587.5545221,,,,,,,,,,,,,,,,,,,,,,,587.5404647,587.5545221,588.0385557,,,,,,,,,,,,,,588.0564204,,,,,,,,,,,,,588.0537205,588.0564204,588.0564204,588.0564204,591.0550387,indoor,f,2.6060902000000397,0.1681731999999556,591.0552399000001,591.0553023,None,,,,,,,,,,,,,,,,,00033,001,2025-11-18_14h44.49.862,MST_task,2024.2.0,59.76911192065587,2025-11-18 14h45.07.956705 +0530,
,Objects\123a.jpg,126,0,127,,,,,,,j,1.0153907000000117,0.11951129999999921,None,,,,,,127,0,126,591.0712126,,,,,,,,,,,,,,,,,,,,,,,591.0556007,591.0712126,591.5555488,,,,,,,,,,,,,,591.57541,,,,,,,,,,,,,591.5728238,591.57541,591.57541,591.57541,594.5716815,shoe,j,1.0153907000000117,0.11951129999999921,594.5780587,594.5780886,None,,,,,,,,,,,,,,,,,00033,001,2025-11-18_14h44.49.862,MST_task,2024.2.0,59.76911192065587,2025-11-18 14h45.07.956705 +0530,
,Objects\124a.jpg,127,0,128,,,,,,,j,0.7955874000000449,0.13638809999997648,None,,,,,,128,0,127,594.5876083,,,,,,,,,,,,,,,,,,,,,,,594.578198,594.5876083,595.0724492,,,,,,,,,,,,,,595.0906709,,,,,,,,,,,,,595.0879866,595.0906709,595.0906709,595.0906709,598.0882404,shoe,j,0.7955874000000449,0.13638809999997648,598.0884008,598.0884607,None,,,,,,,,,,,,,,,,,00033,001,2025-11-18_14h44.49.862,MST_task,2024.2.0,59.76911192065587,2025-11-18 14h45.07.956705 +0530,
,Objects\199a.jpg,128,0,129,,,,,,,f,1.5675463999999693,0.168305700000019,None,,,,,,129,0,128,598.1045586,,,,,,,,,,,,,,,,,,,,,,,598.0888674,598.1045586,598.5887353,,,,,,,,,,,,,,598.6066214,,,,,,,,,,,,,598.6036972,598.6066214,598.6066214,598.6066214,601.6051023,shoe,f,1.5675463999999693,0.168305700000019,601.6052972,601.6053723,None,,,,,,,,,,,,,,,,,00033,001,2025-11-18_14h44.49.862,MST_task,2024.2.0,59.76911192065587,2025-11-18 14h45.07.956705 +0530,
,Objects\038a.jpg,129,0,130,,,,,,,f,1.4329874999999674,0.14409999999998035,None,,,,,,130,0,129,601.621278,,,,,,,,,,,,,,,,,,,,,,,601.6056768,601.621278,602.1054943,,,,,,,,,,,,,,602.1250825,,,,,,,,,,,,,602.1221984,602.1250825,602.1250825,602.1250825,605.1217648,shoe,f,1.4329874999999674,0.14409999999998035,605.1219804,605.1220471,None,,,,,,,,,,,,,,,,,00033,001,2025-11-18_14h44.49.862,MST_task,2024.2.0,59.76911192065587,2025-11-18 14h45.07.956705 +0530,
,Objects\217a.jpg,130,0,131,,,,,,,j,0.9873249999999416,0.12839760000008482,None,,,,,,131,0,130,605.1377033,,,,,,,,,,,,,,,,,,,,,,,605.1224469,605.1377033,605.6224662,,,,,,,,,,,,,,605.6427625,,,,,,,,,,,,,605.639803,605.6427625,605.6427625,605.6427625,608.6383944,shoe,j,0.9873249999999416,0.12839760000008482,608.6385586,608.6386206,None,,,,,,,,,,,,,,,,,00033,001,2025-11-18_14h44.49.862,MST_task,2024.2.0,59.76911192065587,2025-11-18 14h45.07.956705 +0530,
,Objects\106a.jpg,131,0,132,,,,,,,f,1.6389948000000913,0.176529999999957,None,,,,,,132,0,131,608.6545063,,,,,,,,,,,,,,,,,,,,,,,608.6389545,608.6545063,609.1393989000001,,,,,,,,,,,,,,609.1591186,,,,,,,,,,,,,609.1560065,609.1591186,609.1591186,609.1591186,612.1551805,shoe,f,1.6389948000000913,0.176529999999957,612.1553361,612.1553931,None,,,,,,,,,,,,,,,,,00033,001,2025-11-18_14h44.49.862,MST_task,2024.2.0,59.76911192065587,2025-11-18 14h45.07.956705 +0530,
,Objects\070a.jpg,132,0,133,,,,,,,None,,,f,0.07085290000009081,None,,,,133,0,132,612.1711266,,,,,,,,,,,,,,,,,,,,,,,612.1557724,612.1711266,612.6556526,,,,,,,,,,,,,,612.6731781,,,,,,,,,,,,,612.6705706,612.6731781,612.6731781,612.6731781,615.6717726,shoe,None,,,615.6719242,615.7734345,f,,,,615.6878328,615.6878328,0.07085290000009081,None,,,,,,,,,,00033,001,2025-11-18_14h44.49.862,MST_task,2024.2.0,59.76911192065587,2025-11-18 14h45.07.956705 +0530,
,Objects\204a.jpg,133,0,134,,,,,,,j,0.9935143000000153,0.15930920000005244,None,,,,,,134,0,133,615.7876602,,,,,,,,,,,,,,,,,,,,,,,615.7737374,615.7876602,616.2721013,,,,,,,,,,,,,,616.2930690000001,,,,,,,,,,,,,616.2904110000001,616.2930690000001,616.2930690000001,616.2930690000001,619.2881403,indoor,j,0.9935143000000153,0.15930920000005244,619.2925696,619.2925991,None,,,,,,,,,,,,,,,,,00033,001,2025-11-18_14h44.49.862,MST_task,2024.2.0,59.76911192065587,2025-11-18 14h45.07.956705 +0530,
,Objects\188a.jpg,134,0,135,,,,,,,f,1.4791483999999855,0.1518773999999894,None,,,,,,135,0,134,619.304422,,,,,,,,,,,,,,,,,,,,,,,619.2927037000001,619.304422,619.7887789,,,,,,,,,,,,,,619.8074564,,,,,,,,,,,,,619.8049363,619.8074564,619.8074564,619.8074564,622.8051588,indoor,f,1.4791483999999855,0.1518773999999894,622.8053437,622.8054084,None,,,,,,,,,,,,,,,,,00033,001,2025-11-18_14h44.49.862,MST_task,2024.2.0,59.76911192065587,2025-11-18 14h45.07.956705 +0530,
,Objects\084a.jpg,135,0,136,,,,,,,f,2.517076799999927,0.13609550000001036,None,,,,,,136,0,135,622.8212501,,,,,,,,,,,,,,,,,,,,,,,622.8057034,622.8212501,623.3054008,,,,,,,,,,,,,,623.321296,,,,,,,,,,,,,623.3183502,623.321296,623.321296,623.321296,626.3063368,indoor,f,2.517076799999927,0.13609550000001036,626.3064962,626.3065513,None,626.3211316000001,626.3211316000001,626.3211316000001,,,,,,,,,,,,,,00033,001,2025-11-18_14h44.49.862,MST_task,2024.2.0,59.76911192065587,2025-11-18 14h45.07.956705 +0530,
,Objects\301a.jpg,136,0,137,,,,,,,f,1.4867227999999386,0.12021960000004128,None,,,,,,137,0,136,626.3211316000001,,,,,,,,,,,,,,,,,,,,,,,626.3068092,626.3211316000001,626.805374,,,,,,,,,,,,,,626.8235093,,,,,,,,,,,,,626.8210349,626.8235093,626.8235093,626.8235093,629.8217042,indoor,f,1.4867227999999386,0.12021960000004128,629.8220062,629.8220725,None,,,,,,,,,,,,,,,,,00033,001,2025-11-18_14h44.49.862,MST_task,2024.2.0,59.76911192065587,2025-11-18 14h45.07.956705 +0530,
,Objects\353a.jpg,137,0,138,,,,,,,f,0.9452485000000479,0.1600379999999859,None,,,,,,138,0,137,629.8376946,,,,,,,,,,,,,,,,,,,,,,,629.8223644,629.8376946,630.3222829,,,,,,,,,,,,,,630.3408141,,,,,,,,,,,,,630.337876,630.3408141,630.3408141,630.3408141,633.3386257,indoor,f,0.9452485000000479,0.1600379999999859,633.3387772,633.3388332,None,,,,,,,,,,,,,,,,,00033,001,2025-11-18_14h44.49.862,MST_task,2024.2.0,59.76911192065587,2025-11-18 14h45.07.956705 +0530,
,Objects\013a.jpg,138,0,139,,,,,,,j,1.2896577999999863,0.1684927000000016,None,,,,,,139,0,138,633.3546889,,,,,,,,,,,,,,,,,,,,,,,633.3390899,633.3546889,633.8388465,,,,,,,,,,,,,,633.8604305,,,,,,,,,,,,,633.8575728,633.8604305,633.8604305,633.8604305,636.8552233,indoor,j,1.2896577999999863,0.1684927000000016,636.8554014,636.8554683,None,,,,,,,,,,,,,,,,,00033,001,2025-11-18_14h44.49.862,MST_task,2024.2.0,59.76911192065587,2025-11-18 14h45.07.956705 +0530,
,Objects\138a.jpg,139,0,140,,,,,,,j,0.9255865000000085,0.13513699999998607,None,,,,,,140,0,139,636.8711569,,,,,,,,,,,,,,,,,,,,,,,636.8557995,636.8711569,637.3557865,,,,,,,,,,,,,,637.37783,,,,,,,,,,,,,637.3748994,637.37783,637.37783,637.37783,640.3718933,indoor,j,0.9255865000000085,0.13513699999998607,640.3721617,640.3722248,None,,,,,,,,,,,,,,,,,00033,001,2025-11-18_14h44.49.862,MST_task,2024.2.0,59.76911192065587,2025-11-18 14h45.07.956705 +0530,
,Objects\053a.jpg,140,0,141,,,,,,,f,1.0019594999999981,0.16718339999999898,None,,,,,,141,0,140,640.3877306,,,,,,,,,,,,,,,,,,,,,,,640.3725176,640.3877306,640.8723359,,,,,,,,,,,,,,640.8927884,,,,,,,,,,,,,640.8900595,640.8927884,640.8927884,640.8927884,643.8886481,shoe,f,1.0019594999999981,0.16718339999999898,643.8950598,643.8950881,None,,,,,,,,,,,,,,,,,00033,001,2025-11-18_14h44.49.862,MST_task,2024.2.0,59.76911192065587,2025-11-18 14h45.07.956705 +0530,
,Objects\335a.jpg,141,0,142,,,,,,,j,2.020086699999979,0.15919380000002548,None,,,,,,142,0,141,643.9043908,,,,,,,,,,,,,,,,,,,,,,,643.8952332,643.9043908,644.389179,,,,,,,,,,,,,,644.4107123,,,,,,,,,,,,,644.4078098,644.4107123,644.4107123,644.4107123,647.4053528000001,shoe,j,2.020086699999979,0.15919380000002548,647.405514,647.4055749,None,,,,,,,,,,,,,,,,,00033,001,2025-11-18_14h44.49.862,MST_task,2024.2.0,59.76911192065587,2025-11-18 14h45.07.956705 +0530,
,Objects\267a.jpg,142,0,143,,,,,,,j,0.8414635999999973,0.11955890000001546,None,,,,,,143,0,142,647.4213103,,,,,,,,,,,,,,,,,,,,,,,647.4059878,647.4213103,647.9059139,,,,,,,,,,,,,,647.9248803,,,,,,,,,,,,,647.9219342,647.9248803,647.9248803,647.9248803,650.9218632,shoe,j,0.8414635999999973,0.11955890000001546,650.9221713000001,650.9222646000001,None,,,,,,,,,,,,,,,,,00033,001,2025-11-18_14h44.49.862,MST_task,2024.2.0,59.76911192065587,2025-11-18 14h45.07.956705 +0530,
,Objects\276a.jpg,143,0,144,,,,,,,f,1.1549986999999646,0.1284765000000334,None,,,,,,144,0,143,650.9379193,,,,,,,,,,,,,,,,,,,,,,,650.9227096,650.9379193,651.4229108,,,,,,,,,,,,,,651.4429153,,,,,,,,,,,,,651.4398561,651.4429153,651.4429153,651.4429153,654.4380956,shoe,f,1.1549986999999646,0.1284765000000334,654.438156,654.4381696,None,,,,,,,,,,,,,,,,,00033,001,2025-11-18_14h44.49.862,MST_task,2024.2.0,59.76911192065587,2025-11-18 14h45.07.956705 +0530,
,Objects\091a.jpg,144,0,145,,,,,,,j,1.3400620000001027,0.15998679999995602,None,,,,,,145,0,144,654.4544571,,,,,,,,,,,,,,,,,,,,,,,654.4382442,654.4544571,654.9379372,,,,,,,,,,,,,,654.9547419,,,,,,,,,,,,,654.9457351,654.9547419,654.9547419,654.9547419,657.938025,shoe,j,1.3400620000001027,0.15998679999995602,657.938069,657.9380816,None,657.9542014,657.9542014,657.9542014,,,,,,,,,,,,,,00033,001,2025-11-18_14h44.49.862,MST_task,2024.2.0,59.76911192065587,2025-11-18 14h45.07.956705 +0530,
,Objects\197a.jpg,145,0,146,,,,,,,j,0.6313895999999204,0.12020019999999931,None,,,,,,146,0,145,657.9542014,,,,,,,,,,,,,,,,,,,,,,,657.9381813,657.9542014,658.4385594,,,,,,,,,,,,,,658.4547295,,,,,,,,,,,,,658.4445681,658.4547295,658.4547295,658.4547295,661.4380143,shoe,j,0.6313895999999204,0.12020019999999931,661.4380589,661.4380726,None,661.4542397,661.4542397,661.4542397,,,,,,,,,,,,,,00033,001,2025-11-18_14h44.49.862,MST_task,2024.2.0,59.76911192065587,2025-11-18 14h45.07.956705 +0530,
,Objects\290a.jpg,146,0,147,,,,,,,j,1.0829629999999497,0.13612770000008823,None,,,,,,147,0,146,661.4542397,,,,,,,,,,,,,,,,,,,,,,,661.4381744,661.4542397,661.9378988,,,,,,,,,,,,,,661.955148,,,,,,,,,,,,,661.9414752,661.955148,661.955148,661.955148,664.9381679,shoe,j,1.0829629999999497,0.13612770000008823,664.93825,664.9382721000001,None,,,,,,,,,,,,,,,,,00033,001,2025-11-18_14h44.49.862,MST_task,2024.2.0,59.76911192065587,2025-11-18 14h45.07.956705 +0530,
,Objects\002a.jpg,147,0,148,,,,,,,None,,,f,1.600835200000006,None,,,,148,0,147,664.9543046,,,,,,,,,,,,,,,,,,,,,,,664.9383547,664.9543046,665.4379905,,,,,,,,,,,,,,665.4550745,,,,,,,,,,,,,665.4452906,665.4550745,665.4550745,665.4550745,668.4384134000001,indoor,None,,,668.440554,670.056763,f,668.4542984,668.4542984,668.4542984,668.4542984,668.4542984,1.600835200000006,None,,,,,,,,,,00033,001,2025-11-18_14h44.49.862,MST_task,2024.2.0,59.76911192065587,2025-11-18 14h45.07.956705 +0530,
,Objects\260a.jpg,148,0,149,,,,,,,f,2.2966182999999774,0.1677713000000267,None,,,,,,149,0,148,670.0712475,,,,,,,,,,,,,,,,,,,,,,,670.0570669,670.0712475,670.5556655,,,,,,,,,,,,,,670.5738854,,,,,,,,,,,,,670.5708261,670.5738854,670.5738854,670.5738854,673.5718832,indoor,f,2.2966182999999774,0.1677713000000267,673.5720461,673.5721081,None,,,,,,,,,,,,,,,,,00033,001,2025-11-18_14h44.49.862,MST_task,2024.2.0,59.76911192065587,2025-11-18 14h45.07.956705 +0530,
,Objects\099a.jpg,149,0,150,,,,,,,j,1.5198474000000033,0.1359375000000682,None,,,,,,150,0,149,673.5877521,,,,,,,,,,,,,,,,,,,,,,,673.5724047,673.5877521,674.0723691000001,,,,,,,,,,,,,,674.0940831,,,,,,,,,,,,,674.0908704,674.0940831,674.0940831,674.0940831,677.0882949,indoor,j,1.5198474000000033,0.1359375000000682,677.0884452,677.088496,None,,,,,,,,,,,,,,,,,00033,001,2025-11-18_14h44.49.862,MST_task,2024.2.0,59.76911192065587,2025-11-18 14h45.07.956705 +0530,
,Objects\212a.jpg,150,0,151,,,,,,,j,0.8280720000000201,0.16818580000006023,None,,,,,,151,0,150,677.1045654,,,,,,,,,,,,,,,,,,,,,,,677.0887426,677.1045654,677.5888895,,,,,,,,,,,,,,677.6099246,,,,,,,,,,,,,677.6067826,677.6099246,677.6099246,677.6099246,680.6050001,indoor,j,0.8280720000000201,0.16818580000006023,680.6051507,680.6052066,None,,,,,,,,,,,,,,,,,00033,001,2025-11-18_14h44.49.862,MST_task,2024.2.0,59.76911192065587,2025-11-18 14h45.07.956705 +0530,
,Objects\268a.jpg,151,0,152,,,,,,,f,1.7699858999999378,0.11128640000003998,None,,,,,,152,0,151,680.6211745,,,,,,,,,,,,,,,,,,,,,,,680.6054717,680.6211745,681.1061746,,,,,,,,,,,,,,681.1247409,,,,,,,,,,,,,681.1216804000001,681.1247409,681.1247409,681.1247409,684.121841,indoor,f,1.7699858999999378,0.11128640000003998,684.1220331,684.122104,None,,,,,,,,,,,,,,,,,00033,001,2025-11-18_14h44.49.862,MST_task,2024.2.0,59.76911192065587,2025-11-18 14h45.07.956705 +0530,
,Objects\255a.jpg,152,0,153,,,,,,,f,2.65111289999993,0.17574200000001383,None,,,,,,153,0,152,684.1378336,,,,,,,,,,,,,,,,,,,,,,,684.1224469,684.1378336,684.6222396000001,,,,,,,,,,,,,,684.6435138,,,,,,,,,,,,,684.6406328,684.6435138,684.6435138,684.6435138,687.6383031,indoor,f,2.65111289999993,0.17574200000001383,687.6384673,687.6385283,None,,,,,,,,,,,,,,,,,00033,001,2025-11-18_14h44.49.862,MST_task,2024.2.0,59.76911192065587,2025-11-18 14h45.07.956705 +0530,
,Objects\155a.jpg,153,0,154,,,,,,,f,0.8755022000000281,0.1517557999999326,None,,,,,,154,0,153,687.6546329,,,,,,,,,,,,,,,,,,,,,,,687.6388327,687.6546329,688.1389666,,,,,,,,,,,,,,688.1551164,,,,,,,,,,,,,688.1515153,688.1551164,688.1551164,688.1551164,691.1395205,indoor,f,0.8755022000000281,0.1517557999999326,691.1396789,691.1397306,None,691.154644,691.154644,691.154644,,,,,,,,,,,,,,00033,001,2025-11-18_14h44.49.862,MST_task,2024.2.0,59.76911192065587,2025-11-18 14h45.07.956705 +0530,
,Objects\289a.jpg,154,0,155,,,,,,,f,2.107170500000052,0.1766132000000198,None,,,,,,155,0,154,691.154644,,,,,,,,,,,,,,,,,,,,,,,691.1399676,691.154644,691.6386847,,,,,,,,,,,,,,691.666811,,,,,,,,,,,,,691.6637568,691.666811,691.666811,691.666811,694.6553269,shoe,f,2.107170500000052,0.1766132000000198,694.6627027,694.6627201,None,,,,,,,,,,,,,,,,,00033,001,2025-11-18_14h44.49.862,MST_task,2024.2.0,59.76911192065587,2025-11-18 14h45.07.956705 +0530,
,Objects\313a.jpg,155,0,156,,,,,,,j,2.6147494000000506,0.1518525999999838,None,,,,,,156,0,155,694.6711125,,,,,,,,,,,,,,,,,,,,,,,694.6627983,694.6711125,695.1558406,,,,,,,,,,,,,,695.1755255,,,,,,,,,,,,,695.1725854,695.1755255,695.1755255,695.1755255,698.1720862,shoe,j,2.6147494000000506,0.1518525999999838,698.1722654,698.1723265,None,,,,,,,,,,,,,,,,,00033,001,2025-11-18_14h44.49.862,MST_task,2024.2.0,59.76911192065587,2025-11-18 14h45.07.956705 +0530,
,Objects\215a.jpg,156,0,157,,,,,,,f,0.8199909999999591,0.16762960000005478,None,,,,,,157,0,156,698.1878825,,,,,,,,,,,,,,,,,,,,,,,698.1726216,698.1878825,698.6728417,,,,,,,,,,,,,,698.6910332,,,,,,,,,,,,,698.6885044,698.6910332,698.6910332,698.6910332,701.6883114,shoe,f,0.8199909999999591,0.16762960000005478,701.6884749,701.6885368,None,,,,,,,,,,,,,,,,,00033,001,2025-11-18_14h44.49.862,MST_task,2024.2.0,59.76911192065587,2025-11-18 14h45.07.956705 +0530,
,Objects\307a.jpg,157,0,158,,,,,,,j,0.7488084000000299,0.15954939999994622,None,,,,,,158,0,157,701.7046277000001,,,,,,,,,,,,,,,,,,,,,,,701.6888288,701.7046277000001,702.1889941000001,,,,,,,,,,,,,,702.2097174,,,,,,,,,,,,,702.2071661,702.2097174,702.2097174,702.2097174,705.2050923,shoe,j,0.7488084000000299,0.15954939999994622,705.205234,705.2052842,None,,,,,,,,,,,,,,,,,00033,001,2025-11-18_14h44.49.862,MST_task,2024.2.0,59.76911192065587,2025-11-18 14h45.07.956705 +0530,
,Objects\208a.jpg,158,0,159,,,,,,,f,1.1419418000000405,0.14399339999999938,None,,,,,,159,0,158,705.2211914,,,,,,,,,,,,,,,,,,,,,,,705.2055257,705.2211914,705.7056945,,,,,,,,,,,,,,705.7280795,,,,,,,,,,,,,705.7248294,705.7280795,705.7280795,705.7280795,708.7219471,shoe,f,1.1419418000000405,0.14399339999999938,708.7221166,708.7221813,None,,,,,,,,,,,,,,,,,00033,001,2025-11-18_14h44.49.862,MST_task,2024.2.0,59.76911192065587,2025-11-18 14h45.07.956705 +0530,
,Objects\096a.jpg,159,0,160,,,,,,,f,1.0178081999999904,0.1834880000000112,None,,,,,,160,0,159,708.7378378,,,,,,,,,,,,,,,,,,,,,,,708.7224724,708.7378378,709.2221334,,,,,,,,,,,,,,709.2448814,,,,,,,,,,,,,709.2418951,709.2448814,709.2448814,709.2448814,712.2382964,shoe,f,1.0178081999999904,0.1834880000000112,712.238462,712.2385235,None,,,,,,,,,,,,,,,,,00033,001,2025-11-18_14h44.49.862,MST_task,2024.2.0,59.76911192065587,2025-11-18 14h45.07.956705 +0530,
,Objects\003a.jpg,160,0,161,,,,,,,j,1.8379929000000175,0.15290189999996073,None,,,,,,161,0,160,712.2546461000001,,,,,,,,,,,,,,,,,,,,,,,712.2388173,712.2546461000001,712.738897,,,,,,,,,,,,,,712.7600705,,,,,,,,,,,,,712.7567872,712.7600705,712.7600705,712.7600705,715.7551058,shoe,j,1.8379929000000175,0.15290189999996073,715.7552695,715.7553332,None,,,,,,,,,,,,,,,,,00033,001,2025-11-18_14h44.49.862,MST_task,2024.2.0,59.76911192065587,2025-11-18 14h45.07.956705 +0530,
,Objects\041a.jpg,161,0,162,,,,,,,j,0.9790518999999449,0.11115130000007412,None,,,,,,162,0,161,715.7711939,,,,,,,,,,,,,,,,,,,,,,,715.7556245,715.7711939,716.2558418,,,,,,,,,,,,,,716.2756817,,,,,,,,,,,,,716.272842,716.2756817,716.2756817,716.2756817,719.2720646,indoor,j,0.9790518999999449,0.11115130000007412,719.2778602,719.2779056,None,,,,,,,,,,,,,,,,,00033,001,2025-11-18_14h44.49.862,MST_task,2024.2.0,59.76911192065587,2025-11-18 14h45.07.956705 +0530,
,Objects\016a.jpg,162,0,163,,,,,,,f,2.3649835999999596,0.1361404000000448,None,,,,,,163,0,162,719.2875698,,,,,,,,,,,,,,,,,,,,,,,719.2780534,719.2875698,719.7724819,,,,,,,,,,,,,,719.7931919,,,,,,,,,,,,,719.7900432,719.7931919,719.7931919,719.7931919,722.7880102,indoor,f,2.3649835999999596,0.1361404000000448,722.7881037,722.7881373,None,,,,,,,,,,,,,,,,,00033,001,2025-11-18_14h44.49.862,MST_task,2024.2.0,59.76911192065587,2025-11-18 14h45.07.956705 +0530,
,Objects\058a.jpg,163,0,164,,,,,,,None,,,j,0.1896634999999378,None,,,,164,0,163,722.8044746,,,,,,,,,,,,,,,,,,,,,,,722.7882977,722.8044746,723.2888821,,,,,,,,,,,,,,723.304805,,,,,,,,,,,,,723.3021828,723.304805,723.304805,723.304805,726.2887867000001,indoor,None,,,726.2889577,726.5069574,j,,,,726.3046847,726.3046847,0.1896634999999378,None,,,,,,,,,,00033,001,2025-11-18_14h44.49.862,MST_task,2024.2.0,59.76911192065587,2025-11-18 14h45.07.956705 +0530,
,Objects\322a.jpg,164,0,165,,,,,,,j,1.094048799999996,0.16688299999998435,None,,,,,,165,0,164,726.5211658000001,,,,,,,,,,,,,,,,,,,,,,,726.5073065,726.5211658000001,727.0058152,,,,,,,,,,,,,,727.0252874,,,,,,,,,,,,,727.0221568000001,727.0252874,727.0252874,727.0252874,730.0221703,indoor,j,1.094048799999996,0.16688299999998435,730.0223361,730.0224004,None,,,,,,,,,,,,,,,,,00033,001,2025-11-18_14h44.49.862,MST_task,2024.2.0,59.76911192065587,2025-11-18 14h45.07.956705 +0530,
,Objects\107a.jpg,165,0,166,,,,,,,None,,,f,1.211484999999925,None,,,,166,0,165,730.0377484,,,,,,,,,,,,,,,,,,,,,,,730.022695,730.0377484,730.5221159,,,,,,,,,,,,,,730.5437916,,,,,,,,,,,,,730.5409181,730.5437916,730.5437916,730.5437916,733.5383214,indoor,None,,,733.5384669,734.7732492,f,,,,733.5546171,733.5546171,1.211484999999925,None,,,,,,,,,,00033,001,2025-11-18_14h44.49.862,MST_task,2024.2.0,59.76911192065587,2025-11-18 14h45.07.956705 +0530,
,Objects\184a.jpg,166,0,167,,,,,,,j,1.2576475000000755,0.13618079999992005,None,,,,,,167,0,166,734.7878407000001,,,,,,,,,,,,,,,,,,,,,,,734.7735479,734.7878407000001,735.2731491,,,,,,,,,,,,,,735.2928094,,,,,,,,,,,,,735.2899752,735.2928094,735.2928094,735.2928094,738.2885317,indoor,j,1.2576475000000755,0.13618079999992005,738.2886968,738.2887616,None,,,,,,,,,,,,,,,,,00033,001,2025-11-18_14h44.49.862,MST_task,2024.2.0,59.76911192065587,2025-11-18 14h45.07.956705 +0530,
,Objects\323a.jpg,167,0,168,,,,,,,j,1.036059200000068,0.12001699999996163,None,,,,,,168,0,167,738.3045652,,,,,,,,,,,,,,,,,,,,,,,738.2890545,738.3045652,738.7890517,,,,,,,,,,,,,,738.8266723,,,,,,,,,,,,,738.8235234,738.8266723,738.8266723,738.8266723,741.8050497,indoor,j,1.036059200000068,0.12001699999996163,741.8052124,741.8052745,None,,,,,,,,,,,,,,,,,00033,001,2025-11-18_14h44.49.862,MST_task,2024.2.0,59.76911192065587,2025-11-18 14h45.07.956705 +0530,
,Objects\170a.jpg,168,0,169,,,,,,,j,1.8211172000000033,0.14467960000001767,None,,,,,,169,0,168,741.8211733,,,,,,,,,,,,,,,,,,,,,,,741.805557,741.8211733,742.3056398,,,,,,,,,,,,,,742.3290804,,,,,,,,,,,,,742.3258838,742.3290804,742.3290804,742.3290804,745.3217687,shoe,j,1.8211172000000033,0.14467960000001767,745.3275997,745.3276286,None,,,,,,,,,,,,,,,,,00033,001,2025-11-18_14h44.49.862,MST_task,2024.2.0,59.76911192065587,2025-11-18 14h45.07.956705 +0530,
,Objects\365a.jpg,169,0,170,,,,,,,f,1.17103330000009,0.15267889999995532,None,,,,,,170,0,169,745.3376173,,,,,,,,,,,,,,,,,,,,,,,745.3277308,745.3376173,745.8220918,,,,,,,,,,,,,,745.843213,,,,,,,,,,,,,745.8401109,745.843213,745.843213,745.843213,748.8380567,shoe,f,1.17103330000009,0.15267889999995532,748.8381713,748.8382172,None,,,,,,,,,,,,,,,,,00033,001,2025-11-18_14h44.49.862,MST_task,2024.2.0,59.76911192065587,2025-11-18 14h45.07.956705 +0530,
,Objects\326a.jpg,170,0,171,,,,,,,f,1.339868499999966,0.14377469999999448,None,,,,,,171,0,170,748.8542949,,,,,,,,,,,,,,,,,,,,,,,748.8384284,748.8542949,749.3381917,,,,,,,,,,,,,,749.3550887,,,,,,,,,,,,,749.3495405,749.3550887,749.3550887,749.3550887,752.3384682,shoe,f,1.339868499999966,0.14377469999999448,752.3386283,752.3386908,None,,,,,,,,,,,,,,,,,00033,001,2025-11-18_14h44.49.862,MST_task,2024.2.0,59.76911192065587,2025-11-18 14h45.07.956705 +0530,
,Objects\237a.jpg,171,0,172,,,,,,,f,1.5861565999999812,0.15189950000001318,None,,,,,,172,0,171,752.3545384,,,,,,,,,,,,,,,,,,,,,,,752.3389847,752.3545384,752.8389088,,,,,,,,,,,,,,752.8600441,,,,,,,,,,,,,752.8569838,752.8600441,752.8600441,752.8600441,755.8552768,shoe,f,1.5861565999999812,0.15189950000001318,755.8554379,755.8555006,None,,,,,,,,,,,,,,,,,00033,001,2025-11-18_14h44.49.862,MST_task,2024.2.0,59.76911192065587,2025-11-18 14h45.07.956705 +0530,
,Objects\328a.jpg,172,0,173,,,,,,,f,0.8291984999999613,0.1438764000000674,None,,,,,,173,0,172,755.8714383,,,,,,,,,,,,,,,,,,,,,,,755.8558568,755.8714383,756.3554417,,,,,,,,,,,,,,756.3769505,,,,,,,,,,,,,756.3739473,756.3769505,756.3769505,756.3769505,759.3716055,shoe,f,0.8291984999999613,0.1438764000000674,759.3716513,759.3716647,None,,,,,,,,,,,,,,,,,00033,001,2025-11-18_14h44.49.862,MST_task,2024.2.0,59.76911192065587,2025-11-18 14h45.07.956705 +0530,
,Objects\175a.jpg,173,0,174,,,,,,,f,2.1334825999999794,0.159215500000073,None,,,,,,174,0,173,759.3875576,,,,,,,,,,,,,,,,,,,,,,,759.3717357,759.3875576,759.8719574,,,,,,,,,,,,,,759.8895632,,,,,,,,,,,,,759.8867794,759.8895632,759.8895632,759.8895632,762.8881482,shoe,f,2.1334825999999794,0.159215500000073,762.8881952,762.8882111,None,,,,,,,,,,,,,,,,,00033,001,2025-11-18_14h44.49.862,MST_task,2024.2.0,59.76911192065587,2025-11-18 14h45.07.956705 +0530,
,Objects\298a.jpg,174,0,175,,,,,,,j,2.07759580000004,0.13636669999993956,None,,,,,,175,0,174,762.9043798,,,,,,,,,,,,,,,,,,,,,,,762.8882807,762.9043798,763.389179,,,,,,,,,,,,,,763.4082691,,,,,,,,,,,,,763.4057557,763.4082691,763.4082691,763.4082691,766.4050429,shoe,j,2.07759580000004,0.13636669999993956,766.4051088,766.4051266,None,,,,,,,,,,,,,,,,,00033,001,2025-11-18_14h44.49.862,MST_task,2024.2.0,59.76911192065587,2025-11-18 14h45.07.956705 +0530,
,Objects\235a.jpg,175,0,176,,,,,,,f,1.9649894000000359,0.11173740000003818,None,,,,,,176,0,175,766.4212112,,,,,,,,,,,,,,,,,,,,,,,766.4052203,766.4212112,766.9046278,,,,,,,,,,,,,,766.9217889,,,,,,,,,,,,,766.91706,766.9217889,766.9217889,766.9217889,769.9052616,indoor,f,1.9649894000000359,0.11173740000003818,769.9100156,769.9100531,None,,,,,,,,,,,,,,,,,00033,001,2025-11-18_14h44.49.862,MST_task,2024.2.0,59.76911192065587,2025-11-18 14h45.07.956705 +0530,
,Objects\036a.jpg,176,0,177,,,,,,,f,1.1246757000000116,0.13667789999999513,None,,,,,,177,0,176,769.921153,,,,,,,,,,,,,,,,,,,,,,,769.9101781,769.921153,770.4057111,,,,,,,,,,,,,,770.4254099,,,,,,,,,,,,,770.4223233,770.4254099,770.4254099,770.4254099,773.4219838,indoor,f,1.1246757000000116,0.13667789999999513,773.4221661,773.4222273,None,,,,,,,,,,,,,,,,,00033,001,2025-11-18_14h44.49.862,MST_task,2024.2.0,59.76911192065587,2025-11-18 14h45.07.956705 +0530,
,Objects\119a.jpg,177,0,178,,,,,,,f,1.4606820999999854,0.1675635000000284,None,,,,,,178,0,177,773.4379241,,,,,,,,,,,,,,,,,,,,,,,773.4225234,773.4379241,773.9212246,,,,,,,,,,,,,,773.9379404,,,,,,,,,,,,,773.930746,773.9379404,773.9379404,773.9379404,776.9217267,indoor,f,1.4606820999999854,0.1675635000000284,776.9217704,776.9217837,None,776.9378376,776.9378376,776.9378376,,,,,,,,,,,,,,00033,001,2025-11-18_14h44.49.862,MST_task,2024.2.0,59.76911192065587,2025-11-18 14h45.07.956705 +0530,
,Objects\338a.jpg,178,0,179,,,,,,,f,0.976101799999924,0.1608860999999706,None,,,,,,179,0,178,776.9378376,,,,,,,,,,,,,,,,,,,,,,,776.9218495,776.9378376,777.4218073,,,,,,,,,,,,,,777.438179,,,,,,,,,,,,,777.4316698,777.438179,777.438179,777.438179,780.4216477,indoor,f,0.976101799999924,0.1608860999999706,780.4216911,780.4217036,None,780.4378763,780.4378763,780.4378763,,,,,,,,,,,,,,00033,001,2025-11-18_14h44.49.862,MST_task,2024.2.0,59.76911192065587,2025-11-18 14h45.07.956705 +0530,
,Objects\358a.jpg,179,0,180,,,,,,,f,1.395560699999919,0.1766211999999996,None,,,,,,180,0,179,780.4378763,,,,,,,,,,,,,,,,,,,,,,,780.4217664,780.4378763,780.9215254,,,,,,,,,,,,,,780.938553,,,,,,,,,,,,,780.9325813,780.938553,780.938553,780.938553,783.9218877,indoor,f,1.395560699999919,0.1766211999999996,783.9220516,783.922112,None,,,,,,,,,,,,,,,,,00033,001,2025-11-18_14h44.49.862,MST_task,2024.2.0,59.76911192065587,2025-11-18 14h45.07.956705 +0530,
,Objects\359a.jpg,180,0,181,,,,,,,f,0.7710200000000214,0.14426819999994223,None,,,,,,181,0,180,783.9379028,,,,,,,,,,,,,,,,,,,,,,,783.9223986,783.9379028,784.4225378,,,,,,,,,,,,,,784.4430346,,,,,,,,,,,,,784.4401763,784.4430346,784.4430346,784.4430346,787.4378117,indoor,f,0.7710200000000214,0.14426819999994223,787.4378587,787.4378729,None,,,,,,,,,,,,,,,,,00033,001,2025-11-18_14h44.49.862,MST_task,2024.2.0,59.76911192065587,2025-11-18 14h45.07.956705 +0530,
,Objects\095a.jpg,181,0,182,,,,,,,f,1.2314163000000917,0.21616710000000694,None,,,,,,182,0,181,787.4542338,,,,,,,,,,,,,,,,,,,,,,,787.4379458,787.4542338,787.9382191,,,,,,,,,,,,,,,,,,,,,,,,,,,787.9559046,787.9589752,787.9589752,787.9589752,790.9381667,indoor,f,1.2314163000000917,0.21616710000000694,790.9382111,790.9382225,None,,,,,,,,,,,,,,,,,00033,001,2025-11-18_14h44.49.862,MST_task,2024.2.0,59.76911192065587,2025-11-18 14h45.07.956705 +0530,
,Objects\059a.jpg,182,0,183,,,,,,,j,1.075084899999979,0.14363320000006752,None,,,,,,183,0,182,790.9545547,,,,,,,,,,,,,,,,,,,,,,,790.9382922,790.9545547,791.4389469,,,,,,,,,,,,,,791.4677044,,,,,,,,,,,,,791.4648199,791.4677044,791.4677044,791.4677044,794.4383795,shoe,j,1.075084899999979,0.14363320000006752,794.4430707,794.4430941,None,,,,,,,,,,,,,,,,,00033,001,2025-11-18_14h44.49.862,MST_task,2024.2.0,59.76911192065587,2025-11-18 14h45.07.956705 +0530,
,Objects\202a.jpg,183,0,184,,,,,,,f,1.5124098000000004,0.1192918000000418,None,,,,,,184,0,183,794.4543505,,,,,,,,,,,,,,,,,,,,,,,794.4432358,794.4543505,794.9390765,,,,,,,,,,,,,,794.9583448,,,,,,,,,,,,,794.9552631,794.9583448,794.9583448,794.9583448,797.9554772,shoe,f,1.5124098000000004,0.1192918000000418,797.955664,797.9557279,None,,,,,,,,,,,,,,,,,00033,001,2025-11-18_14h44.49.862,MST_task,2024.2.0,59.76911192065587,2025-11-18 14h45.07.956705 +0530,
,Objects\339a.jpg,184,0,185,,,,,,,None,,,j,1.1113604000000805,None,,,,185,0,184,797.9712514,,,,,,,,,,,,,,,,,,,,,,,797.9560163,797.9712514,798.4559372,,,,,,,,,,,,,,798.4744302,,,,,,,,,,,,,798.4714852,798.4744302,798.4744302,798.4744302,801.4718018,shoe,None,,,801.4719426,802.6059599,j,,,,801.4877594,801.4877594,1.1113604000000805,None,,,,,,,,,,00033,001,2025-11-18_14h44.49.862,MST_task,2024.2.0,59.76911192065587,2025-11-18 14h45.07.956705 +0530,
,Objects\222a.jpg,185,0,186,,,,,,,j,2.033430599999974,0.12856109999995624,None,,,,,,186,0,185,802.6212189,,,,,,,,,,,,,,,,,,,,,,,802.6062382,802.6212189,803.1058249,,,,,,,,,,,,,,803.1246765,,,,,,,,,,,,,803.1213987,803.1246765,803.1246765,803.1246765,806.1219279000001,shoe,j,2.033430599999974,0.12856109999995624,806.1221126,806.1221758,None,,,,,,,,,,,,,,,,,00033,001,2025-11-18_14h44.49.862,MST_task,2024.2.0,59.76911192065587,2025-11-18 14h45.07.956705 +0530,
,Objects\232a.jpg,186,0,187,,,,,,,f,0.9170524999999543,0.12797309999996287,None,,,,,,187,0,186,806.1379381,,,,,,,,,,,,,,,,,,,,,,,806.1224679000001,806.1379381,806.6223338,,,,,,,,,,,,,,806.6412770000001,,,,,,,,,,,,,806.6381817,806.6412770000001,806.6412770000001,806.6412770000001,809.638673,shoe,f,0.9170524999999543,0.12797309999996287,809.6388567,809.6389226,None,,,,,,,,,,,,,,,,,00033,001,2025-11-18_14h44.49.862,MST_task,2024.2.0,59.76911192065587,2025-11-18 14h45.07.956705 +0530,
,Objects\352a.jpg,187,0,188,,,,,,,f,2.0633180999999468,0.15125410000007378,None,,,,,,188,0,187,809.6545705,,,,,,,,,,,,,,,,,,,,,,,809.6392188,809.6545705,810.1390638,,,,,,,,,,,,,,810.1592995,,,,,,,,,,,,,810.1562702,810.1592995,810.1592995,810.1592995,813.1551287,shoe,f,2.0633180999999468,0.15125410000007378,813.1552906000001,813.1553538000001,None,,,,,,,,,,,,,,,,,00033,001,2025-11-18_14h44.49.862,MST_task,2024.2.0,59.76911192065587,2025-11-18 14h45.07.956705 +0530,
,Objects\167a.jpg,188,0,189,,,,,,,None,,,f,1.1180944000000181,None,,,,189,0,188,813.1713228,,,,,,,,,,,,,,,,,,,,,,,813.1556467,813.1713228,813.6559967000001,,,,,,,,,,,,,,813.6750967,,,,,,,,,,,,,813.6721643,813.6750967,813.6750967,813.6750967,816.6718803,shoe,None,,,816.6720339,817.8231859,f,,,,816.6879081,816.6879081,1.1180944000000181,None,,,,,,,,,,00033,001,2025-11-18_14h44.49.862,MST_task,2024.2.0,59.76911192065587,2025-11-18 14h45.07.956705 +0530,
,Objects\022a.jpg,189,0,190,,,,,,,f,1.2720269000000144,0.14416510000000926,None,,,,,,190,0,189,817.8378176,,,,,,,,,,,,,,,,,,,,,,,817.8235183,817.8378176,818.3222631,,,,,,,,,,,,,,818.3418581,,,,,,,,,,,,,818.3391698,818.3418581,818.3418581,818.3418581,821.3383788,indoor,f,1.2720269000000144,0.14416510000000926,821.343151,821.3431833,None,,,,,,,,,,,,,,,,,00033,001,2025-11-18_14h44.49.862,MST_task,2024.2.0,59.76911192065587,2025-11-18 14h45.07.956705 +0530,
,Objects\246a.jpg,190,0,191,,,,,,,f,1.8299845999999889,0.12792060000003858,None,,,,,,191,0,190,821.3543894000001,,,,,,,,,,,,,,,,,,,,,,,821.3433135,821.3543894000001,821.8389215,,,,,,,,,,,,,,821.8566697,,,,,,,,,,,,,821.8540713,821.8566697,821.8566697,821.8566697,824.8552201,indoor,f,1.8299845999999889,0.12792060000003858,824.85538,824.8554414,None,,,,,,,,,,,,,,,,,00033,001,2025-11-18_14h44.49.862,MST_task,2024.2.0,59.76911192065587,2025-11-18 14h45.07.956705 +0530,
,Objects\126a.jpg,191,0,192,,,,,,,j,1.064682199999993,0.11191540000004352,None,,,,,,192,0,191,824.8713446,,,,,,,,,,,,,,,,,,,,,,,824.8557678,824.8713446,825.3558329,,,,,,,,,,,,,,825.3738287,,,,,,,,,,,,,825.3712984,825.3738287,825.3738287,825.3738287,828.3717922,indoor,j,1.064682199999993,0.11191540000004352,828.3719519,828.3720139,None,,,,,,,,,,,,,,,,,00033,001,2025-11-18_14h44.49.862,MST_task,2024.2.0,59.76911192065587,2025-11-18 14h45.07.956705 +0530,
