thisN,thisTrialN,thisRepN,key_resp_3.keys,key_resp_3.rt,key_resp_3.duration,trials.thisRepN,trials.thisTrialN,trials.thisN,thisRow.t,notes,intro_page.started,text.started,key_resp.started,intro_page.stopped,key_resp.keys,key_resp.rt,key_resp.duration,instructions.started,text_2.started,key_resp_2.started,instructions.stopped,key_resp_2.keys,key_resp_2.rt,key_resp_2.duration,demo1.started,image_1.started,image_2.started,text_7.started,key_resp_6.started,text_9.started,demo1.stopped,key_resp_6.keys,key_resp_6.rt,key_resp_6.duration,demo3.started,image_5.started,image_6.started,text_11.started,text_12.started,key_resp_8.started,demo3.stopped,key_resp_8.keys,key_resp_8.rt,key_resp_8.duration,demo_conclusion.started,text_13.started,key_resp_9.started,demo_conclusion.stopped,key_resp_9.keys,key_resp_9.rt,key_resp_9.duration,start_test.started,text_6.started,key_resp_5.started,start_test.stopped,key_resp_5.keys,key_resp_5.rt,key_resp_5.duration,ISI.started,text_4.started,text_4.stopped,ISI.stopped,routine_1.started,image.started,text_3.started,key_resp_3.started,routine_1.stopped,image_path,position_of_stimuli,trials.key_resp_3.keys,trials.key_resp_3.rt,trials.key_resp_3.duration,End_page.started,text_5.started,key_resp_4.started,End_page.stopped,key_resp_4.keys,key_resp_4.rt,key_resp_4.duration,participant,session,date,expName,psychopyVersion,frameRate,expStart,
,,,,,,,,,,,0.0011500000255182385,0.0026538000092841685,0.0026538000092841685,3.8275314000202343,space,3.819895699969493,None,,,,,,,,,,,,,,,,,,,,,,,,,,,,,,,,,,,,,,,,,,,,,,,,,,,,,,,,,,,,,,,00045,001,2026-01-18_11h00.57.957,MST_test,2024.2.0,60.02116346267618,2026-01-18 11h01.05.613602 +0530,
,,,,,,,,,,,,,,,,,,3.827560400008224,3.841565400012769,3.841565400012769,15.241818699985743,space,11.395693700003903,None,,,,,,,,,,,,,,,,,,,,,,,,,,,,,,,,,,,,,,,,,,,,,,,,,,,,,,,,00045,001,2026-01-18_11h00.57.957,MST_test,2024.2.0,60.02116346267618,2026-01-18 11h01.05.613602 +0530,
,,,,,,,,,,,,,,,,,,,,,,,,,15.241845100012142,15.258559499983676,15.258559499983676,15.258559499983676,15.258559499983676,15.258559499983676,22.89294410002185,space,7.627127899962943,None,,,,,,,,,,,,,,,,,,,,,,,,,,,,,,,,,,,,,,,,,,,,,,00045,001,2026-01-18_11h00.57.957,MST_test,2024.2.0,60.02116346267618,2026-01-18 11h01.05.613602 +0530,
,,,,,,,,,,,,,,,,,,,,,,,,,,,,,,,,,,,22.892974000016693,22.908528700005263,22.908528700005263,22.908528700005263,22.908528700005263,22.908528700005263,24.975520899984986,space,2.0655004999716766,None,,,,,,,,,,,,,,,,,,,,,,,,,,,,,,,,,,,,00045,001,2026-01-18_11h00.57.957,MST_test,2024.2.0,60.02116346267618,2026-01-18 11h01.05.613602 +0530,
,,,,,,,,,,,,,,,,,,,,,,,,,,,,,,,,,,,,,,,,,,,,,24.975549200025853,24.991469700005837,24.991469700005837,42.80864850000944,space,17.806232500006445,None,,,,,,,,,,,,,,,,,,,,,,,,,,,,,00045,001,2026-01-18_11h00.57.957,MST_test,2024.2.0,60.02116346267618,2026-01-18 11h01.05.613602 +0530,
,,,,,,,,,,,,,,,,,,,,,,,,,,,,,,,,,,,,,,,,,,,,,,,,,,,,42.80868620000547,42.828441000019666,42.828441000019666,64.09192670002813,space,21.249240199977066,None,,,,,,,,,,,,,,,,,,,,,,00045,001,2026-01-18_11h00.57.957,MST_test,2024.2.0,60.02116346267618,2026-01-18 11h01.05.613602 +0530,
0,0,1,o,49.93396539997775,None,1,0,0,64.10807900002692,,,,,,,,,,,,,,,,,,,,,,,,,,,,,,,,,,,,,,,,,,,,,,,,,,64.09572739998112,64.10807900002692,64.60830820002593,64.59177140000975,64.60062630003085,64.60830820002593,64.60830820002593,64.60830820002593,114.55886089999694,Objects\180a.jpg,pre,o,49.93396539997775,None,,,,,,,,00045,001,2026-01-18_11h00.57.957,MST_test,2024.2.0,60.02116346267618,2026-01-18 11h01.05.613602 +0530,
1,0,2,s,4.003225199994631,None,2,0,1,114.57474300003378,,,,,,,,,,,,,,,,,,,,,,,,,,,,,,,,,,,,,,,,,,,,,,,,,,114.5589640000253,114.57474300003378,115.07478339999216,115.05846219998784,115.07037239999045,115.07478339999216,115.07478339999216,115.07478339999216,119.09202360000927,Objects\302b.jpg,post,s,4.003225199994631,None,,,,,,,,00045,001,2026-01-18_11h00.57.957,MST_test,2024.2.0,60.02116346267618,2026-01-18 11h01.05.613602 +0530,
2,0,3,o,3.564657599956263,None,3,0,2,119.10815719998209,,,,,,,,,,,,,,,,,,,,,,,,,,,,,,,,,,,,,,,,,,,,,,,,,,119.0921132999938,119.10815719998209,119.60850800003391,119.59199660003651,119.60313549998682,119.60850800003391,119.60850800003391,119.60850800003391,123.17539950000355,Objects\292b.jpg,post,o,3.564657599956263,None,,,,,,,,00045,001,2026-01-18_11h00.57.957,MST_test,2024.2.0,60.02116346267618,2026-01-18 11h01.05.613602 +0530,
3,0,4,o,2.6906628999859095,None,4,0,3,123.19139069999801,,,,,,,,,,,,,,,,,,,,,,,,,,,,,,,,,,,,,,,,,,,,,,,,,,123.1754876000341,123.19139069999801,123.69178769999417,123.67500370001653,123.68703060003463,123.69178769999417,123.69178769999417,123.69178769999417,126.39193729998078,Objects\091b.jpg,post,o,2.6906628999859095,None,,,,,,,,00045,001,2026-01-18_11h00.57.957,MST_test,2024.2.0,60.02116346267618,2026-01-18 11h01.05.613602 +0530,
4,0,5,s,3.3527302000438794,None,5,0,4,126.4081130999839,,,,,,,,,,,,,,,,,,,,,,,,,,,,,,,,,,,,,,,,,,,,,,,,,,126.39202540001133,126.4081130999839,126.9086215000134,126.89173139998456,126.90312540001469,126.9086215000134,126.9086215000134,126.9086215000134,130.27536219998728,Objects\266b.jpg,pre,s,3.3527302000438794,None,,,,,,,,00045,001,2026-01-18_11h00.57.957,MST_test,2024.2.0,60.02116346267618,2026-01-18 11h01.05.613602 +0530,
5,0,6,n,3.7816652999608777,None,6,0,5,130.29147420002846,,,,,,,,,,,,,,,,,,,,,,,,,,,,,,,,,,,,,,,,,,,,,,,,,,130.27545419998933,130.29147420002846,130.79185450001387,130.7749499999918,130.7848833000171,130.79185450001387,130.79185450001387,130.79185450001387,134.5755124000134,Foils\009a.jpg,none,n,3.7816652999608777,None,,,,,,,,00045,001,2026-01-18_11h00.57.957,MST_test,2024.2.0,60.02116346267618,2026-01-18 11h01.05.613602 +0530,
6,0,7,s,5.05838699999731,None,7,0,6,134.59147049998865,,,,,,,,,,,,,,,,,,,,,,,,,,,,,,,,,,,,,,,,,,,,,,,,,,134.5756042000139,134.59147049998865,135.0916525000357,135.0748777000117,135.084766999993,135.0916525000357,135.0916525000357,135.0916525000357,140.15882300003432,Objects\090b.jpg,mid,s,5.05838699999731,None,,,,,,,,00045,001,2026-01-18_11h00.57.957,MST_test,2024.2.0,60.02116346267618,2026-01-18 11h01.05.613602 +0530,
7,0,8,o,3.106285599991679,None,8,0,7,140.17465030000312,,,,,,,,,,,,,,,,,,,,,,,,,,,,,,,,,,,,,,,,,,,,,,,,,,140.15891820000252,140.17465030000312,140.67494500003522,140.65845400001854,140.6614271000144,140.67494500003522,140.67494500003522,140.67494500003522,143.791947300022,Objects\148a.jpg,post,o,3.106285599991679,None,,,,,,,,00045,001,2026-01-18_11h00.57.957,MST_test,2024.2.0,60.02116346267618,2026-01-18 11h01.05.613602 +0530,
8,0,9,o,2.4493603999726474,None,9,0,8,143.80811079998966,,,,,,,,,,,,,,,,,,,,,,,,,,,,,,,,,,,,,,,,,,,,,,,,,,143.79203620000044,143.80811079998966,144.30836930003716,144.29176450002706,144.30174160003662,144.30836930003716,144.30836930003716,144.30836930003716,146.75870340003166,Objects\039b.jpg,pre,o,2.4493603999726474,None,,,,,,,,00045,001,2026-01-18_11h00.57.957,MST_test,2024.2.0,60.02116346267618,2026-01-18 11h01.05.613602 +0530,
9,0,10,s,2.9314663999830373,None,10,0,9,146.77474210003857,,,,,,,,,,,,,,,,,,,,,,,,,,,,,,,,,,,,,,,,,,,,,,,,,,146.7587931000162,146.77474210003857,147.2748363999999,147.258393600001,147.26790790003724,147.2748363999999,147.2748363999999,147.2748363999999,150.2093615999911,Foils\057a.jpg,none,s,2.9314663999830373,None,,,,,,,,00045,001,2026-01-18_11h00.57.957,MST_test,2024.2.0,60.02116346267618,2026-01-18 11h01.05.613602 +0530,
10,0,11,o,5.672851300041657,None,11,0,10,150.22554740001215,,,,,,,,,,,,,,,,,,,,,,,,,,,,,,,,,,,,,,,,,,,,,,,,,,150.20945900003426,150.22554740001215,150.72491729998728,150.70830070000375,150.71082939999178,150.72491729998728,150.72491729998728,150.72491729998728,156.40896680002334,Objects\009a.jpg,post,o,5.672851300041657,None,,,,,,,,00045,001,2026-01-18_11h00.57.957,MST_test,2024.2.0,60.02116346267618,2026-01-18 11h01.05.613602 +0530,
11,0,12,n,4.257034199952614,None,12,0,11,156.42481330002192,,,,,,,,,,,,,,,,,,,,,,,,,,,,,,,,,,,,,,,,,,,,,,,,,,156.40906740003265,156.42481330002192,156.924963700003,156.9083718000329,156.91833300003782,156.924963700003,156.924963700003,156.924963700003,161.1920140000293,Objects\027b.jpg,mid,n,4.257034199952614,None,,,,,,,,00045,001,2026-01-18_11h00.57.957,MST_test,2024.2.0,60.02116346267618,2026-01-18 11h01.05.613602 +0530,
12,0,13,n,2.873702500015497,None,13,0,12,161.20812239998486,,,,,,,,,,,,,,,,,,,,,,,,,,,,,,,,,,,,,,,,,,,,,,,,,,161.19210590003058,161.20812239998486,161.70829129999038,161.69181079999544,161.70180979999714,161.70829129999038,161.70829129999038,161.70829129999038,164.5921635000268,Objects\014b.jpg,post,n,2.873702500015497,None,,,,,,,,00045,001,2026-01-18_11h00.57.957,MST_test,2024.2.0,60.02116346267618,2026-01-18 11h01.05.613602 +0530,
13,0,14,n,2.985229799989611,None,14,0,13,164.60812340001576,,,,,,,,,,,,,,,,,,,,,,,,,,,,,,,,,,,,,,,,,,,,,,,,,,164.59225799998967,164.60812340001576,165.10827020002762,165.09174820000771,165.10202980000759,165.10827020002762,165.10827020002762,165.10827020002762,168.10892420000164,Objects\267b.jpg,post,n,2.985229799989611,None,,,,,,,,00045,001,2026-01-18_11h00.57.957,MST_test,2024.2.0,60.02116346267618,2026-01-18 11h01.05.613602 +0530,
14,0,15,o,3.613071800034959,None,15,0,14,168.1248409000109,,,,,,,,,,,,,,,,,,,,,,,,,,,,,,,,,,,,,,,,,,,,,,,,,,168.1090177000151,168.1248409000109,168.62495880003553,168.60840150003787,168.61241030000383,168.62495880003553,168.62495880003553,168.62495880003553,172.24210249999305,Objects\217a.jpg,mid,o,3.613071800034959,None,,,,,,,,00045,001,2026-01-18_11h00.57.957,MST_test,2024.2.0,60.02116346267618,2026-01-18 11h01.05.613602 +0530,
15,0,16,n,2.766496800002642,None,16,0,15,172.25810209999327,,,,,,,,,,,,,,,,,,,,,,,,,,,,,,,,,,,,,,,,,,,,,,,,,,172.2421931999852,172.25810209999327,172.75881830003345,172.7417759000091,172.74496350000845,172.75881830003345,172.75881830003345,172.75881830003345,175.54211560002295,Objects\280a.jpg,mid,n,2.766496800002642,None,,,,,,,,00045,001,2026-01-18_11h00.57.957,MST_test,2024.2.0,60.02116346267618,2026-01-18 11h01.05.613602 +0530,
16,0,17,s,3.754722399986349,None,17,0,16,175.55818140000338,,,,,,,,,,,,,,,,,,,,,,,,,,,,,,,,,,,,,,,,,,,,,,,,,,175.54220820002956,175.55818140000338,176.0585088999942,176.04171130002942,176.04525500000454,176.0585088999942,176.0585088999942,176.0585088999942,179.8253243000363,Objects\288a.jpg,mid,s,3.754722399986349,None,,,,,,,,00045,001,2026-01-18_11h00.57.957,MST_test,2024.2.0,60.02116346267618,2026-01-18 11h01.05.613602 +0530,
17,0,18,s,2.4805032000294887,None,18,0,17,179.84163919999264,,,,,,,,,,,,,,,,,,,,,,,,,,,,,,,,,,,,,,,,,,,,,,,,,,179.8254128000117,179.84163919999264,180.3417948000133,180.32495259999996,180.33468919998268,180.3417948000133,180.3417948000133,180.3417948000133,182.8253405999858,Objects\222b.jpg,pre,s,2.4805032000294887,None,,,,,,,,00045,001,2026-01-18_11h00.57.957,MST_test,2024.2.0,60.02116346267618,2026-01-18 11h01.05.613602 +0530,
18,0,19,s,1.95176620001439,None,19,0,18,182.8414158000378,,,,,,,,,,,,,,,,,,,,,,,,,,,,,,,,,,,,,,,,,,,,,,,,,,182.82543199998327,182.8414158000378,183.34188369999174,183.32500150002306,183.33682100003352,183.34188369999174,183.34188369999174,183.34188369999174,185.30865990003804,Objects\241b.jpg,mid,s,1.95176620001439,None,,,,,,,,00045,001,2026-01-18_11h00.57.957,MST_test,2024.2.0,60.02116346267618,2026-01-18 11h01.05.613602 +0530,
19,0,20,s,2.468981599959079,None,20,0,19,185.32476540002972,,,,,,,,,,,,,,,,,,,,,,,,,,,,,,,,,,,,,,,,,,,,,,,,,,185.30878720001783,185.32476540002972,185.82484870002372,185.8083851999836,185.818402600009,185.82484870002372,185.82484870002372,185.82484870002372,188.3090952000348,Foils\101b.jpg,none,s,2.468981599959079,None,,,,,,,,00045,001,2026-01-18_11h00.57.957,MST_test,2024.2.0,60.02116346267618,2026-01-18 11h01.05.613602 +0530,
20,0,21,o,1.8927318999776617,None,21,0,20,188.3248314000084,,,,,,,,,,,,,,,,,,,,,,,,,,,,,,,,,,,,,,,,,,,,,,,,,,188.30918380001094,188.3248314000084,188.82511040003737,188.80846460000612,188.8108615000383,188.82511040003737,188.82511040003737,188.82511040003737,190.72529620002024,Objects\168a.jpg,mid,o,1.8927318999776617,None,,,,,,,,00045,001,2026-01-18_11h00.57.957,MST_test,2024.2.0,60.02116346267618,2026-01-18 11h01.05.613602 +0530,
21,0,22,n,1.979318699974101,None,22,0,21,190.74158289999468,,,,,,,,,,,,,,,,,,,,,,,,,,,,,,,,,,,,,,,,,,,,,,,,,,190.72538429999258,190.74158289999468,191.24186710000504,191.2253871000139,191.23543930001324,191.24186710000504,191.24186710000504,191.24186710000504,193.22549169999547,Objects\092b.jpg,post,n,1.979318699974101,None,,,,,,,,00045,001,2026-01-18_11h00.57.957,MST_test,2024.2.0,60.02116346267618,2026-01-18 11h01.05.613602 +0530,
22,0,23,s,2.7912952000042424,None,23,0,22,193.24148550000973,,,,,,,,,,,,,,,,,,,,,,,,,,,,,,,,,,,,,,,,,,,,,,,,,,193.2255818999838,193.24148550000973,193.7419456000207,193.7254663000349,193.72934800002258,193.7419456000207,193.7419456000207,193.7419456000207,196.54207530000713,Objects\254a.jpg,pre,s,2.7912952000042424,None,,,,,,,,00045,001,2026-01-18_11h00.57.957,MST_test,2024.2.0,60.02116346267618,2026-01-18 11h01.05.613602 +0530,
23,0,24,o,2.034635399992112,None,24,0,23,196.55828480003402,,,,,,,,,,,,,,,,,,,,,,,,,,,,,,,,,,,,,,,,,,,,,,,,,,196.5421662000008,196.55828480003402,197.05855539999902,197.04174270003568,197.04513139999472,197.05855539999902,197.05855539999902,197.05855539999902,199.10878940002294,Objects\308a.jpg,post,o,2.034635399992112,None,,,,,,,,00045,001,2026-01-18_11h00.57.957,MST_test,2024.2.0,60.02116346267618,2026-01-18 11h01.05.613602 +0530,
24,0,25,n,1.4211095999926329,None,25,0,24,199.1249415000202,,,,,,,,,,,,,,,,,,,,,,,,,,,,,,,,,,,,,,,,,,,,,,,,,,199.10888120002346,199.1249415000202,199.62498279998545,199.60852320003323,199.6190130999894,199.62498279998545,199.62498279998545,199.62498279998545,201.0588310000021,Foils\105a.jpg,none,n,1.4211095999926329,None,,,,,,,,00045,001,2026-01-18_11h00.57.957,MST_test,2024.2.0,60.02116346267618,2026-01-18 11h01.05.613602 +0530,
25,0,26,o,1.9505027999985032,None,26,0,25,201.0749098000233,,,,,,,,,,,,,,,,,,,,,,,,,,,,,,,,,,,,,,,,,,,,,,,,,,201.05891960003646,201.0749098000233,201.57535549998283,201.55848680000054,201.56124940002337,201.57535549998283,201.57535549998283,201.57535549998283,203.54227360000368,Objects\293a.jpg,post,o,1.9505027999985032,None,,,,,,,,00045,001,2026-01-18_11h00.57.957,MST_test,2024.2.0,60.02116346267618,2026-01-18 11h01.05.613602 +0530,
26,0,27,n,1.6032433999935165,None,27,0,26,203.55826770002022,,,,,,,,,,,,,,,,,,,,,,,,,,,,,,,,,,,,,,,,,,,,,,,,,,203.54236419999506,203.55826770002022,204.05853300000308,204.04187220003223,204.0450687999837,204.05853300000308,204.05853300000308,204.05853300000308,205.675332600018,Objects\062a.jpg,pre,n,1.6032433999935165,None,,,,,,,,00045,001,2026-01-18_11h00.57.957,MST_test,2024.2.0,60.02116346267618,2026-01-18 11h01.05.613602 +0530,
27,0,28,n,1.3656320999725722,None,28,0,27,205.69159619999118,,,,,,,,,,,,,,,,,,,,,,,,,,,,,,,,,,,,,,,,,,,,,,,,,,205.67542260000482,205.69159619999118,206.19190059998073,206.17504790000385,206.1844887000043,206.19190059998073,206.19190059998073,206.19190059998073,207.55887120001717,Objects\186b.jpg,pre,n,1.3656320999725722,None,,,,,,,,00045,001,2026-01-18_11h00.57.957,MST_test,2024.2.0,60.02116346267618,2026-01-18 11h01.05.613602 +0530,
28,0,29,s,4.338201600010507,None,29,0,28,207.5749851000146,,,,,,,,,,,,,,,,,,,,,,,,,,,,,,,,,,,,,,,,,,,,,,,,,,207.55896120000398,207.5749851000146,208.0749882000382,208.05858350003837,208.0683308999869,208.0749882000382,208.0749882000382,208.0749882000382,212.42555600003107,Foils\034a.jpg,none,s,4.338201600010507,None,,,,,,,,00045,001,2026-01-18_11h00.57.957,MST_test,2024.2.0,60.02116346267618,2026-01-18 11h01.05.613602 +0530,
29,0,30,n,1.8236210000468418,None,30,0,29,212.4416932000313,,,,,,,,,,,,,,,,,,,,,,,,,,,,,,,,,,,,,,,,,,,,,,,,,,212.42565530003048,212.4416932000313,212.94200750003802,212.9251980999834,212.92842840001686,212.94200750003802,212.94200750003802,212.94200750003802,214.77577649999876,Objects\372a.jpg,mid,n,1.8236210000468418,None,,,,,,,,00045,001,2026-01-18_11h00.57.957,MST_test,2024.2.0,60.02116346267618,2026-01-18 11h01.05.613602 +0530,
30,0,31,o,1.602153499959968,None,31,0,30,214.7916319000069,,,,,,,,,,,,,,,,,,,,,,,,,,,,,,,,,,,,,,,,,,,,,,,,,,214.77588149998337,214.7916319000069,215.29194949998055,215.27517580002313,215.278380200034,215.29194949998055,215.29194949998055,215.29194949998055,216.90887049998855,Objects\255a.jpg,pre,o,1.602153499959968,None,,,,,,,,00045,001,2026-01-18_11h00.57.957,MST_test,2024.2.0,60.02116346267618,2026-01-18 11h01.05.613602 +0530,
31,0,32,n,2.9247868999955244,None,32,0,31,216.92487170000095,,,,,,,,,,,,,,,,,,,,,,,,,,,,,,,,,,,,,,,,,,,,,,,,,,216.90896400000202,216.92487170000095,217.4252753999899,217.40854040003615,217.4183995000203,217.4252753999899,217.4252753999899,217.4252753999899,220.35871460003546,Foils\f7.jpg,none,n,2.9247868999955244,None,,,,,,,,00045,001,2026-01-18_11h00.57.957,MST_test,2024.2.0,60.02116346267618,2026-01-18 11h01.05.613602 +0530,
32,0,33,s,1.5387926999828778,None,33,0,32,220.37489939999068,,,,,,,,,,,,,,,,,,,,,,,,,,,,,,,,,,,,,,,,,,,,,,,,,,220.35881519998657,220.37489939999068,220.87520250002854,220.85844260000158,220.8680066000088,220.87520250002854,220.87520250002854,220.87520250002854,222.42551650002133,Objects\299b.jpg,mid,s,1.5387926999828778,None,,,,,,,,00045,001,2026-01-18_11h00.57.957,MST_test,2024.2.0,60.02116346267618,2026-01-18 11h01.05.613602 +0530,
33,0,34,s,1.8321230000001378,None,34,0,33,222.44155310001224,,,,,,,,,,,,,,,,,,,,,,,,,,,,,,,,,,,,,,,,,,,,,,,,,,222.42560810002033,222.44155310001224,222.9419254999957,222.9251843999955,222.9282855000347,222.9419254999957,222.9419254999957,222.9419254999957,224.77548459998798,Objects\155a.jpg,mid,s,1.8321230000001378,None,,,,,,,,00045,001,2026-01-18_11h00.57.957,MST_test,2024.2.0,60.02116346267618,2026-01-18 11h01.05.613602 +0530,
34,0,35,o,4.555129299988039,None,35,0,34,224.79168890003348,,,,,,,,,,,,,,,,,,,,,,,,,,,,,,,,,,,,,,,,,,,,,,,,,,224.77559030003613,224.79168890003348,225.2919648999814,225.27514390001306,225.2849361000117,225.2919648999814,225.2919648999814,225.2919648999814,229.85904060001485,Objects\321b.jpg,post,o,4.555129299988039,None,,,,,,,,00045,001,2026-01-18_11h00.57.957,MST_test,2024.2.0,60.02116346267618,2026-01-18 11h01.05.613602 +0530,
35,0,36,n,1.2547313999966718,None,36,0,35,229.87482450000243,,,,,,,,,,,,,,,,,,,,,,,,,,,,,,,,,,,,,,,,,,,,,,,,,,229.85914399998728,229.87482450000243,230.37520910002058,230.35851099999854,230.36179510003421,230.37520910002058,230.37520910002058,230.37520910002058,231.64215060003335,Objects\080a.jpg,pre,n,1.2547313999966718,None,,,,,,,,00045,001,2026-01-18_11h00.57.957,MST_test,2024.2.0,60.02116346267618,2026-01-18 11h01.05.613602 +0530,
36,0,37,n,1.4558436999795958,None,37,0,36,231.65829260001192,,,,,,,,,,,,,,,,,,,,,,,,,,,,,,,,,,,,,,,,,,,,,,,,,,231.64224449999165,231.65829260001192,232.15830569999525,232.14200100000016,232.15249439998297,232.15830569999525,232.15830569999525,232.15830569999525,233.62525660003303,Foils\106a.jpg,none,n,1.4558436999795958,None,,,,,,,,00045,001,2026-01-18_11h00.57.957,MST_test,2024.2.0,60.02116346267618,2026-01-18 11h01.05.613602 +0530,
37,0,38,n,1.2073590999934822,None,38,0,37,233.6414960999973,,,,,,,,,,,,,,,,,,,,,,,,,,,,,,,,,,,,,,,,,,,,,,,,,,233.62534760002745,233.6414960999973,234.14178080001147,234.12515790003818,234.13607469998533,234.14178080001147,234.14178080001147,234.14178080001147,235.35871609998867,Foils\090a.jpg,none,n,1.2073590999934822,None,,,,,,,,00045,001,2026-01-18_11h00.57.957,MST_test,2024.2.0,60.02116346267618,2026-01-18 11h01.05.613602 +0530,
38,0,39,n,2.4594785000081174,None,39,0,38,235.37488299998222,,,,,,,,,,,,,,,,,,,,,,,,,,,,,,,,,,,,,,,,,,,,,,,,,,235.35881000000518,235.37488299998222,235.87489320000168,235.85854600003222,235.86859740002546,235.87489320000168,235.87489320000168,235.87489320000168,238.34205939999083,Foils\033a.jpg,none,n,2.4594785000081174,None,,,,,,,,00045,001,2026-01-18_11h00.57.957,MST_test,2024.2.0,60.02116346267618,2026-01-18 11h01.05.613602 +0530,
39,0,40,s,1.154611499980092,None,40,0,39,238.35815520002507,,,,,,,,,,,,,,,,,,,,,,,,,,,,,,,,,,,,,,,,,,,,,,,,,,238.34215540002333,238.35815520002507,238.85857119999127,238.84177370002726,238.85153440001886,238.85857119999127,238.85857119999127,238.85857119999127,240.02547230001073,Objects\036b.jpg,post,s,1.154611499980092,None,,,,,,,,00045,001,2026-01-18_11h00.57.957,MST_test,2024.2.0,60.02116346267618,2026-01-18 11h01.05.613602 +0530,
40,0,41,s,1.5998469000332989,None,41,0,40,240.0415861000074,,,,,,,,,,,,,,,,,,,,,,,,,,,,,,,,,,,,,,,,,,,,,,,,,,240.02556690003257,240.0415861000074,240.54167250002502,240.52516780002043,240.5345785000245,240.54167250002502,240.54167250002502,240.54167250002502,242.14221220003674,Objects\157b.jpg,post,s,1.5998469000332989,None,,,,,,,,00045,001,2026-01-18_11h00.57.957,MST_test,2024.2.0,60.02116346267618,2026-01-18 11h01.05.613602 +0530,
41,0,42,n,1.1626190999522805,None,42,0,41,242.1582466000109,,,,,,,,,,,,,,,,,,,,,,,,,,,,,,,,,,,,,,,,,,,,,,,,,,242.1423018000205,242.1582466000109,242.6586145000183,242.6418461999856,242.65295560000231,242.6586145000183,242.6586145000183,242.6586145000183,243.8255477999919,Foils\f6.jpg,none,n,1.1626190999522805,None,,,,,,,,00045,001,2026-01-18_11h00.57.957,MST_test,2024.2.0,60.02116346267618,2026-01-18 11h01.05.613602 +0530,
42,0,43,n,1.0879773000488058,None,43,0,42,243.84172690002015,,,,,,,,,,,,,,,,,,,,,,,,,,,,,,,,,,,,,,,,,,,,,,,,,,243.82564009999624,243.84172690002015,244.3419195000315,244.32515799999237,244.33685070002684,244.3419195000315,244.3419195000315,244.3419195000315,245.44219570001587,Foils\010a.jpg,none,n,1.0879773000488058,None,,,,,,,,00045,001,2026-01-18_11h00.57.957,MST_test,2024.2.0,60.02116346267618,2026-01-18 11h01.05.613602 +0530,
43,0,44,o,2.854769200028386,None,44,0,43,245.45813919999637,,,,,,,,,,,,,,,,,,,,,,,,,,,,,,,,,,,,,,,,,,,,,,,,,,245.4422888000263,245.45813919999637,245.95850400003837,245.9416836000164,245.95100440003444,245.95850400003837,245.95850400003837,245.95850400003837,248.82528250000905,Objects\323b.jpg,mid,o,2.854769200028386,None,,,,,,,,00045,001,2026-01-18_11h00.57.957,MST_test,2024.2.0,60.02116346267618,2026-01-18 11h01.05.613602 +0530,
44,0,45,o,2.4159722000476904,None,45,0,44,248.84143590001622,,,,,,,,,,,,,,,,,,,,,,,,,,,,,,,,,,,,,,,,,,,,,,,,,,248.82537079998292,248.84143590001622,249.34182090003742,249.32499140000436,249.32818609999958,249.34182090003742,249.34182090003742,249.34182090003742,251.75867790001212,Objects\137a.jpg,mid,o,2.4159722000476904,None,,,,,,,,00045,001,2026-01-18_11h00.57.957,MST_test,2024.2.0,60.02116346267618,2026-01-18 11h01.05.613602 +0530,
45,0,46,o,1.2265287999762222,None,46,0,45,251.7746460000053,,,,,,,,,,,,,,,,,,,,,,,,,,,,,,,,,,,,,,,,,,,,,,,,,,251.75880449998658,251.7746460000053,252.27491390000796,252.25840200000675,252.26786100002937,252.27491390000796,252.27491390000796,252.27491390000796,253.5087835000013,Objects\003b.jpg,pre,o,1.2265287999762222,None,,,,,,,,00045,001,2026-01-18_11h00.57.957,MST_test,2024.2.0,60.02116346267618,2026-01-18 11h01.05.613602 +0530,
46,0,47,s,1.381476400012616,None,47,0,46,253.52468139998382,,,,,,,,,,,,,,,,,,,,,,,,,,,,,,,,,,,,,,,,,,,,,,,,,,253.50887580000563,253.52468139998382,254.02501809998648,254.00833430001512,254.01782040001126,254.02501809998648,254.02501809998648,254.02501809998648,255.40875960001722,Objects\146b.jpg,pre,s,1.381476400012616,None,,,,,,,,00045,001,2026-01-18_11h00.57.957,MST_test,2024.2.0,60.02116346267618,2026-01-18 11h01.05.613602 +0530,
47,0,48,o,1.3682630999828689,None,48,0,47,255.424659900018,,,,,,,,,,,,,,,,,,,,,,,,,,,,,,,,,,,,,,,,,,,,,,,,,,255.40885030000936,255.424659900018,255.92524020001292,255.90850389999105,255.9113992000348,255.92524020001292,255.92524020001292,255.92524020001292,257.3088229999994,Objects\229a.jpg,post,o,1.3682630999828689,None,,,,,,,,00045,001,2026-01-18_11h00.57.957,MST_test,2024.2.0,60.02116346267618,2026-01-18 11h01.05.613602 +0530,
48,0,49,o,1.0610304999863729,None,49,0,48,257.3246914999909,,,,,,,,,,,,,,,,,,,,,,,,,,,,,,,,,,,,,,,,,,,,,,,,,,257.30891760002123,257.3246914999909,257.82517020002706,257.80843480001204,257.8116832000087,257.82517020002706,257.82517020002706,257.82517020002706,258.89209520001896,Objects\070a.jpg,pre,o,1.0610304999863729,None,,,,,,,,00045,001,2026-01-18_11h00.57.957,MST_test,2024.2.0,60.02116346267618,2026-01-18 11h01.05.613602 +0530,
49,0,50,s,1.9972554999985732,None,50,0,49,258.9081828999915,,,,,,,,,,,,,,,,,,,,,,,,,,,,,,,,,,,,,,,,,,,,,,,,,,258.89218650001567,258.9081828999915,259.408484900021,259.39166309998836,259.3947101000231,259.408484900021,259.408484900021,259.408484900021,261.40875750000123,Objects\232a.jpg,post,s,1.9972554999985732,None,,,,,,,,00045,001,2026-01-18_11h00.57.957,MST_test,2024.2.0,60.02116346267618,2026-01-18 11h01.05.613602 +0530,
50,0,51,n,1.5048402000102215,None,51,0,50,261.4246592000127,,,,,,,,,,,,,,,,,,,,,,,,,,,,,,,,,,,,,,,,,,,,,,,,,,261.4088453000295,261.4246592000127,261.9251362000359,261.908433100034,261.91124330001185,261.9251362000359,261.9251362000359,261.9251362000359,263.4423640000168,Objects\262a.jpg,mid,n,1.5048402000102215,None,,,,,,,,00045,001,2026-01-18_11h00.57.957,MST_test,2024.2.0,60.02116346267618,2026-01-18 11h01.05.613602 +0530,
51,0,52,o,1.1193809999967925,None,52,0,51,263.45808280003257,,,,,,,,,,,,,,,,,,,,,,,,,,,,,,,,,,,,,,,,,,,,,,,,,,263.4424552000128,263.45808280003257,263.95849079999607,263.9417045000009,263.94454210001277,263.95849079999607,263.95849079999607,263.95849079999607,265.09207539999625,Objects\188a.jpg,pre,o,1.1193809999967925,None,,,,,,,,00045,001,2026-01-18_11h00.57.957,MST_test,2024.2.0,60.02116346267618,2026-01-18 11h01.05.613602 +0530,
52,0,53,o,1.1816794999758713,None,53,0,52,265.10814979998395,,,,,,,,,,,,,,,,,,,,,,,,,,,,,,,,,,,,,,,,,,,,,,,,,,265.09216440003365,265.10814979998395,265.60831720003625,265.59165910002775,265.5943176000146,265.60831720003625,265.60831720003625,265.60831720003625,266.79213710001204,Objects\366a.jpg,pre,o,1.1816794999758713,None,,,,,,,,00045,001,2026-01-18_11h00.57.957,MST_test,2024.2.0,60.02116346267618,2026-01-18 11h01.05.613602 +0530,
53,0,54,s,1.7856293999939226,None,54,0,53,266.8080849000253,,,,,,,,,,,,,,,,,,,,,,,,,,,,,,,,,,,,,,,,,,,,,,,,,,266.7922280000057,266.8080849000253,267.30855870002415,267.2920542000211,267.3013492000173,267.30855870002415,267.30855870002415,267.30855870002415,269.10864480002783,Objects\291b.jpg,pre,s,1.7856293999939226,None,,,,,,,,00045,001,2026-01-18_11h00.57.957,MST_test,2024.2.0,60.02116346267618,2026-01-18 11h01.05.613602 +0530,
54,0,55,o,1.0287918000249192,None,55,0,54,269.1247749000322,,,,,,,,,,,,,,,,,,,,,,,,,,,,,,,,,,,,,,,,,,,,,,,,,,269.1087331000017,269.1247749000322,269.6249972000369,269.60841159999836,269.6111925999867,269.6249972000369,269.6249972000369,269.6249972000369,270.6587331999908,Objects\172a.jpg,pre,o,1.0287918000249192,None,,,,,,,,00045,001,2026-01-18_11h00.57.957,MST_test,2024.2.0,60.02116346267618,2026-01-18 11h01.05.613602 +0530,
55,0,56,n,1.3991496000089683,None,56,0,55,270.67465619998984,,,,,,,,,,,,,,,,,,,,,,,,,,,,,,,,,,,,,,,,,,,,,,,,,,270.65882419998525,270.67465619998984,271.17494540003827,271.15836810000474,271.1682872000383,271.17494540003827,271.17494540003827,271.17494540003827,272.575386099983,Foils\050a.jpg,none,n,1.3991496000089683,None,,,,,,,,00045,001,2026-01-18_11h00.57.957,MST_test,2024.2.0,60.02116346267618,2026-01-18 11h01.05.613602 +0530,
56,0,57,n,1.154738900018856,None,57,0,56,272.5915051000193,,,,,,,,,,,,,,,,,,,,,,,,,,,,,,,,,,,,,,,,,,,,,,,,,,272.575479799998,272.5915051000193,273.091806499986,273.0752121999976,273.0854819000233,273.091806499986,273.091806499986,273.091806499986,274.25881359999767,Objects\040b.jpg,mid,n,1.154738900018856,None,,,,,,,,00045,001,2026-01-18_11h00.57.957,MST_test,2024.2.0,60.02116346267618,2026-01-18 11h01.05.613602 +0530,
57,0,58,s,1.3197810999699868,None,58,0,57,274.2746771000093,,,,,,,,,,,,,,,,,,,,,,,,,,,,,,,,,,,,,,,,,,,,,,,,,,274.25890570000047,274.2746771000093,274.7752019999898,274.75843869999517,274.76810739998473,274.7752019999898,274.7752019999898,274.7752019999898,276.10863470000913,Objects\256b.jpg,mid,s,1.3197810999699868,None,,,,,,,,00045,001,2026-01-18_11h00.57.957,MST_test,2024.2.0,60.02116346267618,2026-01-18 11h01.05.613602 +0530,
58,0,59,s,1.1243158000288531,None,59,0,58,276.124699899985,,,,,,,,,,,,,,,,,,,,,,,,,,,,,,,,,,,,,,,,,,,,,,,,,,276.1087240999914,276.124699899985,276.6250504000345,276.6084998000297,276.6185344000114,276.6250504000345,276.6250504000345,276.6250504000345,277.7589762000134,Objects\031b.jpg,mid,s,1.1243158000288531,None,,,,,,,,00045,001,2026-01-18_11h00.57.957,MST_test,2024.2.0,60.02116346267618,2026-01-18 11h01.05.613602 +0530,
59,0,60,n,1.0987737000104971,None,60,0,59,277.7745927000069,,,,,,,,,,,,,,,,,,,,,,,,,,,,,,,,,,,,,,,,,,,,,,,,,,277.7590679000132,277.7745927000069,278.27502280002227,278.2583297000383,278.26769419998163,278.27502280002227,278.27502280002227,278.27502280002227,279.37552280002274,Objects\057b.jpg,mid,n,1.0987737000104971,None,,,,,,,,00045,001,2026-01-18_11h00.57.957,MST_test,2024.2.0,60.02116346267618,2026-01-18 11h01.05.613602 +0530,
60,0,61,o,0.9622292999993078,None,61,0,60,279.3916394999833,,,,,,,,,,,,,,,,,,,,,,,,,,,,,,,,,,,,,,,,,,,,,,,,,,279.3756169999833,279.3916394999833,279.8916617000359,279.8748905999819,279.8779494999908,279.8916617000359,279.8916617000359,279.8916617000359,280.85881830001017,Objects\008a.jpg,post,o,0.9622292999993078,None,,,,,,,,00045,001,2026-01-18_11h00.57.957,MST_test,2024.2.0,60.02116346267618,2026-01-18 11h01.05.613602 +0530,
61,0,62,o,1.0950085999793373,None,62,0,61,280.87465960002737,,,,,,,,,,,,,,,,,,,,,,,,,,,,,,,,,,,,,,,,,,,,,,,,,,280.8589090000023,280.87465960002737,281.3748821000336,281.35847919998923,281.36905099998694,281.3748821000336,281.3748821000336,281.3748821000336,282.475246099988,Objects\101b.jpg,pre,o,1.0950085999793373,None,,,,,,,,00045,001,2026-01-18_11h00.57.957,MST_test,2024.2.0,60.02116346267618,2026-01-18 11h01.05.613602 +0530,
62,0,63,o,1.0781769999885,None,63,0,62,282.491452199989,,,,,,,,,,,,,,,,,,,,,,,,,,,,,,,,,,,,,,,,,,,,,,,,,,282.47533470002236,282.491452199989,282.9916416000342,282.9749977000174,282.9777029000106,282.9916416000342,282.9916416000342,282.9916416000342,284.07542870001635,Objects\234a.jpg,mid,o,1.0781769999885,None,,,,,,,,00045,001,2026-01-18_11h00.57.957,MST_test,2024.2.0,60.02116346267618,2026-01-18 11h01.05.613602 +0530,
63,0,64,s,1.9255473000230268,None,64,0,63,284.09150360000785,,,,,,,,,,,,,,,,,,,,,,,,,,,,,,,,,,,,,,,,,,,,,,,,,,284.0755225000321,284.09150360000785,284.5917094000033,284.5749921000097,284.57745789998444,284.5917094000033,284.5917094000033,284.5917094000033,286.5254193000146,Objects\317a.jpg,post,s,1.9255473000230268,None,,,,,,,,00045,001,2026-01-18_11h00.57.957,MST_test,2024.2.0,60.02116346267618,2026-01-18 11h01.05.613602 +0530,
64,0,65,n,1.8365902000223286,None,65,0,64,286.5414255000069,,,,,,,,,,,,,,,,,,,,,,,,,,,,,,,,,,,,,,,,,,,,,,,,,,286.5255101000075,286.5414255000069,287.04178390000015,287.02491440001177,287.0275871999911,287.04178390000015,287.04178390000015,287.04178390000015,288.892089400033,Objects\046a.jpg,post,n,1.8365902000223286,None,,,,,,,,00045,001,2026-01-18_11h00.57.957,MST_test,2024.2.0,60.02116346267618,2026-01-18 11h01.05.613602 +0530,
65,0,66,n,1.0532783000380732,None,66,0,65,288.9081636000192,,,,,,,,,,,,,,,,,,,,,,,,,,,,,,,,,,,,,,,,,,,,,,,,,,288.89217880001524,288.9081636000192,289.40829980000854,289.391737500031,289.3938312000246,289.40829980000854,289.40829980000854,289.40829980000854,290.47516600001836,Objects\225a.jpg,pre,n,1.0532783000380732,None,,,,,,,,00045,001,2026-01-18_11h00.57.957,MST_test,2024.2.0,60.02116346267618,2026-01-18 11h01.05.613602 +0530,
66,0,67,o,1.0062230000039563,None,67,0,66,290.4914802000276,,,,,,,,,,,,,,,,,,,,,,,,,,,,,,,,,,,,,,,,,,,,,,,,,,290.4752540999907,290.4914802000276,290.9916701000184,290.9751411000034,290.9777223999845,290.9916701000184,290.9916701000184,290.9916701000184,292.00879709998844,Objects\052a.jpg,mid,o,1.0062230000039563,None,,,,,,,,00045,001,2026-01-18_11h00.57.957,MST_test,2024.2.0,60.02116346267618,2026-01-18 11h01.05.613602 +0530,
67,0,68,o,1.0325593000161462,None,68,0,67,292.0246854000143,,,,,,,,,,,,,,,,,,,,,,,,,,,,,,,,,,,,,,,,,,,,,,,,,,292.0088987000054,292.0246854000143,292.52501660003327,292.508350100019,292.5180631999974,292.52501660003327,292.52501660003327,292.52501660003327,293.55904980003834,Objects\002b.jpg,mid,o,1.0325593000161462,None,,,,,,,,00045,001,2026-01-18_11h00.57.957,MST_test,2024.2.0,60.02116346267618,2026-01-18 11h01.05.613602 +0530,
68,0,69,s,1.6586714999866672,None,69,0,68,293.5747690999997,,,,,,,,,,,,,,,,,,,,,,,,,,,,,,,,,,,,,,,,,,,,,,,,,,293.55914830003167,293.5747690999997,294.0750705000246,294.0583977000206,294.0675888999831,294.0750705000246,294.0750705000246,294.0750705000246,295.74217570002656,Objects\056b.jpg,pre,s,1.6586714999866672,None,,,,,,,,00045,001,2026-01-18_11h00.57.957,MST_test,2024.2.0,60.02116346267618,2026-01-18 11h01.05.613602 +0530,
69,0,70,o,2.7155621999991126,None,70,0,69,295.7581563999993,,,,,,,,,,,,,,,,,,,,,,,,,,,,,,,,,,,,,,,,,,,,,,,,,,295.74227530002827,295.7581563999993,296.25858279998647,296.24179360002745,296.25153310003225,296.25858279998647,296.25858279998647,296.25858279998647,298.9754544000025,Objects\346b.jpg,post,o,2.7155621999991126,None,,,,,,,,00045,001,2026-01-18_11h00.57.957,MST_test,2024.2.0,60.02116346267618,2026-01-18 11h01.05.613602 +0530,
70,0,71,n,1.4576463000266813,None,71,0,70,298.9914436999825,,,,,,,,,,,,,,,,,,,,,,,,,,,,,,,,,,,,,,,,,,,,,,,,,,298.9755431000376,298.9914436999825,299.49188749998575,299.4749152000295,299.4853183000232,299.49188749998575,299.49188749998575,299.49188749998575,300.9590141000226,Foils\086a.jpg,none,n,1.4576463000266813,None,,,,,,,,00045,001,2026-01-18_11h00.57.957,MST_test,2024.2.0,60.02116346267618,2026-01-18 11h01.05.613602 +0530,
71,0,72,s,1.2664887999999337,None,72,0,71,300.97484550002264,,,,,,,,,,,,,,,,,,,,,,,,,,,,,,,,,,,,,,,,,,,,,,,,,,300.95911100000376,300.97484550002264,301.47484909999184,301.4584173000185,301.46810050000204,301.47484909999184,301.47484909999184,301.47484909999184,302.74217879999196,Foils\018a.jpg,none,s,1.2664887999999337,None,,,,,,,,00045,001,2026-01-18_11h00.57.957,MST_test,2024.2.0,60.02116346267618,2026-01-18 11h01.05.613602 +0530,
72,0,73,o,0.9075523000210524,None,73,0,72,302.75811769999564,,,,,,,,,,,,,,,,,,,,,,,,,,,,,,,,,,,,,,,,,,,,,,,,,,302.74227430002065,302.75811769999564,303.2583871000097,303.2417008000193,303.2444967000047,303.2583871000097,303.2583871000097,303.2583871000097,304.175424200017,Objects\048a.jpg,post,o,0.9075523000210524,None,,,,,,,,00045,001,2026-01-18_11h00.57.957,MST_test,2024.2.0,60.02116346267618,2026-01-18 11h01.05.613602 +0530,
73,0,74,o,1.22659360000398,None,74,0,73,304.19151350000175,,,,,,,,,,,,,,,,,,,,,,,,,,,,,,,,,,,,,,,,,,,,,,,,,,304.17551440000534,304.19151350000175,304.69199269998353,304.674991100037,304.68735419999575,304.69199269998353,304.69199269998353,304.69199269998353,305.925330099999,Objects\322b.jpg,pre,o,1.22659360000398,None,,,,,,,,00045,001,2026-01-18_11h00.57.957,MST_test,2024.2.0,60.02116346267618,2026-01-18 11h01.05.613602 +0530,
74,0,75,o,1.260263800038956,None,75,0,74,305.94150260003516,,,,,,,,,,,,,,,,,,,,,,,,,,,,,,,,,,,,,,,,,,,,,,,,,,305.9254194999812,305.94150260003516,306.44191430002684,306.42501380003523,306.4282408999861,306.44191430002684,306.44191430002684,306.44191430002684,307.7086602000054,Objects\107a.jpg,pre,o,1.260263800038956,None,,,,,,,,00045,001,2026-01-18_11h00.57.957,MST_test,2024.2.0,60.02116346267618,2026-01-18 11h01.05.613602 +0530,
75,0,76,n,2.061094500008039,None,76,0,75,307.72460930002853,,,,,,,,,,,,,,,,,,,,,,,,,,,,,,,,,,,,,,,,,,,,,,,,,,307.7087484000367,307.72460930002853,308.22523380001076,308.20844950003084,308.21859050000785,308.22523380001076,308.22523380001076,308.22523380001076,310.2921798999887,Objects\195b.jpg,post,n,2.061094500008039,None,,,,,,,,00045,001,2026-01-18_11h00.57.957,MST_test,2024.2.0,60.02116346267618,2026-01-18 11h01.05.613602 +0530,
76,0,77,n,2.597376699966844,None,77,0,76,310.3082703999826,,,,,,,,,,,,,,,,,,,,,,,,,,,,,,,,,,,,,,,,,,,,,,,,,,310.2922692000284,310.3082703999826,310.80869059998076,310.7918332000263,310.8016583999852,310.80869059998076,310.80869059998076,310.80869059998076,313.4087609000271,Objects\233b.jpg,mid,n,2.597376699966844,None,,,,,,,,00045,001,2026-01-18_11h00.57.957,MST_test,2024.2.0,60.02116346267618,2026-01-18 11h01.05.613602 +0530,
77,0,78,s,1.6245564999990165,None,78,0,77,313.42478659999324,,,,,,,,,,,,,,,,,,,,,,,,,,,,,,,,,,,,,,,,,,,,,,,,,,313.40884980000556,313.42478659999324,313.9251920999959,313.90862499998184,313.91917429998284,313.9251920999959,313.9251920999959,313.9251920999959,315.5588851000066,Foils\017a.jpg,none,s,1.6245564999990165,None,,,,,,,,00045,001,2026-01-18_11h00.57.957,MST_test,2024.2.0,60.02116346267618,2026-01-18 11h01.05.613602 +0530,
78,0,79,n,1.258058900013566,None,79,0,78,315.5748470000108,,,,,,,,,,,,,,,,,,,,,,,,,,,,,,,,,,,,,,,,,,,,,,,,,,315.5589733000379,315.5748470000108,316.0751602000091,316.0586488000117,316.06837480003014,316.0751602000091,316.0751602000091,316.0751602000091,317.34239420003723,Objects\063b.jpg,post,n,1.258058900013566,None,,,,,,,,00045,001,2026-01-18_11h00.57.957,MST_test,2024.2.0,60.02116346267618,2026-01-18 11h01.05.613602 +0530,
79,0,80,s,2.018574899993837,None,80,0,79,317.35814179998124,,,,,,,,,,,,,,,,,,,,,,,,,,,,,,,,,,,,,,,,,,,,,,,,,,317.34249559999444,317.35814179998124,317.8586643000017,317.8417693999945,317.84492040000623,317.8586643000017,317.8586643000017,317.8586643000017,319.89226729999064,Objects\382a.jpg,mid,s,2.018574899993837,None,,,,,,,,00045,001,2026-01-18_11h00.57.957,MST_test,2024.2.0,60.02116346267618,2026-01-18 11h01.05.613602 +0530,
80,0,81,n,1.0764372000121512,None,81,0,80,319.908253600006,,,,,,,,,,,,,,,,,,,,,,,,,,,,,,,,,,,,,,,,,,,,,,,,,,319.892357899982,319.908253600006,320.4087602000218,320.3918297000346,320.4020295999944,320.4087602000218,320.4087602000218,320.4087602000218,321.49219750001794,Objects\370b.jpg,mid,n,1.0764372000121512,None,,,,,,,,00045,001,2026-01-18_11h00.57.957,MST_test,2024.2.0,60.02116346267618,2026-01-18 11h01.05.613602 +0530,
81,0,82,s,2.8773412000155076,None,82,0,81,321.5082736000186,,,,,,,,,,,,,,,,,,,,,,,,,,,,,,,,,,,,,,,,,,,,,,,,,,321.4922918000375,321.5082736000186,322.00853210000787,321.99192060000496,322.0014908000012,322.00853210000787,322.00853210000787,322.00853210000787,324.89218339999206,Foils\020b.jpg,none,s,2.8773412000155076,None,,,,,,,,00045,001,2026-01-18_11h00.57.957,MST_test,2024.2.0,60.02116346267618,2026-01-18 11h01.05.613602 +0530,
82,0,83,n,4.1730820999946445,None,83,0,82,324.90830489998916,,,,,,,,,,,,,,,,,,,,,,,,,,,,,,,,,,,,,,,,,,,,,,,,,,324.89227250003023,324.90830489998916,325.40861980000045,325.3918852999923,325.40174599998863,325.40861980000045,325.40861980000045,325.40861980000045,329.5922717000358,Objects\251b.jpg,post,n,4.1730820999946445,None,,,,,,,,00045,001,2026-01-18_11h00.57.957,MST_test,2024.2.0,60.02116346267618,2026-01-18 11h01.05.613602 +0530,
83,0,84,o,1.0492354999878444,None,84,0,83,329.6082627000287,,,,,,,,,,,,,,,,,,,,,,,,,,,,,,,,,,,,,,,,,,,,,,,,,,329.5923716999823,329.6082627000287,330.1086434000172,330.0918732000282,330.1021526000113,330.1086434000172,330.1086434000172,330.1086434000172,331.15886840003077,Objects\132b.jpg,mid,o,1.0492354999878444,None,,,,,,,,00045,001,2026-01-18_11h00.57.957,MST_test,2024.2.0,60.02116346267618,2026-01-18 11h01.05.613602 +0530,
84,0,85,n,2.65859880001517,None,85,0,84,331.1748630999937,,,,,,,,,,,,,,,,,,,,,,,,,,,,,,,,,,,,,,,,,,,,,,,,,,331.1589565000031,331.1748630999937,331.6750780000002,331.6585596000077,331.66801780002424,331.6750780000002,331.6750780000002,331.6750780000002,334.3422833000077,Objects\028b.jpg,mid,n,2.65859880001517,None,,,,,,,,00045,001,2026-01-18_11h00.57.957,MST_test,2024.2.0,60.02116346267618,2026-01-18 11h01.05.613602 +0530,
85,0,86,o,1.3627395000075921,None,86,0,85,334.3582194999908,,,,,,,,,,,,,,,,,,,,,,,,,,,,,,,,,,,,,,,,,,,,,,,,,,334.3423827000079,334.3582194999908,334.8584780000383,334.8419167000102,334.84431210003095,334.8584780000383,334.8584780000383,334.8584780000383,336.2255768000032,Objects\342a.jpg,post,o,1.3627395000075921,None,,,,,,,,00045,001,2026-01-18_11h00.57.957,MST_test,2024.2.0,60.02116346267618,2026-01-18 11h01.05.613602 +0530,
86,0,87,o,1.047216799983289,None,87,0,86,336.24162340001203,,,,,,,,,,,,,,,,,,,,,,,,,,,,,,,,,,,,,,,,,,,,,,,,,,336.2256634000223,336.24162340001203,336.7419716999866,336.72520089999307,336.72806069999933,336.7419716999866,336.7419716999866,336.7419716999866,337.7922421999974,Objects\375a.jpg,pre,o,1.047216799983289,None,,,,,,,,00045,001,2026-01-18_11h00.57.957,MST_test,2024.2.0,60.02116346267618,2026-01-18 11h01.05.613602 +0530,
87,0,88,o,2.424693000037223,None,88,0,87,337.8081888000015,,,,,,,,,,,,,,,,,,,,,,,,,,,,,,,,,,,,,,,,,,,,,,,,,,337.79233419999946,337.8081888000015,338.3086081999936,338.2917810000363,338.30209960002685,338.3086081999936,338.3086081999936,338.3086081999936,340.74216249998426,Objects\119b.jpg,mid,o,2.424693000037223,None,,,,,,,,00045,001,2026-01-18_11h00.57.957,MST_test,2024.2.0,60.02116346267618,2026-01-18 11h01.05.613602 +0530,
88,0,89,o,1.0350084000383504,None,89,0,88,340.75826460000826,,,,,,,,,,,,,,,,,,,,,,,,,,,,,,,,,,,,,,,,,,,,,,,,,,340.74225000001024,340.75826460000826,341.25863490003394,341.2419119999977,341.25158530002227,341.25863490003394,341.25863490003394,341.25863490003394,342.30893900000956,Objects\250b.jpg,post,o,1.0350084000383504,None,,,,,,,,00045,001,2026-01-18_11h00.57.957,MST_test,2024.2.0,60.02116346267618,2026-01-18 11h01.05.613602 +0530,
89,0,90,o,1.3404228999861516,None,90,0,89,342.32517510000616,,,,,,,,,,,,,,,,,,,,,,,,,,,,,,,,,,,,,,,,,,,,,,,,,,342.3090272999834,342.32517510000616,342.82533220003825,342.80846840003505,342.81154309998965,342.82533220003825,342.82533220003825,342.82533220003825,344.17523520003306,Objects\380a.jpg,post,o,1.3404228999861516,None,,,,,,,,00045,001,2026-01-18_11h00.57.957,MST_test,2024.2.0,60.02116346267618,2026-01-18 11h01.05.613602 +0530,
90,0,91,o,0.8173983999877237,None,91,0,90,344.19151889998466,,,,,,,,,,,,,,,,,,,,,,,,,,,,,,,,,,,,,,,,,,,,,,,,,,344.1753262000275,344.19151889998466,344.6917656000005,344.67515309999,344.6779908000026,344.6917656000005,344.6917656000005,344.6917656000005,345.52544850000413,Objects\058a.jpg,post,o,0.8173983999877237,None,,,,,,,,00045,001,2026-01-18_11h00.57.957,MST_test,2024.2.0,60.02116346267618,2026-01-18 11h01.05.613602 +0530,
91,0,92,n,1.2434319999883883,None,92,0,91,345.54169410001487,,,,,,,,,,,,,,,,,,,,,,,,,,,,,,,,,,,,,,,,,,,,,,,,,,345.5255371000385,345.54169410001487,346.042001600028,346.0252224000287,346.0347940000356,346.042001600028,346.042001600028,346.042001600028,347.2921192999929,Foils\f5.jpg,none,n,1.2434319999883883,None,,,,,,,,00045,001,2026-01-18_11h00.57.957,MST_test,2024.2.0,60.02116346267618,2026-01-18 11h01.05.613602 +0530,
92,0,93,s,1.5485981999663636,None,93,0,92,347.308284800034,,,,,,,,,,,,,,,,,,,,,,,,,,,,,,,,,,,,,,,,,,,,,,,,,,347.29220750002423,347.308284800034,347.80860809999285,347.7918122999836,347.8027677999926,347.80860809999285,347.80860809999285,347.80860809999285,349.3593118999852,Objects\182b.jpg,pre,s,1.5485981999663636,None,,,,,,,,00045,001,2026-01-18_11h00.57.957,MST_test,2024.2.0,60.02116346267618,2026-01-18 11h01.05.613602 +0530,
93,0,94,s,1.3381820999784395,None,94,0,93,349.3749362999806,,,,,,,,,,,,,,,,,,,,,,,,,,,,,,,,,,,,,,,,,,,,,,,,,,349.3594022000325,349.3749362999806,349.8749838999938,349.8587743000244,349.86811410001246,349.8749838999938,349.8749838999938,349.8749838999938,351.22536420001416,Foils\065a.jpg,none,s,1.3381820999784395,None,,,,,,,,00045,001,2026-01-18_11h00.57.957,MST_test,2024.2.0,60.02116346267618,2026-01-18 11h01.05.613602 +0530,
94,0,95,n,2.05614770000102,None,95,0,94,351.2415000000037,,,,,,,,,,,,,,,,,,,,,,,,,,,,,,,,,,,,,,,,,,,,,,,,,,351.22545610001544,351.2415000000037,351.74181640002644,351.7252184000099,351.72754629998235,351.74181640002644,351.74181640002644,351.74181640002644,353.8086483000079,Objects\140a.jpg,mid,n,2.05614770000102,None,,,,,,,,00045,001,2026-01-18_11h00.57.957,MST_test,2024.2.0,60.02116346267618,2026-01-18 11h01.05.613602 +0530,
95,0,96,o,1.0564876000280492,None,96,0,95,353.82495159999235,,,,,,,,,,,,,,,,,,,,,,,,,,,,,,,,,,,,,,,,,,,,,,,,,,353.8087383999955,353.82495159999235,354.3253330999869,354.30853490001755,354.31126729998505,354.3253330999869,354.3253330999869,354.3253330999869,355.3921972999815,Objects\368a.jpg,post,o,1.0564876000280492,None,,,,,,,,00045,001,2026-01-18_11h00.57.957,MST_test,2024.2.0,60.02116346267618,2026-01-18 11h01.05.613602 +0530,
96,0,97,n,1.5448268000036478,None,97,0,96,355.40829510003095,,,,,,,,,,,,,,,,,,,,,,,,,,,,,,,,,,,,,,,,,,,,,,,,,,355.3922852000105,355.40829510003095,355.90852490003454,355.89182560000336,355.8947829999961,355.90852490003454,355.90852490003454,355.90852490003454,357.45874550001463,Objects\212a.jpg,pre,n,1.5448268000036478,None,,,,,,,,00045,001,2026-01-18_11h00.57.957,MST_test,2024.2.0,60.02116346267618,2026-01-18 11h01.05.613602 +0530,
97,0,98,o,1.486755300022196,None,98,0,97,357.4747457000194,,,,,,,,,,,,,,,,,,,,,,,,,,,,,,,,,,,,,,,,,,,,,,,,,,357.45883780001896,357.4747457000194,357.9753118000226,357.95844970003236,357.96838199999183,357.9753118000226,357.9753118000226,357.9753118000226,359.4755390000064,Objects\203b.jpg,post,o,1.486755300022196,None,,,,,,,,00045,001,2026-01-18_11h00.57.957,MST_test,2024.2.0,60.02116346267618,2026-01-18 11h01.05.613602 +0530,
98,0,99,n,1.037745299981907,None,99,0,98,359.4916372000007,,,,,,,,,,,,,,,,,,,,,,,,,,,,,,,,,,,,,,,,,,,,,,,,,,359.47562889999244,359.4916372000007,359.99209300003713,359.9752360000275,359.986068600032,359.99209300003713,359.99209300003713,359.99209300003713,361.0422754000174,Foils\002a.jpg,none,n,1.037745299981907,None,,,,,,,,00045,001,2026-01-18_11h00.57.957,MST_test,2024.2.0,60.02116346267618,2026-01-18 11h01.05.613602 +0530,
99,0,100,n,1.5828150999732316,None,100,0,99,361.0583987000282,,,,,,,,,,,,,,,,,,,,,,,,,,,,,,,,,,,,,,,,,,,,,,,,,,361.04237019998254,361.0583987000282,361.55844380002236,361.5418662999873,361.5441416000249,361.55844380002236,361.55844380002236,361.55844380002236,363.1421701000072,Objects\333a.jpg,mid,n,1.5828150999732316,None,,,,,,,,00045,001,2026-01-18_11h00.57.957,MST_test,2024.2.0,60.02116346267618,2026-01-18 11h01.05.613602 +0530,
100,0,101,o,1.2668795000063255,None,101,0,100,363.1581636000192,,,,,,,,,,,,,,,,,,,,,,,,,,,,,,,,,,,,,,,,,,,,,,,,,,363.14227549999487,363.1581636000192,363.6584709000308,363.64178240002366,363.6530400000047,363.6584709000308,363.6584709000308,363.6584709000308,364.94203919998836,Objects\035b.jpg,pre,o,1.2668795000063255,None,,,,,,,,00045,001,2026-01-18_11h00.57.957,MST_test,2024.2.0,60.02116346267618,2026-01-18 11h01.05.613602 +0530,
101,0,102,n,2.4353095999686047,None,102,0,101,364.9583039000281,,,,,,,,,,,,,,,,,,,,,,,,,,,,,,,,,,,,,,,,,,,,,,,,,,364.9421270000166,364.9583039000281,365.45842819998506,365.441892700037,365.451323700021,365.45842819998506,365.45842819998506,365.45842819998506,367.90885170002,Objects\179b.jpg,mid,n,2.4353095999686047,None,,,,,,,,00045,001,2026-01-18_11h00.57.957,MST_test,2024.2.0,60.02116346267618,2026-01-18 11h01.05.613602 +0530,
102,0,103,o,0.9327487999689765,None,103,0,102,367.9247146000271,,,,,,,,,,,,,,,,,,,,,,,,,,,,,,,,,,,,,,,,,,,,,,,,,,367.9089527000324,367.9247146000271,368.4248308999813,368.4083856000216,368.4108166000224,368.4248308999813,368.4248308999813,368.4248308999813,369.35879530000966,Objects\158a.jpg,post,o,0.9327487999689765,None,,,,,,,,00045,001,2026-01-18_11h00.57.957,MST_test,2024.2.0,60.02116346267618,2026-01-18 11h01.05.613602 +0530,
103,0,104,n,4.6988252000301145,None,104,0,103,369.3747956000152,,,,,,,,,,,,,,,,,,,,,,,,,,,,,,,,,,,,,,,,,,,,,,,,,,369.3588875000132,369.3747956000152,369.8750286999857,369.8584542000317,369.8679446000024,369.8750286999857,369.8750286999857,369.8750286999857,374.5753553999821,Foils\097a.jpg,none,n,4.6988252000301145,None,,,,,,,,00045,001,2026-01-18_11h00.57.957,MST_test,2024.2.0,60.02116346267618,2026-01-18 11h01.05.613602 +0530,
104,0,105,o,1.393551799992565,None,105,0,104,374.5915165999904,,,,,,,,,,,,,,,,,,,,,,,,,,,,,,,,,,,,,,,,,,,,,,,,,,374.5754514000146,374.5915165999904,375.09173570002895,375.07503619999625,375.08494020003127,375.09173570002895,375.09173570002895,375.09173570002895,376.49206220003543,Objects\149b.jpg,pre,o,1.393551799992565,None,,,,,,,,00045,001,2026-01-18_11h00.57.957,MST_test,2024.2.0,60.02116346267618,2026-01-18 11h01.05.613602 +0530,
105,0,106,n,2.5177615000284277,None,106,0,105,376.5082339000073,,,,,,,,,,,,,,,,,,,,,,,,,,,,,,,,,,,,,,,,,,,,,,,,,,376.49214990000473,376.5082339000073,377.00841650000075,376.99181139998836,376.99463899998227,377.00841650000075,377.00841650000075,377.00841650000075,379.5420665999991,Objects\219a.jpg,pre,n,2.5177615000284277,None,,,,,,,,00045,001,2026-01-18_11h00.57.957,MST_test,2024.2.0,60.02116346267618,2026-01-18 11h01.05.613602 +0530,
106,0,107,n,1.2112943000392988,None,107,0,106,379.55820219998714,,,,,,,,,,,,,,,,,,,,,,,,,,,,,,,,,,,,,,,,,,,,,,,,,,379.5421535000205,379.55820219998714,380.058477899991,380.04183930001454,380.05137020000257,380.058477899991,380.058477899991,380.058477899991,381.27520680002635,Foils\058a.jpg,none,n,1.2112943000392988,None,,,,,,,,00045,001,2026-01-18_11h00.57.957,MST_test,2024.2.0,60.02116346267618,2026-01-18 11h01.05.613602 +0530,
107,0,108,o,1.6860060000326484,None,108,0,107,381.2915119000245,,,,,,,,,,,,,,,,,,,,,,,,,,,,,,,,,,,,,,,,,,,,,,,,,,381.2752937999903,381.2915119000245,381.79192749998765,381.77497060003225,381.7853870000108,381.79192749998765,381.79192749998765,381.79192749998765,383.4921503000078,Objects\332b.jpg,pre,o,1.6860060000326484,None,,,,,,,,00045,001,2026-01-18_11h00.57.957,MST_test,2024.2.0,60.02116346267618,2026-01-18 11h01.05.613602 +0530,
108,0,109,n,10.6295184000046,None,109,0,108,383.508116299985,,,,,,,,,,,,,,,,,,,,,,,,,,,,,,,,,,,,,,,,,,,,,,,,,,383.49223810003605,383.508116299985,384.0084748000372,383.991792100016,383.99535450001713,384.0084748000372,384.0084748000372,384.0084748000372,394.6421642000205,Objects\079a.jpg,post,n,10.6295184000046,None,,,,,,,,00045,001,2026-01-18_11h00.57.957,MST_test,2024.2.0,60.02116346267618,2026-01-18 11h01.05.613602 +0530,
109,0,110,n,1.3682463999721222,None,110,0,109,394.65813130000606,,,,,,,,,,,,,,,,,,,,,,,,,,,,,,,,,,,,,,,,,,,,,,,,,,394.6422585999826,394.65813130000606,395.1584241000237,395.1417756000301,395.15200030000415,395.1584241000237,395.1584241000237,395.1584241000237,396.5420832000091,Objects\019b.jpg,mid,n,1.3682463999721222,None,,,,,,,,00045,001,2026-01-18_11h00.57.957,MST_test,2024.2.0,60.02116346267618,2026-01-18 11h01.05.613602 +0530,
110,0,111,s,2.418976799992379,None,111,0,110,396.55818950000685,,,,,,,,,,,,,,,,,,,,,,,,,,,,,,,,,,,,,,,,,,,,,,,,,,396.5421698000282,396.55818950000685,397.05852840002626,397.0418354999856,397.05313300003763,397.05852840002626,397.05852840002626,397.05852840002626,399.49211420002393,Objects\231b.jpg,post,s,2.418976799992379,None,,,,,,,,00045,001,2026-01-18_11h00.57.957,MST_test,2024.2.0,60.02116346267618,2026-01-18 11h01.05.613602 +0530,
111,0,112,n,1.324760299990885,None,112,0,111,399.5081895000185,,,,,,,,,,,,,,,,,,,,,,,,,,,,,,,,,,,,,,,,,,,,,,,,,,399.49220310000237,399.5081895000185,400.00856240000576,399.9918109999853,399.99502380000195,400.00856240000576,400.00856240000576,400.00856240000576,401.3420559000224,Objects\120a.jpg,post,n,1.324760299990885,None,,,,,,,,00045,001,2026-01-18_11h00.57.957,MST_test,2024.2.0,60.02116346267618,2026-01-18 11h01.05.613602 +0530,
112,0,113,o,1.243109499977436,None,113,0,112,401.35819769999944,,,,,,,,,,,,,,,,,,,,,,,,,,,,,,,,,,,,,,,,,,,,,,,,,,401.3421421000385,401.35819769999944,401.85849990003044,401.8419268000289,401.8448527000146,401.85849990003044,401.85849990003044,401.85849990003044,403.1088371000369,Objects\099a.jpg,mid,o,1.243109499977436,None,,,,,,,,00045,001,2026-01-18_11h00.57.957,MST_test,2024.2.0,60.02116346267618,2026-01-18 11h01.05.613602 +0530,
113,0,114,o,0.8841850000317208,None,114,0,113,403.12475880002603,,,,,,,,,,,,,,,,,,,,,,,,,,,,,,,,,,,,,,,,,,,,,,,,,,403.1089261000161,403.12475880002603,403.6251833999995,403.60834849998355,403.6180170000298,403.6251833999995,403.6251833999995,403.6251833999995,404.52534340001876,Objects\354b.jpg,post,o,0.8841850000317208,None,,,,,,,,00045,001,2026-01-18_11h00.57.957,MST_test,2024.2.0,60.02116346267618,2026-01-18 11h01.05.613602 +0530,
114,0,115,s,1.3402832999709062,None,115,0,114,404.5415173000074,,,,,,,,,,,,,,,,,,,,,,,,,,,,,,,,,,,,,,,,,,,,,,,,,,404.5254344000132,404.5415173000074,405.0419323000242,405.0250132000074,405.0351731000119,405.0419323000242,405.0419323000242,405.0419323000242,406.3921929000062,Foils\049a.jpg,none,s,1.3402832999709062,None,,,,,,,,00045,001,2026-01-18_11h00.57.957,MST_test,2024.2.0,60.02116346267618,2026-01-18 11h01.05.613602 +0530,
115,0,116,n,1.1292869999888353,None,116,0,115,406.408216300013,,,,,,,,,,,,,,,,,,,,,,,,,,,,,,,,,,,,,,,,,,,,,,,,,,406.39228100003675,406.408216300013,406.9083786000265,406.89178190001985,406.90122210001573,406.9083786000265,406.9083786000265,406.9083786000265,408.0421027999837,Foils\074a.jpg,none,n,1.1292869999888353,None,,,,,,,,00045,001,2026-01-18_11h00.57.957,MST_test,2024.2.0,60.02116346267618,2026-01-18 11h01.05.613602 +0530,
116,0,117,s,1.5110325000132434,None,117,0,116,408.0582017999841,,,,,,,,,,,,,,,,,,,,,,,,,,,,,,,,,,,,,,,,,,,,,,,,,,408.0421913000173,408.0582017999841,408.55845700000646,408.54175229999237,408.55096870003035,408.55845700000646,408.55845700000646,408.55845700000646,410.0756926999893,Foils\082a.jpg,none,s,1.5110325000132434,None,,,,,,,,00045,001,2026-01-18_11h00.57.957,MST_test,2024.2.0,60.02116346267618,2026-01-18 11h01.05.613602 +0530,
117,0,118,s,1.757662000018172,None,118,0,117,410.0916539999889,,,,,,,,,,,,,,,,,,,,,,,,,,,,,,,,,,,,,,,,,,,,,,,,,,410.07578620000277,410.0916539999889,410.5918722000206,410.57522609998705,410.58559020003304,410.5918722000206,410.5918722000206,410.5918722000206,412.3587397999945,Foils\093b.jpg,none,s,1.757662000018172,None,,,,,,,,00045,001,2026-01-18_11h00.57.957,MST_test,2024.2.0,60.02116346267618,2026-01-18 11h01.05.613602 +0530,
118,0,119,n,0.8664134999853559,None,119,0,118,412.37466870003846,,,,,,,,,,,,,,,,,,,,,,,,,,,,,,,,,,,,,,,,,,,,,,,,,,412.35882690001745,412.37466870003846,412.87488140002824,412.8584594000131,412.86801740003284,412.87488140002824,412.87488140002824,412.87488140002824,413.7422219000291,Foils\098a.jpg,none,n,0.8664134999853559,None,,,,,,,,00045,001,2026-01-18_11h00.57.957,MST_test,2024.2.0,60.02116346267618,2026-01-18 11h01.05.613602 +0530,
119,0,120,s,1.6670085999649018,None,120,0,119,413.75816399999894,,,,,,,,,,,,,,,,,,,,,,,,,,,,,,,,,,,,,,,,,,,,,,,,,,413.7423223000369,413.75816399999894,414.2585858000093,414.2417868000339,414.25105469999835,414.2585858000093,414.2585858000093,414.2585858000093,415.94215459999396,Objects\356b.jpg,pre,s,1.6670085999649018,None,,,,,,,,00045,001,2026-01-18_11h00.57.957,MST_test,2024.2.0,60.02116346267618,2026-01-18 11h01.05.613602 +0530,
120,0,121,n,0.9153144999872893,None,121,0,120,415.9581965000252,,,,,,,,,,,,,,,,,,,,,,,,,,,,,,,,,,,,,,,,,,,,,,,,,,415.94224880001275,415.9581965000252,416.45847790001426,416.4418443000177,416.45234200003324,416.45847790001426,416.45847790001426,416.45847790001426,417.3758004999836,Objects\244b.jpg,post,n,0.9153144999872893,None,,,,,,,,00045,001,2026-01-18_11h00.57.957,MST_test,2024.2.0,60.02116346267618,2026-01-18 11h01.05.613602 +0530,
121,0,122,o,1.091107300017029,None,122,0,121,417.39154440001585,,,,,,,,,,,,,,,,,,,,,,,,,,,,,,,,,,,,,,,,,,,,,,,,,,417.3759010999929,417.39154440001585,417.8918488000054,417.87493719998747,417.8785850999993,417.8918488000054,417.8918488000054,417.8918488000054,418.9921371000237,Objects\242a.jpg,pre,o,1.091107300017029,None,,,,,,,,00045,001,2026-01-18_11h00.57.957,MST_test,2024.2.0,60.02116346267618,2026-01-18 11h01.05.613602 +0530,
122,0,123,n,1.5777620000299066,None,123,0,122,419.0081952000037,,,,,,,,,,,,,,,,,,,,,,,,,,,,,,,,,,,,,,,,,,,,,,,,,,418.9922236999846,419.0081952000037,419.50840440002503,419.49182070000097,419.4946958000073,419.50840440002503,419.50840440002503,419.50840440002503,421.09230800002115,Objects\015a.jpg,post,n,1.5777620000299066,None,,,,,,,,00045,001,2026-01-18_11h00.57.957,MST_test,2024.2.0,60.02116346267618,2026-01-18 11h01.05.613602 +0530,
123,0,124,o,1.4214065000414848,None,124,0,123,421.10819769999944,,,,,,,,,,,,,,,,,,,,,,,,,,,,,,,,,,,,,,,,,,,,,,,,,,421.09240289998706,421.10819769999944,421.60859399999026,421.59171110001625,421.5950926000369,421.60859399999026,421.60859399999026,421.60859399999026,423.0421109999879,Objects\275a.jpg,mid,o,1.4214065000414848,None,,,,,,,,00045,001,2026-01-18_11h00.57.957,MST_test,2024.2.0,60.02116346267618,2026-01-18 11h01.05.613602 +0530,
124,0,125,n,2.07867759995861,None,125,0,124,423.05813130002934,,,,,,,,,,,,,,,,,,,,,,,,,,,,,,,,,,,,,,,,,,,,,,,,,,423.0422036999953,423.05813130002934,423.5586572000175,423.54180870001437,423.5540332000237,423.5586572000175,423.5586572000175,423.5586572000175,425.64204479998443,Foils\113a.jpg,none,n,2.07867759995861,None,,,,,,,,00045,001,2026-01-18_11h00.57.957,MST_test,2024.2.0,60.02116346267618,2026-01-18 11h01.05.613602 +0530,
125,0,126,o,1.254816300002858,None,126,0,125,425.6583483000286,,,,,,,,,,,,,,,,,,,,,,,,,,,,,,,,,,,,,,,,,,,,,,,,,,425.6421403000131,425.6583483000286,426.1585119999945,426.1417027999996,426.14502180001,426.1585119999945,426.1585119999945,426.1585119999945,427.42540370003553,Objects\211a.jpg,mid,o,1.254816300002858,None,,,,,,,,00045,001,2026-01-18_11h00.57.957,MST_test,2024.2.0,60.02116346267618,2026-01-18 11h01.05.613602 +0530,
126,0,127,s,1.4237369000329636,None,127,0,126,427.4414707000251,,,,,,,,,,,,,,,,,,,,,,,,,,,,,,,,,,,,,,,,,,,,,,,,,,427.4254912000033,427.4414707000251,427.9419268000056,427.9250499000191,427.93506859999616,427.9419268000056,427.9419268000056,427.9419268000056,429.37543499999447,Objects\118b.jpg,pre,s,1.4237369000329636,None,,,,,,,,00045,001,2026-01-18_11h00.57.957,MST_test,2024.2.0,60.02116346267618,2026-01-18 11h01.05.613602 +0530,
127,0,128,n,1.0032186000025831,None,128,0,127,429.39166439999826,,,,,,,,,,,,,,,,,,,,,,,,,,,,,,,,,,,,,,,,,,,,,,,,,,429.375522700022,429.39166439999826,429.89190759998746,429.8749806000269,429.88466099998914,429.89190759998746,429.89190759998746,429.89190759998746,430.90891549998196,Foils\026a.jpg,none,n,1.0032186000025831,None,,,,,,,,00045,001,2026-01-18_11h00.57.957,MST_test,2024.2.0,60.02116346267618,2026-01-18 11h01.05.613602 +0530,
128,0,129,n,0.9333587000146508,None,129,0,128,430.92497390002245,,,,,,,,,,,,,,,,,,,,,,,,,,,,,,,,,,,,,,,,,,,,,,,,,,430.9090127000236,430.92497390002245,431.4253391000093,431.40847750002285,431.41860800003633,431.4253391000093,431.4253391000093,431.4253391000093,432.37530910002533,Objects\226b.jpg,mid,n,0.9333587000146508,None,,,,,,,,00045,001,2026-01-18_11h00.57.957,MST_test,2024.2.0,60.02116346267618,2026-01-18 11h01.05.613602 +0530,
129,0,130,n,0.8813076000078581,None,130,0,129,432.3916723000002,,,,,,,,,,,,,,,,,,,,,,,,,,,,,,,,,,,,,,,,,,,,,,,,,,432.37539669999387,432.3916723000002,432.89194210001733,432.8750975999865,432.8778685000143,432.89194210001733,432.89194210001733,432.89194210001733,433.77553640003316,Objects\013a.jpg,mid,n,0.8813076000078581,None,,,,,,,,00045,001,2026-01-18_11h00.57.957,MST_test,2024.2.0,60.02116346267618,2026-01-18 11h01.05.613602 +0530,
130,0,131,s,1.529308500001207,None,131,0,130,433.79167810000945,,,,,,,,,,,,,,,,,,,,,,,,,,,,,,,,,,,,,,,,,,,,,,,,,,433.77562440000474,433.79167810000945,434.2918999000103,434.27519640000537,434.28474159998586,434.2918999000103,434.2918999000103,434.2918999000103,435.82553680002457,Objects\183b.jpg,post,s,1.529308500001207,None,,,,,,,,00045,001,2026-01-18_11h00.57.957,MST_test,2024.2.0,60.02116346267618,2026-01-18 11h01.05.613602 +0530,
131,0,132,n,0.7367006000131369,None,132,0,131,435.84163530002115,,,,,,,,,,,,,,,,,,,,,,,,,,,,,,,,,,,,,,,,,,,,,,,,,,435.8256249999977,435.84163530002115,436.3417674000375,436.3251016000286,436.3347664999892,436.3417674000375,436.3417674000375,436.3417674000375,437.09209510002984,Foils\121a.jpg,none,n,0.7367006000131369,None,,,,,,,,00045,001,2026-01-18_11h00.57.957,MST_test,2024.2.0,60.02116346267618,2026-01-18 11h01.05.613602 +0530,
132,0,133,o,1.4527330999844708,None,133,0,132,437.1083193999948,,,,,,,,,,,,,,,,,,,,,,,,,,,,,,,,,,,,,,,,,,,,,,,,,,437.09218430001056,437.1083193999948,437.60861210001167,437.59191710001323,437.59445079998113,437.60861210001167,437.60861210001167,437.60861210001167,439.07557310000993,Objects\081a.jpg,mid,o,1.4527330999844708,None,,,,,,,,00045,001,2026-01-18_11h00.57.957,MST_test,2024.2.0,60.02116346267618,2026-01-18 11h01.05.613602 +0530,
133,0,134,o,1.318005999957677,None,134,0,133,439.09170799999265,,,,,,,,,,,,,,,,,,,,,,,,,,,,,,,,,,,,,,,,,,,,,,,,,,439.0756596000283,439.09170799999265,439.5918486000155,439.57506340002874,439.58452760003274,439.5918486000155,439.5918486000155,439.5918486000155,440.9254157000105,Objects\075b.jpg,mid,o,1.318005999957677,None,,,,,,,,00045,001,2026-01-18_11h00.57.957,MST_test,2024.2.0,60.02116346267618,2026-01-18 11h01.05.613602 +0530,
134,0,135,n,1.8368745999759994,None,135,0,134,440.94163560000015,,,,,,,,,,,,,,,,,,,,,,,,,,,,,,,,,,,,,,,,,,,,,,,,,,440.92550270003267,440.94163560000015,441.44202449999284,441.42538159998367,441.4348349000211,441.44202449999284,441.44202449999284,441.44202449999284,443.29215779999504,Objects\338b.jpg,pre,n,1.8368745999759994,None,,,,,,,,00045,001,2026-01-18_11h00.57.957,MST_test,2024.2.0,60.02116346267618,2026-01-18 11h01.05.613602 +0530,
135,0,136,n,1.060577199968975,None,136,0,135,443.30859159998363,,,,,,,,,,,,,,,,,,,,,,,,,,,,,,,,,,,,,,,,,,,,,,,,,,443.2922438000096,443.30859159998363,443.80875070003094,443.7918589999899,443.79467490001116,443.80875070003094,443.80875070003094,443.80875070003094,444.87542290001875,Objects\260a.jpg,post,n,1.060577199968975,None,,,,,,,,00045,001,2026-01-18_11h00.57.957,MST_test,2024.2.0,60.02116346267618,2026-01-18 11h01.05.613602 +0530,
136,0,137,s,1.6056081999558955,None,137,0,136,444.8915300000226,,,,,,,,,,,,,,,,,,,,,,,,,,,,,,,,,,,,,,,,,,,,,,,,,,444.87551189999795,444.8915300000226,445.392037099984,445.37523200002033,445.37873850000324,445.392037099984,445.392037099984,445.392037099984,447.0091507000034,Objects\124a.jpg,pre,s,1.6056081999558955,None,,,,,,,,00045,001,2026-01-18_11h00.57.957,MST_test,2024.2.0,60.02116346267618,2026-01-18 11h01.05.613602 +0530,
137,0,138,o,0.9851582000264898,None,138,0,137,447.0247962999856,,,,,,,,,,,,,,,,,,,,,,,,,,,,,,,,,,,,,,,,,,,,,,,,,,447.00924909999594,447.0247962999856,447.52519489999395,447.50856270000804,447.5113467000192,447.52519489999395,447.52519489999395,447.52519489999395,448.52553119999357,Objects\033a.jpg,pre,o,0.9851582000264898,None,,,,,,,,00045,001,2026-01-18_11h00.57.957,MST_test,2024.2.0,60.02116346267618,2026-01-18 11h01.05.613602 +0530,
138,0,139,s,1.9960124000208452,None,139,0,138,448.5416898999829,,,,,,,,,,,,,,,,,,,,,,,,,,,,,,,,,,,,,,,,,,,,,,,,,,448.52561970002716,448.5416898999829,449.0417186000268,449.02525599999353,449.03473960002884,449.0417186000268,449.0417186000268,449.0417186000268,451.04221590003,Objects\001b.jpg,pre,s,1.9960124000208452,None,,,,,,,,00045,001,2026-01-18_11h00.57.957,MST_test,2024.2.0,60.02116346267618,2026-01-18 11h01.05.613602 +0530,
139,0,140,n,0.9587424999917857,None,140,0,139,451.05833570001414,,,,,,,,,,,,,,,,,,,,,,,,,,,,,,,,,,,,,,,,,,,,,,,,,,451.04230239999015,451.05833570001414,451.55855020001763,451.54191480000736,451.5513958000229,451.55855020001763,451.55855020001763,451.55855020001763,452.5256780000054,Objects\069b.jpg,mid,n,0.9587424999917857,None,,,,,,,,00045,001,2026-01-18_11h00.57.957,MST_test,2024.2.0,60.02116346267618,2026-01-18 11h01.05.613602 +0530,
140,0,141,o,3.323756899975706,None,141,0,140,452.54156969999894,,,,,,,,,,,,,,,,,,,,,,,,,,,,,,,,,,,,,,,,,,,,,,,,,,452.52576799999224,452.54156969999894,453.04212340002414,453.02509429998463,453.0364783999976,453.04212340002414,453.04212340002414,453.04212340002414,456.37543190002907,Objects\221b.jpg,post,o,3.323756899975706,None,,,,,,,,00045,001,2026-01-18_11h00.57.957,MST_test,2024.2.0,60.02116346267618,2026-01-18 11h01.05.613602 +0530,
141,0,142,o,1.5461293999687769,None,142,0,141,456.3916659000097,,,,,,,,,,,,,,,,,,,,,,,,,,,,,,,,,,,,,,,,,,,,,,,,,,456.37551849999,456.3916659000097,456.8919520000345,456.87506890000077,456.8778916000156,456.8919520000345,456.8919520000345,456.8919520000345,458.44278849998955,Objects\344a.jpg,mid,o,1.5461293999687769,None,,,,,,,,00045,001,2026-01-18_11h00.57.957,MST_test,2024.2.0,60.02116346267618,2026-01-18 11h01.05.613602 +0530,
142,0,143,s,1.4227576999692246,None,143,0,142,458.4581599000376,,,,,,,,,,,,,,,,,,,,,,,,,,,,,,,,,,,,,,,,,,,,,,,,,,458.4428766000201,458.4581599000376,458.9587048999965,458.9418287000153,458.952265000029,458.9587048999965,458.9587048999965,458.9587048999965,460.3920378999901,Foils\066a.jpg,none,s,1.4227576999692246,None,,,,,,,,00045,001,2026-01-18_11h00.57.957,MST_test,2024.2.0,60.02116346267618,2026-01-18 11h01.05.613602 +0530,
143,0,144,n,1.0577341999742202,None,144,0,143,460.4082099000225,,,,,,,,,,,,,,,,,,,,,,,,,,,,,,,,,,,,,,,,,,,,,,,,,,460.39213009999366,460.4082099000225,460.90861490002135,460.8918343000114,460.8961242000223,460.90861490002135,460.90861490002135,460.90861490002135,461.97573810000904,Objects\296a.jpg,pre,n,1.0577341999742202,None,,,,,,,,00045,001,2026-01-18_11h00.57.957,MST_test,2024.2.0,60.02116346267618,2026-01-18 11h01.05.613602 +0530,
144,0,145,n,2.5622613999876194,None,145,0,144,461.99154780001845,,,,,,,,,,,,,,,,,,,,,,,,,,,,,,,,,,,,,,,,,,,,,,,,,,461.9758327000309,461.99154780001845,462.4918524000095,462.4750242999871,462.4782404000289,462.4918524000095,462.4918524000095,462.4918524000095,465.0587244000053,Objects\377a.jpg,pre,n,2.5622613999876194,None,,,,,,,,00045,001,2026-01-18_11h00.57.957,MST_test,2024.2.0,60.02116346267618,2026-01-18 11h01.05.613602 +0530,
145,0,146,o,1.2464592999895103,None,146,0,145,465.074871800025,,,,,,,,,,,,,,,,,,,,,,,,,,,,,,,,,,,,,,,,,,,,,,,,,,465.0588109000237,465.074871800025,465.5753222000203,465.5584413000033,465.5711172000156,465.5753222000203,465.5753222000203,465.5753222000203,466.82534280000255,Objects\176b.jpg,pre,o,1.2464592999895103,None,,,,,,,,00045,001,2026-01-18_11h00.57.957,MST_test,2024.2.0,60.02116346267618,2026-01-18 11h01.05.613602 +0530,
146,0,147,n,1.3838285999954678,None,147,0,146,466.8415302000358,,,,,,,,,,,,,,,,,,,,,,,,,,,,,,,,,,,,,,,,,,,,,,,,,,466.8254336999962,466.8415302000358,467.34177970001474,467.3251876999857,467.3278381000273,467.34177970001474,467.34177970001474,467.34177970001474,468.74211880000075,Objects\122a.jpg,mid,n,1.3838285999954678,None,,,,,,,,00045,001,2026-01-18_11h00.57.957,MST_test,2024.2.0,60.02116346267618,2026-01-18 11h01.05.613602 +0530,
147,0,148,s,1.6512977000093088,None,148,0,147,468.7582122000167,,,,,,,,,,,,,,,,,,,,,,,,,,,,,,,,,,,,,,,,,,,,,,,,,,468.74220630002674,468.7582122000167,469.2584943000111,469.24184279999463,469.2444420999964,469.2584943000111,469.2584943000111,469.2584943000111,470.925265900034,Objects\089a.jpg,pre,s,1.6512977000093088,None,,,,,,,,00045,001,2026-01-18_11h00.57.957,MST_test,2024.2.0,60.02116346267618,2026-01-18 11h01.05.613602 +0530,
148,0,149,n,2.6603157000499777,None,149,0,148,470.94155360001605,,,,,,,,,,,,,,,,,,,,,,,,,,,,,,,,,,,,,,,,,,,,,,,,,,470.92535500001395,470.94155360001605,471.4419798000017,471.42514360003406,471.4347661000211,471.4419798000017,471.4419798000017,471.4419798000017,474.10876319999807,Objects\325b.jpg,pre,n,2.6603157000499777,None,,,,,,,,00045,001,2026-01-18_11h00.57.957,MST_test,2024.2.0,60.02116346267618,2026-01-18 11h01.05.613602 +0530,
149,0,150,o,1.012408200011123,None,150,0,149,474.12483200000133,,,,,,,,,,,,,,,,,,,,,,,,,,,,,,,,,,,,,,,,,,,,,,,,,,474.10885379998945,474.12483200000133,474.62532970000757,474.6086001000367,474.6118986000074,474.62532970000757,474.62532970000757,474.62532970000757,475.6421605999931,Objects\042a.jpg,post,o,1.012408200011123,None,,,,,,,,00045,001,2026-01-18_11h00.57.957,MST_test,2024.2.0,60.02116346267618,2026-01-18 11h01.05.613602 +0530,
,,,,,,,,,,,,,,,,,,,,,,,,,,,,,,,,,,,,,,,,,,,,,,,,,,,,,,,,,,,,,,,,,,,,,,,,,475.6422244000132,475.6582401000196,475.6582401000196,477.99205539998366,space,2.323534400027711,None,00045,001,2026-01-18_11h00.57.957,MST_test,2024.2.0,60.02116346267618,2026-01-18 11h01.05.613602 +0530,
