thisN,thisTrialN,thisRepN,key_resp_3.keys,key_resp_3.rt,key_resp_3.duration,trials.thisRepN,trials.thisTrialN,trials.thisN,thisRow.t,notes,intro_page.started,text.started,key_resp.started,intro_page.stopped,key_resp.keys,key_resp.rt,key_resp.duration,instructions.started,text_2.started,key_resp_2.started,instructions.stopped,key_resp_2.keys,key_resp_2.rt,key_resp_2.duration,demo1.started,image_1.started,image_2.started,text_7.started,key_resp_6.started,text_9.started,demo1.stopped,key_resp_6.keys,key_resp_6.rt,key_resp_6.duration,demo3.started,image_5.started,image_6.started,text_11.started,text_12.started,key_resp_8.started,demo3.stopped,key_resp_8.keys,key_resp_8.rt,key_resp_8.duration,demo_conclusion.started,text_13.started,key_resp_9.started,demo_conclusion.stopped,key_resp_9.keys,key_resp_9.rt,key_resp_9.duration,start_test.started,text_6.started,key_resp_5.started,start_test.stopped,key_resp_5.keys,key_resp_5.rt,key_resp_5.duration,ISI.started,text_4.started,text_4.stopped,ISI.stopped,routine_1.started,image.started,text_3.started,key_resp_3.started,routine_1.stopped,image_path,position_of_stimuli,trials.key_resp_3.keys,trials.key_resp_3.rt,trials.key_resp_3.duration,End_page.started,text_5.started,key_resp_4.started,End_page.stopped,key_resp_4.keys,key_resp_4.rt,key_resp_4.duration,participant,session,date,expName,psychopyVersion,frameRate,expStart,
,,,,,,,,,,,0.001799899999923582,0.028270899999938592,0.028270899999938592,4.473388399999976,space,4.088170300000002,None,,,,,,,,,,,,,,,,,,,,,,,,,,,,,,,,,,,,,,,,,,,,,,,,,,,,,,,,,,,,,,,00049,001,2026-01-18_15h51.26.110,MST_test,2024.2.0,59.99991600011918,2026-01-18 15h51.44.425755 +0530,
,,,,,,,,,,,,,,,,,,4.473522899999921,4.495310599999925,4.495310599999925,16.286122399999954,space,11.780613299999914,None,,,,,,,,,,,,,,,,,,,,,,,,,,,,,,,,,,,,,,,,,,,,,,,,,,,,,,,,00049,001,2026-01-18_15h51.26.110,MST_test,2024.2.0,59.99991600011918,2026-01-18 15h51.44.425755 +0530,
,,,,,,,,,,,,,,,,,,,,,,,,,16.28621959999998,16.365413799999942,16.365413799999942,16.365413799999942,16.365413799999942,16.365413799999942,22.119220399999904,space,5.751512199999979,None,,,,,,,,,,,,,,,,,,,,,,,,,,,,,,,,,,,,,,,,,,,,,,00049,001,2026-01-18_15h51.26.110,MST_test,2024.2.0,59.99991600011918,2026-01-18 15h51.44.425755 +0530,
,,,,,,,,,,,,,,,,,,,,,,,,,,,,,,,,,,,22.11925509999992,22.134740799999918,22.134740799999918,22.134740799999918,22.134740799999918,22.134740799999918,26.268442899999968,space,4.132934499999919,None,,,,,,,,,,,,,,,,,,,,,,,,,,,,,,,,,,,,00049,001,2026-01-18_15h51.26.110,MST_test,2024.2.0,59.99991600011918,2026-01-18 15h51.44.425755 +0530,
,,,,,,,,,,,,,,,,,,,,,,,,,,,,,,,,,,,,,,,,,,,,,26.26847829999997,26.28399909999996,26.28399909999996,42.21922889999996,space,15.928473899999972,None,,,,,,,,,,,,,,,,,,,,,,,,,,,,,00049,001,2026-01-18_15h51.26.110,MST_test,2024.2.0,59.99991600011918,2026-01-18 15h51.44.425755 +0530,
,,,,,,,,,,,,,,,,,,,,,,,,,,,,,,,,,,,,,,,,,,,,,,,,,,,,42.21950449999997,42.24646289999998,42.24646289999998,77.1027542999999,space,34.85370850000004,None,,,,,,,,,,,,,,,,,,,,,,00049,001,2026-01-18_15h51.26.110,MST_test,2024.2.0,59.99991600011918,2026-01-18 15h51.44.425755 +0530,
0,0,1,s,10.270136800000046,None,1,0,0,77.11746919999996,,,,,,,,,,,,,,,,,,,,,,,,,,,,,,,,,,,,,,,,,,,,,,,,,,77.11255449999999,77.11746919999996,77.63884929999995,77.60199849999992,77.6361647,77.63884929999995,77.63884929999995,77.63884929999995,87.91965359999995,Objects\025b.jpg,mid,s,10.270136800000046,None,,,,,,,,00049,001,2026-01-18_15h51.26.110,MST_test,2024.2.0,59.99991600011918,2026-01-18 15h51.44.425755 +0530,
1,0,2,o,3.7979707999999164,None,2,0,1,87.93441269999994,,,,,,,,,,,,,,,,,,,,,,,,,,,,,,,,,,,,,,,,,,,,,,,,,,87.92000780000001,87.93441269999994,88.6859647,88.41856939999991,88.68290109999998,88.6859647,88.6859647,88.6859647,92.48547369999994,Objects\209a.jpg,mid,o,3.7979707999999164,None,,,,,,,,00049,001,2026-01-18_15h51.26.110,MST_test,2024.2.0,59.99991600011918,2026-01-18 15h51.44.425755 +0530,
2,0,3,s,4.134721900000045,None,3,0,2,92.50092929999994,,,,,,,,,,,,,,,,,,,,,,,,,,,,,,,,,,,,,,,,,,,,,,,,,,92.48558959999991,92.50092929999994,93.25352429999998,92.98543380000001,93.250902,93.25352429999998,93.25352429999998,93.25352429999998,97.40273749999994,Objects\105b.jpg,mid,s,4.134721900000045,None,,,,,,,,00049,001,2026-01-18_15h51.26.110,MST_test,2024.2.0,59.99991600011918,2026-01-18 15h51.44.425755 +0530,
3,0,4,s,8.0899948,None,4,0,3,97.41764589999991,,,,,,,,,,,,,,,,,,,,,,,,,,,,,,,,,,,,,,,,,,,,,,,,,,97.40302059999999,97.41764589999991,98.033547,97.90193409999995,98.03065779999997,98.033547,98.033547,98.033547,106.1364759999999,Objects\339a.jpg,post,s,8.0899948,None,,,,,,,,00049,001,2026-01-18_15h51.26.110,MST_test,2024.2.0,59.99991600011918,2026-01-18 15h51.44.425755 +0530,
4,0,5,n,4.788232300000004,None,5,0,4,106.1509898999999,,,,,,,,,,,,,,,,,,,,,,,,,,,,,,,,,,,,,,,,,,,,,,,,,,106.13687779999998,106.1509898999999,106.67162629999996,106.63524559999996,106.66896889999998,106.67162629999996,106.67162629999996,106.67162629999996,111.4692657999999,Foils\042a.jpg,none,n,4.788232300000004,None,,,,,,,,00049,001,2026-01-18_15h51.26.110,MST_test,2024.2.0,59.99991600011918,2026-01-18 15h51.44.425755 +0530,
5,0,6,s,4.203854399999955,None,6,0,5,111.48462699999993,,,,,,,,,,,,,,,,,,,,,,,,,,,,,,,,,,,,,,,,,,,,,,,,,,111.46953939999992,111.48462699999993,112.00020959999995,111.9684117999999,111.9977859999999,112.00020959999995,112.00020959999995,112.00020959999995,116.21977770000001,Objects\121a.jpg,post,s,4.203854399999955,None,,,,,,,,00049,001,2026-01-18_15h51.26.110,MST_test,2024.2.0,59.99991600011918,2026-01-18 15h51.44.425755 +0530,
6,0,7,n,5.197275399999967,None,7,0,6,116.23404979999998,,,,,,,,,,,,,,,,,,,,,,,,,,,,,,,,,,,,,,,,,,,,,,,,,,116.22006499999998,116.23404979999998,116.76672259999998,116.71883429999991,116.76372809999998,116.76672259999998,116.76672259999998,116.76672259999998,121.9701033,Foils\010a.jpg,none,n,5.197275399999967,None,,,,,,,,00049,001,2026-01-18_15h51.26.110,MST_test,2024.2.0,59.99991600011918,2026-01-18 15h51.44.425755 +0530,
7,0,8,s,6.907128999999941,None,8,0,7,121.9841841,,,,,,,,,,,,,,,,,,,,,,,,,,,,,,,,,,,,,,,,,,,,,,,,,,121.9704989999999,121.9841841,122.50548359999993,122.46805519999998,122.50280009999994,122.50548359999993,122.50548359999993,122.50548359999993,129.41944639999997,Objects\169a.jpg,pre,s,6.907128999999941,None,,,,,,,,00049,001,2026-01-18_15h51.26.110,MST_test,2024.2.0,59.99991600011918,2026-01-18 15h51.44.425755 +0530,
8,0,9,o,5.8430404000000635,None,9,0,8,129.43423309999991,,,,,,,,,,,,,,,,,,,,,,,,,,,,,,,,,,,,,,,,,,,,,,,,,,129.41957509999997,129.43423309999991,129.96116959999995,129.91799659999992,129.9589279999999,129.96116959999995,129.96116959999995,129.96116959999995,135.8195773,Objects\148b.jpg,mid,o,5.8430404000000635,None,,,,,,,,00049,001,2026-01-18_15h51.26.110,MST_test,2024.2.0,59.99991600011918,2026-01-18 15h51.44.425755 +0530,
9,0,10,s,5.478765599999974,None,10,0,9,135.8344219999999,,,,,,,,,,,,,,,,,,,,,,,,,,,,,,,,,,,,,,,,,,,,,,,,,,135.81979019999994,135.8344219999999,136.36475819999998,136.3185216999999,136.36182239999994,136.36475819999998,136.36475819999998,136.36475819999998,141.85293749999994,Objects\313b.jpg,mid,s,5.478765599999974,None,,,,,,,,00049,001,2026-01-18_15h51.26.110,MST_test,2024.2.0,59.99991600011918,2026-01-18 15h51.44.425755 +0530,
10,0,11,s,5.480161899999985,None,11,0,10,141.86759289999998,,,,,,,,,,,,,,,,,,,,,,,,,,,,,,,,,,,,,,,,,,,,,,,,,,141.8533218,141.86759289999998,142.6033468999999,142.3521803,142.5993178,142.6033468999999,142.6033468999999,142.6033468999999,148.0856028999999,Objects\077b.jpg,post,s,5.480161899999985,None,,,,,,,,00049,001,2026-01-18_15h51.26.110,MST_test,2024.2.0,59.99991600011918,2026-01-18 15h51.44.425755 +0530,
11,0,12,s,6.608198200000061,None,12,0,11,148.10062599999992,,,,,,,,,,,,,,,,,,,,,,,,,,,,,,,,,,,,,,,,,,,,,,,,,,148.08586319999995,148.10062599999992,148.63524629999995,148.5847286999999,148.63276259999998,148.63524629999995,148.63524629999995,148.63524629999995,155.25196129999995,Objects\019b.jpg,post,s,6.608198200000061,None,,,,,,,,00049,001,2026-01-18_15h51.26.110,MST_test,2024.2.0,59.99991600011918,2026-01-18 15h51.44.425755 +0530,
12,0,13,o,4.2574224999999615,None,13,0,12,155.2672685,,,,,,,,,,,,,,,,,,,,,,,,,,,,,,,,,,,,,,,,,,,,,,,,,,155.25210419999996,155.2672685,155.7874814999999,155.7514620999999,155.78496029999997,155.7874814999999,155.7874814999999,155.7874814999999,160.05378159999998,Objects\274a.jpg,mid,o,4.2574224999999615,None,,,,,,,,00049,001,2026-01-18_15h51.26.110,MST_test,2024.2.0,59.99991600011918,2026-01-18 15h51.44.425755 +0530,
13,0,14,o,3.507183800000007,None,14,0,13,160.0677104,,,,,,,,,,,,,,,,,,,,,,,,,,,,,,,,,,,,,,,,,,,,,,,,,,160.05414889999997,160.0677104,160.785443,160.5521546,160.78177749999998,160.785443,160.785443,160.785443,164.30255419999992,Objects\217a.jpg,post,o,3.507183800000007,None,,,,,,,,00049,001,2026-01-18_15h51.26.110,MST_test,2024.2.0,59.99991600011918,2026-01-18 15h51.44.425755 +0530,
14,0,15,n,4.546140400000013,None,15,0,14,164.31748659999994,,,,,,,,,,,,,,,,,,,,,,,,,,,,,,,,,,,,,,,,,,,,,,,,,,164.30280069999992,164.31748659999994,164.83325739999998,164.8014227,164.8297081999999,164.83325739999998,164.83325739999998,164.83325739999998,169.38549809999995,Objects\051b.jpg,mid,n,4.546140400000013,None,,,,,,,,00049,001,2026-01-18_15h51.26.110,MST_test,2024.2.0,59.99991600011918,2026-01-18 15h51.44.425755 +0530,
15,0,16,o,4.28047939999999,None,16,0,15,169.40092949999996,,,,,,,,,,,,,,,,,,,,,,,,,,,,,,,,,,,,,,,,,,,,,,,,,,169.3857693,169.40092949999996,169.9162806999999,169.8848923999999,169.91305979999993,169.9162806999999,169.9162806999999,169.9162806999999,174.20340449999992,Objects\062a.jpg,mid,o,4.28047939999999,None,,,,,,,,00049,001,2026-01-18_15h51.26.110,MST_test,2024.2.0,59.99991600011918,2026-01-18 15h51.44.425755 +0530,
16,0,17,s,4.190466400000105,None,17,0,16,174.2175107999999,,,,,,,,,,,,,,,,,,,,,,,,,,,,,,,,,,,,,,,,,,,,,,,,,,174.2037820999999,174.2175107999999,174.75832759999992,174.70236069999999,174.75542389999998,174.75832759999992,174.75832759999992,174.75832759999992,178.95294209999997,Objects\114b.jpg,mid,s,4.190466400000105,None,,,,,,,,00049,001,2026-01-18_15h51.26.110,MST_test,2024.2.0,59.99991600011918,2026-01-18 15h51.44.425755 +0530,
17,0,18,s,4.491998200000012,None,18,0,17,178.96765789999995,,,,,,,,,,,,,,,,,,,,,,,,,,,,,,,,,,,,,,,,,,,,,,,,,,178.9532466999999,178.96765789999995,179.5274849,179.45206929999995,179.5246717,179.5274849,179.5274849,179.5274849,184.03626599999996,Objects\337b.jpg,pre,s,4.491998200000012,None,,,,,,,,00049,001,2026-01-18_15h51.26.110,MST_test,2024.2.0,59.99991600011918,2026-01-18 15h51.44.425755 +0530,
18,0,19,o,5.327270399999975,None,19,0,18,184.05101309999998,,,,,,,,,,,,,,,,,,,,,,,,,,,,,,,,,,,,,,,,,,,,,,,,,,184.03661409999995,184.05101309999998,184.660349,184.5355545,184.65743479999992,184.660349,184.660349,184.660349,190.0028102,Objects\179a.jpg,post,o,5.327270399999975,None,,,,,,,,00049,001,2026-01-18_15h51.26.110,MST_test,2024.2.0,59.99991600011918,2026-01-18 15h51.44.425755 +0530,
19,0,20,n,5.2952000000000226,None,20,0,19,190.01783569999998,,,,,,,,,,,,,,,,,,,,,,,,,,,,,,,,,,,,,,,,,,,,,,,,,,190.00318619999996,190.01783569999998,190.5329989999999,190.5014266999999,190.53047129999993,190.5329989999999,190.5329989999999,190.5329989999999,195.8361855999999,Objects\340b.jpg,pre,n,5.2952000000000226,None,,,,,,,,00049,001,2026-01-18_15h51.26.110,MST_test,2024.2.0,59.99991600011918,2026-01-18 15h51.44.425755 +0530,
20,0,21,s,3.3198135000000093,None,21,0,20,195.8510756999999,,,,,,,,,,,,,,,,,,,,,,,,,,,,,,,,,,,,,,,,,,,,,,,,,,195.8364477,195.8510756999999,196.3973274,196.3354599999999,196.3940376999999,196.3973274,196.3973274,196.3973274,199.71988779999992,Foils\086a.jpg,none,s,3.3198135000000093,None,,,,,,,,00049,001,2026-01-18_15h51.26.110,MST_test,2024.2.0,59.99991600011918,2026-01-18 15h51.44.425755 +0530,
21,0,22,s,6.122840799999949,None,22,0,21,199.73434199999997,,,,,,,,,,,,,,,,,,,,,,,,,,,,,,,,,,,,,,,,,,,,,,,,,,199.72022959999993,199.73434199999997,200.264591,200.2187884,200.2618094999999,200.264591,200.264591,200.264591,206.40303319999998,Objects\067b.jpg,mid,s,6.122840799999949,None,,,,,,,,00049,001,2026-01-18_15h51.26.110,MST_test,2024.2.0,59.99991600011918,2026-01-18 15h51.44.425755 +0530,
22,0,23,n,5.218647099999998,None,23,0,22,206.4175148999999,,,,,,,,,,,,,,,,,,,,,,,,,,,,,,,,,,,,,,,,,,,,,,,,,,206.4034878,206.4175148999999,206.93883549999998,206.9019277,206.9355991,206.93883549999998,206.93883549999998,206.93883549999998,212.1695449,Objects\218b.jpg,mid,n,5.218647099999998,None,,,,,,,,00049,001,2026-01-18_15h51.26.110,MST_test,2024.2.0,59.99991600011918,2026-01-18 15h51.44.425755 +0530,
23,0,24,n,5.941870900000026,None,24,0,23,212.18434619999994,,,,,,,,,,,,,,,,,,,,,,,,,,,,,,,,,,,,,,,,,,,,,,,,,,212.1699180999999,212.18434619999994,213.03003139999998,212.66740959999993,213.02742909999995,213.03003139999998,213.03003139999998,213.03003139999998,218.98647619999997,Objects\357b.jpg,post,n,5.941870900000026,None,,,,,,,,00049,001,2026-01-18_15h51.26.110,MST_test,2024.2.0,59.99991600011918,2026-01-18 15h51.44.425755 +0530,
24,0,25,o,3.684726899999987,None,25,0,24,219.00092569999993,,,,,,,,,,,,,,,,,,,,,,,,,,,,,,,,,,,,,,,,,,,,,,,,,,218.98687089999999,219.00092569999993,219.52744529999995,219.48478469999998,219.5247078,219.52744529999995,219.52744529999995,219.52744529999995,223.21929369999998,Objects\291a.jpg,pre,o,3.684726899999987,None,,,,,,,,00049,001,2026-01-18_15h51.26.110,MST_test,2024.2.0,59.99991600011918,2026-01-18 15h51.44.425755 +0530,
25,0,26,o,4.1367985000000544,None,26,0,25,223.234283,,,,,,,,,,,,,,,,,,,,,,,,,,,,,,,,,,,,,,,,,,,,,,,,,,223.21974519999992,223.234283,223.7792329,223.71881359999998,223.77633149999997,223.7792329,223.7792329,223.7792329,227.91980119999994,Objects\358b.jpg,mid,o,4.1367985000000544,None,,,,,,,,00049,001,2026-01-18_15h51.26.110,MST_test,2024.2.0,59.99991600011918,2026-01-18 15h51.44.425755 +0530,
26,0,27,n,1.8733086999999387,None,27,0,26,227.9345927999999,,,,,,,,,,,,,,,,,,,,,,,,,,,,,,,,,,,,,,,,,,,,,,,,,,227.92006419999996,227.9345927999999,228.4739176999999,228.41865739999992,228.47088199999996,228.4739176999999,228.4739176999999,228.4739176999999,230.3519612,Foils\098a.jpg,none,n,1.8733086999999387,None,,,,,,,,00049,001,2026-01-18_15h51.26.110,MST_test,2024.2.0,59.99991600011918,2026-01-18 15h51.44.425755 +0530,
27,0,28,o,2.619776800000068,None,28,0,27,230.36766939999995,,,,,,,,,,,,,,,,,,,,,,,,,,,,,,,,,,,,,,,,,,,,,,,,,,230.35263929999996,230.36766939999995,230.9840658999999,230.8519528999999,230.98126179999997,230.9840658999999,230.9840658999999,230.9840658999999,233.61943689999998,Objects\143a.jpg,pre,o,2.619776800000068,None,,,,,,,,00049,001,2026-01-18_15h51.26.110,MST_test,2024.2.0,59.99991600011918,2026-01-18 15h51.44.425755 +0530,
28,0,29,s,4.440093700000034,None,29,0,28,233.63436909999996,,,,,,,,,,,,,,,,,,,,,,,,,,,,,,,,,,,,,,,,,,,,,,,,,,233.61982569999998,233.63436909999996,234.21150669999997,234.1187827,234.2078398,234.21150669999997,234.21150669999997,234.21150669999997,238.65267749999998,Objects\348a.jpg,mid,s,4.440093700000034,None,,,,,,,,00049,001,2026-01-18_15h51.26.110,MST_test,2024.2.0,59.99991600011918,2026-01-18 15h51.44.425755 +0530,
29,0,30,s,5.012165900000014,None,30,0,29,238.6676642,,,,,,,,,,,,,,,,,,,,,,,,,,,,,,,,,,,,,,,,,,,,,,,,,,238.6529615999999,238.6676642,239.40011329999993,239.15190669999993,239.3968286999999,239.40011329999993,239.40011329999993,239.40011329999993,244.41910869999992,Objects\373b.jpg,post,s,5.012165900000014,None,,,,,,,,00049,001,2026-01-18_15h51.26.110,MST_test,2024.2.0,59.99991600011918,2026-01-18 15h51.44.425755 +0530,
30,0,31,o,3.5531680999999935,None,31,0,30,244.4341726,,,,,,,,,,,,,,,,,,,,,,,,,,,,,,,,,,,,,,,,,,,,,,,,,,244.41930509999997,244.4341726,245.0269773,244.9187940999999,245.02381419999995,245.0269773,245.0269773,245.0269773,248.58573619999993,Objects\383a.jpg,post,o,3.5531680999999935,None,,,,,,,,00049,001,2026-01-18_15h51.26.110,MST_test,2024.2.0,59.99991600011918,2026-01-18 15h51.44.425755 +0530,
31,0,32,s,4.569836399999986,None,32,0,31,248.60103299999992,,,,,,,,,,,,,,,,,,,,,,,,,,,,,,,,,,,,,,,,,,,,,,,,,,248.5858581,248.60103299999992,249.17765669999994,249.08540329999994,249.17483779999998,249.17765669999994,249.17765669999994,249.17765669999994,253.7522515999999,Objects\241b.jpg,mid,s,4.569836399999986,None,,,,,,,,00049,001,2026-01-18_15h51.26.110,MST_test,2024.2.0,59.99991600011918,2026-01-18 15h51.44.425755 +0530,
32,0,33,n,1.7151295999999547,None,33,0,32,253.76755509999998,,,,,,,,,,,,,,,,,,,,,,,,,,,,,,,,,,,,,,,,,,,,,,,,,,253.75255059999995,253.76755509999998,254.288993,254.25141959999996,254.2864293,254.288993,254.288993,254.288993,256.01950209999995,Foils\033a.jpg,none,n,1.7151295999999547,None,,,,,,,,00049,001,2026-01-18_15h51.26.110,MST_test,2024.2.0,59.99991600011918,2026-01-18 15h51.44.425755 +0530,
33,0,34,s,3.7771741999999904,None,34,0,33,256.03416229999993,,,,,,,,,,,,,,,,,,,,,,,,,,,,,,,,,,,,,,,,,,,,,,,,,,256.0197440999999,256.03416229999993,256.5705575999999,256.5179122999999,256.5678770999999,256.5705575999999,256.5705575999999,256.5705575999999,260.35268439999993,Objects\146a.jpg,post,s,3.7771741999999904,None,,,,,,,,00049,001,2026-01-18_15h51.26.110,MST_test,2024.2.0,59.99991600011918,2026-01-18 15h51.44.425755 +0530,
34,0,35,n,3.2996082999999317,None,35,0,34,260.3677057,,,,,,,,,,,,,,,,,,,,,,,,,,,,,,,,,,,,,,,,,,,,,,,,,,260.3528523,260.3677057,260.96077979999995,260.8521612999999,260.9578945999999,260.96077979999995,260.96077979999995,260.96077979999995,264.2696704,Foils\074a.jpg,none,n,3.2996082999999317,None,,,,,,,,00049,001,2026-01-18_15h51.26.110,MST_test,2024.2.0,59.99991600011918,2026-01-18 15h51.44.425755 +0530,
35,0,36,o,4.901165500000047,None,36,0,35,264.2840881999999,,,,,,,,,,,,,,,,,,,,,,,,,,,,,,,,,,,,,,,,,,,,,,,,,,264.27002689999995,264.2840881999999,264.81435869999996,264.7683158,264.8116325,264.81435869999996,264.81435869999996,264.81435869999996,269.7192081999999,Objects\096a.jpg,pre,o,4.901165500000047,None,,,,,,,,00049,001,2026-01-18_15h51.26.110,MST_test,2024.2.0,59.99991600011918,2026-01-18 15h51.44.425755 +0530,
36,0,37,o,2.475852600000053,None,37,0,36,269.7341773999999,,,,,,,,,,,,,,,,,,,,,,,,,,,,,,,,,,,,,,,,,,,,,,,,,,269.7195981,269.7341773999999,270.2876583,270.2185131,270.2845109,270.2876583,270.2876583,270.2876583,272.7695053,Objects\247b.jpg,pre,o,2.475852600000053,None,,,,,,,,00049,001,2026-01-18_15h51.26.110,MST_test,2024.2.0,59.99991600011918,2026-01-18 15h51.44.425755 +0530,
37,0,38,n,2.9172325000000683,None,38,0,37,272.7842079999999,,,,,,,,,,,,,,,,,,,,,,,,,,,,,,,,,,,,,,,,,,,,,,,,,,272.76981979999994,272.7842079999999,273.3501352999999,273.2687376,273.3468542999999,273.3501352999999,273.3501352999999,273.3501352999999,276.2697351999999,Foils\034a.jpg,none,n,2.9172325000000683,None,,,,,,,,00049,001,2026-01-18_15h51.26.110,MST_test,2024.2.0,59.99991600011918,2026-01-18 15h51.44.425755 +0530,
38,0,39,n,3.2358875999999555,None,39,0,38,276.2843636,,,,,,,,,,,,,,,,,,,,,,,,,,,,,,,,,,,,,,,,,,,,,,,,,,276.2701615,276.2843636,276.7994435999999,276.7683530999999,276.7968323,276.7994435999999,276.7994435999999,276.7994435999999,280.05270559999997,Foils\017a.jpg,none,n,3.2358875999999555,None,,,,,,,,00049,001,2026-01-18_15h51.26.110,MST_test,2024.2.0,59.99991600011918,2026-01-18 15h51.44.425755 +0530,
39,0,40,o,3.635508600000094,None,40,0,39,280.0673949999999,,,,,,,,,,,,,,,,,,,,,,,,,,,,,,,,,,,,,,,,,,,,,,,,,,280.0528547,280.0673949999999,280.5677905,280.55207999999993,280.5648660999999,280.5677905,280.5677905,280.5677905,284.2197537999999,Objects\177a.jpg,mid,o,3.635508600000094,None,,,,,,,,00049,001,2026-01-18_15h51.26.110,MST_test,2024.2.0,59.99991600011918,2026-01-18 15h51.44.425755 +0530,
40,0,41,s,4.038121299999943,None,41,0,40,284.23427979999997,,,,,,,,,,,,,,,,,,,,,,,,,,,,,,,,,,,,,,,,,,,,,,,,,,284.22008829999993,284.23427979999997,284.75782129999993,284.7182183,284.75519099999997,284.75782129999993,284.75782129999993,284.75782129999993,288.80237869999996,Objects\322b.jpg,post,s,4.038121299999943,None,,,,,,,,00049,001,2026-01-18_15h51.26.110,MST_test,2024.2.0,59.99991600011918,2026-01-18 15h51.44.425755 +0530,
41,0,42,o,4.22454289999996,None,42,0,41,288.81761629999994,,,,,,,,,,,,,,,,,,,,,,,,,,,,,,,,,,,,,,,,,,,,,,,,,,288.8024952999999,288.81761629999994,289.33888939999997,289.3019858,289.33584299999995,289.33888939999997,289.33888939999997,289.33888939999997,293.568537,Objects\170a.jpg,post,o,4.22454289999996,None,,,,,,,,00049,001,2026-01-18_15h51.26.110,MST_test,2024.2.0,59.99991600011918,2026-01-18 15h51.44.425755 +0530,
42,0,43,s,4.501131200000032,None,43,0,42,293.58423289999996,,,,,,,,,,,,,,,,,,,,,,,,,,,,,,,,,,,,,,,,,,,,,,,,,,293.5686773,293.58423289999996,294.1029605,294.0683835,294.1006178,294.1029605,294.1029605,294.1029605,298.61965439999994,Objects\048a.jpg,post,s,4.501131200000032,None,,,,,,,,00049,001,2026-01-18_15h51.26.110,MST_test,2024.2.0,59.99991600011918,2026-01-18 15h51.44.425755 +0530,
43,0,44,o,3.7816234000000577,None,44,0,43,298.6343809,,,,,,,,,,,,,,,,,,,,,,,,,,,,,,,,,,,,,,,,,,,,,,,,,,298.6200182,298.6343809,299.1986744999999,299.1187024999999,299.19561909999993,299.1986744999999,299.1986744999999,299.1986744999999,302.9865477999999,Objects\118b.jpg,mid,o,3.7816234000000577,None,,,,,,,,00049,001,2026-01-18_15h51.26.110,MST_test,2024.2.0,59.99991600011918,2026-01-18 15h51.44.425755 +0530,
44,0,45,n,3.078117700000007,None,45,0,44,303.0010388999999,,,,,,,,,,,,,,,,,,,,,,,,,,,,,,,,,,,,,,,,,,,,,,,,,,302.98686269999996,303.0010388999999,303.5170445,303.48493069999995,303.5139203,303.5170445,303.5170445,303.5170445,306.6022584,Foils\f7.jpg,none,n,3.078117700000007,None,,,,,,,,00049,001,2026-01-18_15h51.26.110,MST_test,2024.2.0,59.99991600011918,2026-01-18 15h51.44.425755 +0530,
45,0,46,s,3.428177299999902,None,46,0,45,306.61744339999996,,,,,,,,,,,,,,,,,,,,,,,,,,,,,,,,,,,,,,,,,,,,,,,,,,306.6025625,306.61744339999996,307.19931039999994,307.10206789999995,307.19636259999993,307.19931039999994,307.19931039999994,307.19931039999994,310.63541699999996,Foils\050a.jpg,none,s,3.428177299999902,None,,,,,,,,00049,001,2026-01-18_15h51.26.110,MST_test,2024.2.0,59.99991600011918,2026-01-18 15h51.44.425755 +0530,
46,0,47,s,3.2797997000000123,None,47,0,46,310.6506971,,,,,,,,,,,,,,,,,,,,,,,,,,,,,,,,,,,,,,,,,,,,,,,,,,310.63570649999997,310.6506971,311.26003259999993,311.1356637,311.2571611999999,311.26003259999993,311.26003259999993,311.26003259999993,314.5531451999999,Foils\f6.jpg,none,s,3.2797997000000123,None,,,,,,,,00049,001,2026-01-18_15h51.26.110,MST_test,2024.2.0,59.99991600011918,2026-01-18 15h51.44.425755 +0530,
47,0,48,o,2.3994275000000016,None,48,0,47,314.5678094,,,,,,,,,,,,,,,,,,,,,,,,,,,,,,,,,,,,,,,,,,,,,,,,,,314.5535282999999,314.5678094,315.1006976,315.0521858999999,315.09791569999993,315.1006976,315.1006976,315.1006976,317.5030557,Objects\183a.jpg,post,o,2.3994275000000016,None,,,,,,,,00049,001,2026-01-18_15h51.26.110,MST_test,2024.2.0,59.99991600011918,2026-01-18 15h51.44.425755 +0530,
48,0,49,n,4.1868164999999635,None,49,0,48,317.5178502,,,,,,,,,,,,,,,,,,,,,,,,,,,,,,,,,,,,,,,,,,,,,,,,,,317.50331759999995,317.5178502,318.05775719999997,318.00195139999994,318.05406029999995,318.05775719999997,318.05775719999997,318.05775719999997,322.2535087,Objects\284b.jpg,pre,n,4.1868164999999635,None,,,,,,,,00049,001,2026-01-18_15h51.26.110,MST_test,2024.2.0,59.99991600011918,2026-01-18 15h51.44.425755 +0530,
49,0,50,o,3.861666100000093,None,50,0,49,322.26788609999994,,,,,,,,,,,,,,,,,,,,,,,,,,,,,,,,,,,,,,,,,,,,,,,,,,322.2539198999999,322.26788609999994,322.7989484,322.7521519999999,322.7962629,322.7989484,322.7989484,322.7989484,326.6694381,Objects\027b.jpg,pre,o,3.861666100000093,None,,,,,,,,00049,001,2026-01-18_15h51.26.110,MST_test,2024.2.0,59.99991600011918,2026-01-18 15h51.44.425755 +0530,
50,0,51,o,3.0780343999999786,None,51,0,50,326.6846478,,,,,,,,,,,,,,,,,,,,,,,,,,,,,,,,,,,,,,,,,,,,,,,,,,326.6696860999999,326.6846478,327.2778053999999,327.1685716999999,327.2747429,327.2778053999999,327.2778053999999,327.2778053999999,330.36953919999996,Objects\376a.jpg,mid,o,3.0780343999999786,None,,,,,,,,00049,001,2026-01-18_15h51.26.110,MST_test,2024.2.0,59.99991600011918,2026-01-18 15h51.44.425755 +0530,
51,0,52,o,6.272788099999957,None,52,0,51,330.38430389999996,,,,,,,,,,,,,,,,,,,,,,,,,,,,,,,,,,,,,,,,,,,,,,,,,,330.3698986999999,330.38430389999996,330.9078049,330.8683739999999,330.90508309999996,330.9078049,330.9078049,330.9078049,337.18623389999993,Objects\097a.jpg,mid,o,6.272788099999957,None,,,,,,,,00049,001,2026-01-18_15h51.26.110,MST_test,2024.2.0,59.99991600011918,2026-01-18 15h51.44.425755 +0530,
52,0,53,s,2.256897800000047,None,53,0,52,337.2009895,,,,,,,,,,,,,,,,,,,,,,,,,,,,,,,,,,,,,,,,,,,,,,,,,,337.18653499999994,337.2009895,337.7313302,337.6849085,337.72807249999994,337.7313302,337.7313302,337.7313302,340.0022719,Objects\047b.jpg,post,s,2.256897800000047,None,,,,,,,,00049,001,2026-01-18_15h51.26.110,MST_test,2024.2.0,59.99991600011918,2026-01-18 15h51.44.425755 +0530,
53,0,54,n,2.8152959999999894,None,54,0,53,340.01735039999994,,,,,,,,,,,,,,,,,,,,,,,,,,,,,,,,,,,,,,,,,,,,,,,,,,340.00249269999995,340.01735039999994,340.65308099999993,340.5021389,340.6503464,340.65308099999993,340.65308099999993,340.65308099999993,343.4856921999999,Foils\002a.jpg,none,n,2.8152959999999894,None,,,,,,,,00049,001,2026-01-18_15h51.26.110,MST_test,2024.2.0,59.99991600011918,2026-01-18 15h51.44.425755 +0530,
54,0,55,n,7.735335099999929,None,55,0,54,343.50065929999994,,,,,,,,,,,,,,,,,,,,,,,,,,,,,,,,,,,,,,,,,,,,,,,,,,343.48599709999996,343.50065929999994,344.0923075999999,343.98530489999996,344.0891534,344.0923075999999,344.0923075999999,344.0923075999999,351.8357196999999,Foils\101b.jpg,none,n,7.735335099999929,None,,,,,,,,00049,001,2026-01-18_15h51.26.110,MST_test,2024.2.0,59.99991600011918,2026-01-18 15h51.44.425755 +0530,
55,0,56,n,4.141304300000002,None,56,0,55,351.85105909999993,,,,,,,,,,,,,,,,,,,,,,,,,,,,,,,,,,,,,,,,,,,,,,,,,,351.8359478,351.85105909999993,352.41495069999996,352.33549289999996,352.4123092,352.41495069999996,352.41495069999996,352.41495069999996,356.5691164,Foils\081a.jpg,none,n,4.141304300000002,None,,,,,,,,00049,001,2026-01-18_15h51.26.110,MST_test,2024.2.0,59.99991600011918,2026-01-18 15h51.44.425755 +0530,
56,0,57,s,2.107878899999946,None,57,0,56,356.5840443999999,,,,,,,,,,,,,,,,,,,,,,,,,,,,,,,,,,,,,,,,,,,,,,,,,,356.5694178,356.5840443999999,357.5441816,357.06894439999996,357.54141429999993,357.5441816,357.5441816,357.5441816,359.66934749999996,Objects\230b.jpg,post,s,2.107878899999946,None,,,,,,,,00049,001,2026-01-18_15h51.26.110,MST_test,2024.2.0,59.99991600011918,2026-01-18 15h51.44.425755 +0530,
57,0,58,n,4.913706200000092,None,58,0,57,359.68437859999995,,,,,,,,,,,,,,,,,,,,,,,,,,,,,,,,,,,,,,,,,,,,,,,,,,359.6696565,359.68437859999995,360.25102549999997,360.1688648999999,360.24823689999994,360.25102549999997,360.25102549999997,360.25102549999997,365.1696599999999,Foils\097a.jpg,none,n,4.913706200000092,None,,,,,,,,00049,001,2026-01-18_15h51.26.110,MST_test,2024.2.0,59.99991600011918,2026-01-18 15h51.44.425755 +0530,
58,0,59,s,2.2652208000000655,None,59,0,58,365.1843293999999,,,,,,,,,,,,,,,,,,,,,,,,,,,,,,,,,,,,,,,,,,,,,,,,,,365.1699275,365.1843293999999,365.81153129999996,365.66884429999993,365.80803549999996,365.81153129999996,365.81153129999996,365.81153129999996,368.0861924999999,Objects\021b.jpg,mid,s,2.2652208000000655,None,,,,,,,,00049,001,2026-01-18_15h51.26.110,MST_test,2024.2.0,59.99991600011918,2026-01-18 15h51.44.425755 +0530,
59,0,60,s,1.5314409000000069,None,60,0,59,368.10093989999996,,,,,,,,,,,,,,,,,,,,,,,,,,,,,,,,,,,,,,,,,,,,,,,,,,368.08644919999995,368.10093989999996,368.7519140999999,368.58505479999997,368.74893929999996,368.7519140999999,368.7519140999999,368.7519140999999,370.28623429999993,Objects\238a.jpg,mid,s,1.5314409000000069,None,,,,,,,,00049,001,2026-01-18_15h51.26.110,MST_test,2024.2.0,59.99991600011918,2026-01-18 15h51.44.425755 +0530,
60,0,61,s,2.856539399999974,None,61,0,60,370.3009125,,,,,,,,,,,,,,,,,,,,,,,,,,,,,,,,,,,,,,,,,,,,,,,,,,370.28658669999993,370.3009125,370.88338379999993,370.78539249999994,370.8805417,370.88338379999993,370.88338379999993,370.88338379999993,373.75293639999995,Objects\141a.jpg,mid,s,2.856539399999974,None,,,,,,,,00049,001,2026-01-18_15h51.26.110,MST_test,2024.2.0,59.99991600011918,2026-01-18 15h51.44.425755 +0530,
61,0,62,o,1.9896625000000085,None,62,0,61,373.7676664999999,,,,,,,,,,,,,,,,,,,,,,,,,,,,,,,,,,,,,,,,,,,,,,,,,,373.7533636999999,373.7676664999999,374.3908925999999,374.2521346,374.3879505,374.3908925999999,374.3908925999999,374.3908925999999,376.3860566999999,Objects\053a.jpg,pre,o,1.9896625000000085,None,,,,,,,,00049,001,2026-01-18_15h51.26.110,MST_test,2024.2.0,59.99991600011918,2026-01-18 15h51.44.425755 +0530,
62,0,63,s,2.2285645000000613,None,63,0,62,376.40103309999995,,,,,,,,,,,,,,,,,,,,,,,,,,,,,,,,,,,,,,,,,,,,,,,,,,376.3863627999999,376.40103309999995,376.9672869,376.88537969999993,376.9647789999999,376.9672869,376.9672869,376.9672869,379.2030679999999,Objects\369a.jpg,mid,s,2.2285645000000613,None,,,,,,,,00049,001,2026-01-18_15h51.26.110,MST_test,2024.2.0,59.99991600011918,2026-01-18 15h51.44.425755 +0530,
63,0,64,n,1.3108164000000215,None,64,0,63,379.2176022,,,,,,,,,,,,,,,,,,,,,,,,,,,,,,,,,,,,,,,,,,,,,,,,,,379.2035095,379.2176022,379.74900059999993,379.7022445,379.74645,379.74900059999993,379.74900059999993,379.74900059999993,381.0698986,Foils\065a.jpg,none,n,1.3108164000000215,None,,,,,,,,00049,001,2026-01-18_15h51.26.110,MST_test,2024.2.0,59.99991600011918,2026-01-18 15h51.44.425755 +0530,
64,0,65,s,1.4214183000000276,None,65,0,64,381.08427259999996,,,,,,,,,,,,,,,,,,,,,,,,,,,,,,,,,,,,,,,,,,,,,,,,,,381.0702389999999,381.08427259999996,381.6307711999999,381.56850339999994,381.6275887999999,381.6307711999999,381.6307711999999,381.6307711999999,383.06953209999995,Objects\010b.jpg,pre,s,1.4214183000000276,None,,,,,,,,00049,001,2026-01-18_15h51.26.110,MST_test,2024.2.0,59.99991600011918,2026-01-18 15h51.44.425755 +0530,
65,0,66,o,1.789800600000035,None,66,0,65,383.08429979999994,,,,,,,,,,,,,,,,,,,,,,,,,,,,,,,,,,,,,,,,,,,,,,,,,,383.06991559999994,383.08429979999994,383.7338579,383.56873729999995,383.73128959999997,383.7338579,383.7338579,383.7338579,385.53649269999994,Objects\347a.jpg,pre,o,1.789800600000035,None,,,,,,,,00049,001,2026-01-18_15h51.26.110,MST_test,2024.2.0,59.99991600011918,2026-01-18 15h51.44.425755 +0530,
66,0,67,s,5.701806899999951,None,67,0,66,385.55096259999993,,,,,,,,,,,,,,,,,,,,,,,,,,,,,,,,,,,,,,,,,,,,,,,,,,385.5367808,385.55096259999993,386.1184717,386.03520519999995,386.1148844999999,386.1184717,386.1184717,386.1184717,391.83614239999997,Objects\360a.jpg,mid,s,5.701806899999951,None,,,,,,,,00049,001,2026-01-18_15h51.26.110,MST_test,2024.2.0,59.99991600011918,2026-01-18 15h51.44.425755 +0530,
67,0,68,n,2.633894000000055,None,68,0,67,391.8510104999999,,,,,,,,,,,,,,,,,,,,,,,,,,,,,,,,,,,,,,,,,,,,,,,,,,391.83651309999993,391.8510104999999,392.4021467,392.3357140999999,392.3982868999999,392.4021467,392.4021467,392.4021467,395.05346269999995,Objects\078b.jpg,pre,n,2.633894000000055,None,,,,,,,,00049,001,2026-01-18_15h51.26.110,MST_test,2024.2.0,59.99991600011918,2026-01-18 15h51.44.425755 +0530,
68,0,69,o,1.8118312000000287,None,69,0,68,395.0675328,,,,,,,,,,,,,,,,,,,,,,,,,,,,,,,,,,,,,,,,,,,,,,,,,,395.053767,395.0675328,395.6001225,395.5520107,395.5969283999999,395.6001225,395.6001225,395.6001225,397.4195387,Objects\134a.jpg,pre,o,1.8118312000000287,None,,,,,,,,00049,001,2026-01-18_15h51.26.110,MST_test,2024.2.0,59.99991600011918,2026-01-18 15h51.44.425755 +0530,
69,0,70,o,1.487616100000082,None,70,0,69,397.4343200999999,,,,,,,,,,,,,,,,,,,,,,,,,,,,,,,,,,,,,,,,,,,,,,,,,,397.41988589999994,397.4343200999999,397.9567073999999,397.91863809999995,397.9536343,397.9567073999999,397.9567073999999,397.9567073999999,399.45327729999997,Objects\286a.jpg,pre,o,1.487616100000082,None,,,,,,,,00049,001,2026-01-18_15h51.26.110,MST_test,2024.2.0,59.99991600011918,2026-01-18 15h51.44.425755 +0530,
70,0,71,s,2.853917000000024,None,71,0,70,399.4678650999999,,,,,,,,,,,,,,,,,,,,,,,,,,,,,,,,,,,,,,,,,,,,,,,,,,399.4535556999999,399.4678650999999,399.9903888,399.9522651,399.9868272,399.9903888,399.9903888,399.9903888,402.85286139999994,Objects\216b.jpg,pre,s,2.853917000000024,None,,,,,,,,00049,001,2026-01-18_15h51.26.110,MST_test,2024.2.0,59.99991600011918,2026-01-18 15h51.44.425755 +0530,
71,0,72,s,1.6654912999999851,None,72,0,71,402.86769089999996,,,,,,,,,,,,,,,,,,,,,,,,,,,,,,,,,,,,,,,,,,,,,,,,,,402.8532844,402.86769089999996,403.3865859,403.351896,403.38382609999996,403.3865859,403.3865859,403.3865859,405.06942259999994,Objects\130b.jpg,pre,s,1.6654912999999851,None,,,,,,,,00049,001,2026-01-18_15h51.26.110,MST_test,2024.2.0,59.99991600011918,2026-01-18 15h51.44.425755 +0530,
72,0,73,o,1.3854879000000437,None,73,0,72,405.08421439999995,,,,,,,,,,,,,,,,,,,,,,,,,,,,,,,,,,,,,,,,,,,,,,,,,,405.0697429999999,405.08421439999995,405.61106069999994,405.56897389999995,405.6084295999999,405.61106069999994,405.61106069999994,405.61106069999994,407.00281359999997,Objects\125a.jpg,pre,o,1.3854879000000437,None,,,,,,,,00049,001,2026-01-18_15h51.26.110,MST_test,2024.2.0,59.99991600011918,2026-01-18 15h51.44.425755 +0530,
73,0,74,s,1.7039892000000236,None,74,0,73,407.0179382,,,,,,,,,,,,,,,,,,,,,,,,,,,,,,,,,,,,,,,,,,,,,,,,,,407.00305159999994,407.0179382,407.53992129999995,407.5019815999999,407.5369237,407.53992129999995,407.53992129999995,407.53992129999995,409.25305789999993,Objects\198b.jpg,pre,s,1.7039892000000236,None,,,,,,,,00049,001,2026-01-18_15h51.26.110,MST_test,2024.2.0,59.99991600011918,2026-01-18 15h51.44.425755 +0530,
74,0,75,o,2.067281899999898,None,75,0,74,409.2677318,,,,,,,,,,,,,,,,,,,,,,,,,,,,,,,,,,,,,,,,,,,,,,,,,,409.253515,409.2677318,409.8008659999999,409.7523455999999,409.79826519999995,409.8008659999999,409.8008659999999,409.8008659999999,411.8703387999999,Objects\066a.jpg,pre,o,2.067281899999898,None,,,,,,,,00049,001,2026-01-18_15h51.26.110,MST_test,2024.2.0,59.99991600011918,2026-01-18 15h51.44.425755 +0530,
75,0,76,s,1.2645530999999437,None,76,0,75,411.88431449999996,,,,,,,,,,,,,,,,,,,,,,,,,,,,,,,,,,,,,,,,,,,,,,,,,,411.8706537999999,411.88431449999996,412.40341349999994,412.3687903,412.4006407999999,412.40341349999994,412.40341349999994,412.40341349999994,413.66982959999996,Objects\133b.jpg,pre,s,1.2645530999999437,None,,,,,,,,00049,001,2026-01-18_15h51.26.110,MST_test,2024.2.0,59.99991600011918,2026-01-18 15h51.44.425755 +0530,
76,0,77,s,2.6829139999999825,None,77,0,76,413.6841612999999,,,,,,,,,,,,,,,,,,,,,,,,,,,,,,,,,,,,,,,,,,,,,,,,,,413.67017809999993,413.6841612999999,414.1927273,414.16851629999996,414.1899745999999,414.1927273,414.1927273,414.1927273,416.88627669999994,Objects\314b.jpg,pre,s,2.6829139999999825,None,,,,,,,,00049,001,2026-01-18_15h51.26.110,MST_test,2024.2.0,59.99991600011918,2026-01-18 15h51.44.425755 +0530,
77,0,78,o,2.803824500000019,None,78,0,77,416.9008341,,,,,,,,,,,,,,,,,,,,,,,,,,,,,,,,,,,,,,,,,,,,,,,,,,416.8866144,416.9008341,417.4164480999999,417.38532109999994,417.41412219999995,417.4164480999999,417.4164480999999,417.4164480999999,420.2368601999999,Objects\127a.jpg,post,o,2.803824500000019,None,,,,,,,,00049,001,2026-01-18_15h51.26.110,MST_test,2024.2.0,59.99991600011918,2026-01-18 15h51.44.425755 +0530,
78,0,79,o,2.2914921999999933,None,79,0,78,420.25093849999996,,,,,,,,,,,,,,,,,,,,,,,,,,,,,,,,,,,,,,,,,,,,,,,,,,420.2371860999999,420.25093849999996,420.7847502999999,420.73477949999995,420.78189569999995,420.7847502999999,420.7847502999999,420.7847502999999,423.0864527,Objects\092a.jpg,post,o,2.2914921999999933,None,,,,,,,,00049,001,2026-01-18_15h51.26.110,MST_test,2024.2.0,59.99991600011918,2026-01-18 15h51.44.425755 +0530,
79,0,80,o,1.932163800000012,None,80,0,79,423.10103229999993,,,,,,,,,,,,,,,,,,,,,,,,,,,,,,,,,,,,,,,,,,,,,,,,,,423.08679499999994,423.10103229999993,423.61563219999994,423.58557069999995,423.61300399999993,423.61563219999994,423.61563219999994,423.61563219999994,425.5532142999999,Objects\201b.jpg,post,o,1.932163800000012,None,,,,,,,,00049,001,2026-01-18_15h51.26.110,MST_test,2024.2.0,59.99991600011918,2026-01-18 15h51.44.425755 +0530,
80,0,81,s,1.2363172000000304,None,81,0,80,425.56793789999995,,,,,,,,,,,,,,,,,,,,,,,,,,,,,,,,,,,,,,,,,,,,,,,,,,425.55354249999993,425.56793789999995,426.0871082,426.0523684,426.0844141,426.0871082,426.0871082,426.0871082,427.3364403999999,Objects\038a.jpg,mid,s,1.2363172000000304,None,,,,,,,,00049,001,2026-01-18_15h51.26.110,MST_test,2024.2.0,59.99991600011918,2026-01-18 15h51.44.425755 +0530,
81,0,82,s,2.7510826999999836,None,82,0,81,427.35110699999996,,,,,,,,,,,,,,,,,,,,,,,,,,,,,,,,,,,,,,,,,,,,,,,,,,427.33687929999996,427.35110699999996,427.8763237999999,427.8354266,427.8736001,427.8763237999999,427.8763237999999,427.8763237999999,430.6348571,Objects\151b.jpg,mid,s,2.7510826999999836,None,,,,,,,,00049,001,2026-01-18_15h51.26.110,MST_test,2024.2.0,59.99991600011918,2026-01-18 15h51.44.425755 +0530,
82,0,83,n,1.5329414999999926,None,83,0,82,430.6509734,,,,,,,,,,,,,,,,,,,,,,,,,,,,,,,,,,,,,,,,,,,,,,,,,,430.6349692,430.6509734,431.1835651,431.1353593,431.18112369999994,431.1835651,431.1835651,431.1835651,432.71976359999996,Objects\260b.jpg,mid,n,1.5329414999999926,None,,,,,,,,00049,001,2026-01-18_15h51.26.110,MST_test,2024.2.0,59.99991600011918,2026-01-18 15h51.44.425755 +0530,
83,0,84,n,1.9044777999999951,None,84,0,83,432.73421469999994,,,,,,,,,,,,,,,,,,,,,,,,,,,,,,,,,,,,,,,,,,,,,,,,,,432.7200848,432.73421469999994,433.2602691999999,433.2187696,433.2571699,433.2602691999999,433.2602691999999,433.2602691999999,435.1695980999999,Objects\242a.jpg,pre,n,1.9044777999999951,None,,,,,,,,00049,001,2026-01-18_15h51.26.110,MST_test,2024.2.0,59.99991600011918,2026-01-18 15h51.44.425755 +0530,
84,0,85,s,1.3577523000000156,None,85,0,84,435.18432899999993,,,,,,,,,,,,,,,,,,,,,,,,,,,,,,,,,,,,,,,,,,,,,,,,,,435.1699585,435.18432899999993,435.710058,435.66878429999997,435.70738029999995,435.710058,435.710058,435.710058,437.0699841999999,Objects\153b.jpg,mid,s,1.3577523000000156,None,,,,,,,,00049,001,2026-01-18_15h51.26.110,MST_test,2024.2.0,59.99991600011918,2026-01-18 15h51.44.425755 +0530,
85,0,86,o,1.4405643000000055,None,86,0,85,437.08429939999996,,,,,,,,,,,,,,,,,,,,,,,,,,,,,,,,,,,,,,,,,,,,,,,,,,437.07032689999994,437.08429939999996,437.6193217,437.5688038999999,437.61641009999994,437.6193217,437.6193217,437.6193217,439.06958699999996,Objects\094a.jpg,post,o,1.4405643000000055,None,,,,,,,,00049,001,2026-01-18_15h51.26.110,MST_test,2024.2.0,59.99991600011918,2026-01-18 15h51.44.425755 +0530,
86,0,87,n,1.2383364999999458,None,87,0,86,439.0844495,,,,,,,,,,,,,,,,,,,,,,,,,,,,,,,,,,,,,,,,,,,,,,,,,,439.0698514999999,439.0844495,439.63772859999995,439.5687658999999,439.6351741,439.63772859999995,439.63772859999995,439.63772859999995,440.8868804,Foils\009a.jpg,none,n,1.2383364999999458,None,,,,,,,,00049,001,2026-01-18_15h51.26.110,MST_test,2024.2.0,59.99991600011918,2026-01-18 15h51.44.425755 +0530,
87,0,88,s,3.7162781000000678,None,88,0,87,440.9013877,,,,,,,,,,,,,,,,,,,,,,,,,,,,,,,,,,,,,,,,,,,,,,,,,,440.8871359,440.9013877,441.4869526,441.3853434,441.4841505999999,441.4869526,441.4869526,441.4869526,445.2193053,Objects\221b.jpg,post,s,3.7162781000000678,None,,,,,,,,00049,001,2026-01-18_15h51.26.110,MST_test,2024.2.0,59.99991600011918,2026-01-18 15h51.44.425755 +0530,
88,0,89,s,1.7016145000000051,None,89,0,88,445.2343609999999,,,,,,,,,,,,,,,,,,,,,,,,,,,,,,,,,,,,,,,,,,,,,,,,,,445.2195302,445.2343609999999,445.76671369999997,445.7190933999999,445.7624821999999,445.76671369999997,445.76671369999997,445.76671369999997,447.4703834999999,Foils\057a.jpg,none,s,1.7016145000000051,None,,,,,,,,00049,001,2026-01-18_15h51.26.110,MST_test,2024.2.0,59.99991600011918,2026-01-18 15h51.44.425755 +0530,
89,0,90,n,1.3590962999999192,None,90,0,89,447.4850186,,,,,,,,,,,,,,,,,,,,,,,,,,,,,,,,,,,,,,,,,,,,,,,,,,447.47064939999996,447.4850186,448.04487919999997,447.9685955,448.04252899999994,448.04487919999997,448.04487919999997,448.04487919999997,449.41963269999997,Foils\026a.jpg,none,n,1.3590962999999192,None,,,,,,,,00049,001,2026-01-18_15h51.26.110,MST_test,2024.2.0,59.99991600011918,2026-01-18 15h51.44.425755 +0530,
90,0,91,o,1.898349899999971,None,91,0,90,449.43435249999993,,,,,,,,,,,,,,,,,,,,,,,,,,,,,,,,,,,,,,,,,,,,,,,,,,449.42000039999994,449.43435249999993,449.9861411999999,449.9189551999999,449.9830470999999,449.9861411999999,449.9861411999999,449.9861411999999,451.88753539999993,Objects\272a.jpg,pre,o,1.898349899999971,None,,,,,,,,00049,001,2026-01-18_15h51.26.110,MST_test,2024.2.0,59.99991600011918,2026-01-18 15h51.44.425755 +0530,
91,0,92,s,1.5644894999999224,None,92,0,91,451.90099169999996,,,,,,,,,,,,,,,,,,,,,,,,,,,,,,,,,,,,,,,,,,,,,,,,,,451.8877832999999,451.90099169999996,452.4475801,452.3854037,452.44499669999993,452.4475801,452.4475801,452.4475801,454.0196065,Objects\050a.jpg,pre,s,1.5644894999999224,None,,,,,,,,00049,001,2026-01-18_15h51.26.110,MST_test,2024.2.0,59.99991600011918,2026-01-18 15h51.44.425755 +0530,
92,0,93,n,1.971021300000075,None,93,0,92,454.03505959999995,,,,,,,,,,,,,,,,,,,,,,,,,,,,,,,,,,,,,,,,,,,,,,,,,,454.0200153999999,454.03505959999995,454.59340069999996,454.5186163999999,454.5906670999999,454.59340069999996,454.59340069999996,454.59340069999996,456.56960979999997,Objects\017a.jpg,pre,n,1.971021300000075,None,,,,,,,,00049,001,2026-01-18_15h51.26.110,MST_test,2024.2.0,59.99991600011918,2026-01-18 15h51.44.425755 +0530,
93,0,94,n,1.8108395000000428,None,94,0,93,456.58444929999996,,,,,,,,,,,,,,,,,,,,,,,,,,,,,,,,,,,,,,,,,,,,,,,,,,456.56999659999997,456.58444929999996,457.10552599999994,457.0687375,457.10227929999996,457.10552599999994,457.10552599999994,457.10552599999994,458.92007739999997,Foils\018a.jpg,none,n,1.8108395000000428,None,,,,,,,,00049,001,2026-01-18_15h51.26.110,MST_test,2024.2.0,59.99991600011918,2026-01-18 15h51.44.425755 +0530,
94,0,95,n,3.2906302000000096,None,95,0,94,458.9344683999999,,,,,,,,,,,,,,,,,,,,,,,,,,,,,,,,,,,,,,,,,,,,,,,,,,458.920476,458.9344683999999,459.48974169999997,459.4188360999999,459.48691269999995,459.48974169999997,459.48974169999997,459.48974169999997,462.7861014,Objects\059b.jpg,post,n,3.2906302000000096,None,,,,,,,,00049,001,2026-01-18_15h51.26.110,MST_test,2024.2.0,59.99991600011918,2026-01-18 15h51.44.425755 +0530,
95,0,96,o,1.6752551999999241,None,96,0,95,462.8010896999999,,,,,,,,,,,,,,,,,,,,,,,,,,,,,,,,,,,,,,,,,,,,,,,,,,462.78642709999997,462.8010896999999,463.3127446,463.2853761,463.3095070999999,463.3127446,463.3127446,463.3127446,465.00368879999996,Objects\344a.jpg,post,o,1.6752551999999241,None,,,,,,,,00049,001,2026-01-18_15h51.26.110,MST_test,2024.2.0,59.99991600011918,2026-01-18 15h51.44.425755 +0530,
96,0,97,n,1.2240573999999924,None,97,0,96,465.0175878,,,,,,,,,,,,,,,,,,,,,,,,,,,,,,,,,,,,,,,,,,,,,,,,,,465.0040544,465.0175878,465.55583579999995,465.50237519999996,465.5525210999999,465.55583579999995,465.55583579999995,465.55583579999995,466.7856878,Objects\233b.jpg,post,n,1.2240573999999924,None,,,,,,,,00049,001,2026-01-18_15h51.26.110,MST_test,2024.2.0,59.99991600011918,2026-01-18 15h51.44.425755 +0530,
97,0,98,o,1.832335100000023,None,98,0,97,466.80097149999995,,,,,,,,,,,,,,,,,,,,,,,,,,,,,,,,,,,,,,,,,,,,,,,,,,466.78599629999997,466.80097149999995,467.3311162,467.28523129999996,467.32829119999997,467.3311162,467.3311162,467.3311162,469.16944409999996,Objects\205a.jpg,mid,o,1.832335100000023,None,,,,,,,,00049,001,2026-01-18_15h51.26.110,MST_test,2024.2.0,59.99991600011918,2026-01-18 15h51.44.425755 +0530,
98,0,99,o,1.6786645000000817,None,99,0,98,469.1843517,,,,,,,,,,,,,,,,,,,,,,,,,,,,,,,,,,,,,,,,,,,,,,,,,,469.16981509999994,469.1843517,469.7099468,469.6688994,469.7073504,469.7099468,469.7099468,469.7099468,471.4027185,Objects\303a.jpg,post,o,1.6786645000000817,None,,,,,,,,00049,001,2026-01-18_15h51.26.110,MST_test,2024.2.0,59.99991600011918,2026-01-18 15h51.44.425755 +0530,
99,0,100,o,1.3286496000000625,None,100,0,99,471.4177989,,,,,,,,,,,,,,,,,,,,,,,,,,,,,,,,,,,,,,,,,,,,,,,,,,471.40313889999993,471.4177989,471.9634679999999,471.90200029999994,471.96048659999997,471.9634679999999,471.9634679999999,471.9634679999999,473.30309639999996,Objects\046b.jpg,pre,o,1.3286496000000625,None,,,,,,,,00049,001,2026-01-18_15h51.26.110,MST_test,2024.2.0,59.99991600011918,2026-01-18 15h51.44.425755 +0530,
100,0,101,s,1.6200675000000047,None,101,0,100,473.3180233999999,,,,,,,,,,,,,,,,,,,,,,,,,,,,,,,,,,,,,,,,,,,,,,,,,,473.3033633,473.3180233999999,473.8640411,473.8022784,473.8615709999999,473.8640411,473.8640411,473.8640411,475.48650509999993,Objects\206b.jpg,post,s,1.6200675000000047,None,,,,,,,,00049,001,2026-01-18_15h51.26.110,MST_test,2024.2.0,59.99991600011918,2026-01-18 15h51.44.425755 +0530,
101,0,102,n,1.2030263000000332,None,102,0,101,475.5010355999999,,,,,,,,,,,,,,,,,,,,,,,,,,,,,,,,,,,,,,,,,,,,,,,,,,475.48680379999996,475.5010355999999,476.02516689999993,475.98566029999995,476.02260909999995,476.02516689999993,476.02516689999993,476.02516689999993,477.2362727,Foils\066a.jpg,none,n,1.2030263000000332,None,,,,,,,,00049,001,2026-01-18_15h51.26.110,MST_test,2024.2.0,59.99991600011918,2026-01-18 15h51.44.425755 +0530,
102,0,103,o,2.4280287999999928,None,103,0,102,477.251038,,,,,,,,,,,,,,,,,,,,,,,,,,,,,,,,,,,,,,,,,,,,,,,,,,477.2365699999999,477.251038,477.7754157999999,477.7355523,477.77270869999995,477.7754157999999,477.7754157999999,477.7754157999999,480.2196686,Objects\211a.jpg,mid,o,2.4280287999999928,None,,,,,,,,00049,001,2026-01-18_15h51.26.110,MST_test,2024.2.0,59.99991600011918,2026-01-18 15h51.44.425755 +0530,
103,0,104,s,2.4608532999999397,None,104,0,103,480.23445649999996,,,,,,,,,,,,,,,,,,,,,,,,,,,,,,,,,,,,,,,,,,,,,,,,,,480.22000779999996,480.23445649999996,480.7505163999999,480.7186627,480.7476707999999,480.7505163999999,480.7505163999999,480.7505163999999,483.21968359999994,Objects\215b.jpg,mid,s,2.4608532999999397,None,,,,,,,,00049,001,2026-01-18_15h51.26.110,MST_test,2024.2.0,59.99991600011918,2026-01-18 15h51.44.425755 +0530,
104,0,105,o,2.166719999999941,None,105,0,104,483.2343022,,,,,,,,,,,,,,,,,,,,,,,,,,,,,,,,,,,,,,,,,,,,,,,,,,483.21998699999995,483.2343022,483.75716179999995,483.7184774,483.75401,483.75716179999995,483.75716179999995,483.75716179999995,485.93646849999993,Objects\315a.jpg,post,o,2.166719999999941,None,,,,,,,,00049,001,2026-01-18_15h51.26.110,MST_test,2024.2.0,59.99991600011918,2026-01-18 15h51.44.425755 +0530,
105,0,106,o,1.6923931999999695,None,106,0,105,485.9511364,,,,,,,,,,,,,,,,,,,,,,,,,,,,,,,,,,,,,,,,,,,,,,,,,,485.93676259999995,485.9511364,486.47943999999995,486.4354896,486.47645279999995,486.47943999999995,486.47943999999995,486.47943999999995,488.1853705,Objects\164b.jpg,post,o,1.6923931999999695,None,,,,,,,,00049,001,2026-01-18_15h51.26.110,MST_test,2024.2.0,59.99991600011918,2026-01-18 15h51.44.425755 +0530,
106,0,107,o,1.1991200999999592,None,107,0,106,488.20071659999996,,,,,,,,,,,,,,,,,,,,,,,,,,,,,,,,,,,,,,,,,,,,,,,,,,488.1856714999999,488.20071659999996,488.7084908999999,488.6846714999999,488.7062208,488.7084908999999,488.7084908999999,488.7084908999999,489.9196892,Objects\132a.jpg,mid,o,1.1991200999999592,None,,,,,,,,00049,001,2026-01-18_15h51.26.110,MST_test,2024.2.0,59.99991600011918,2026-01-18 15h51.44.425755 +0530,
107,0,108,n,1.2233261000000084,None,108,0,107,489.93437929999993,,,,,,,,,,,,,,,,,,,,,,,,,,,,,,,,,,,,,,,,,,,,,,,,,,489.9200376,489.93437929999993,490.45262819999994,490.4185506,490.4497088999999,490.45262819999994,490.45262819999994,490.45262819999994,491.6872132,Foils\121a.jpg,none,n,1.2233261000000084,None,,,,,,,,00049,001,2026-01-18_15h51.26.110,MST_test,2024.2.0,59.99991600011918,2026-01-18 15h51.44.425755 +0530,
108,0,109,n,1.372652300000027,None,109,0,108,491.70098269999994,,,,,,,,,,,,,,,,,,,,,,,,,,,,,,,,,,,,,,,,,,,,,,,,,,491.6875978999999,491.70098269999994,492.2304898,492.1851153,492.2273269,492.2304898,492.2304898,492.2304898,493.6200513,Objects\243a.jpg,mid,n,1.372652300000027,None,,,,,,,,00049,001,2026-01-18_15h51.26.110,MST_test,2024.2.0,59.99991600011918,2026-01-18 15h51.44.425755 +0530,
109,0,110,o,1.317558800000029,None,110,0,109,493.6343056999999,,,,,,,,,,,,,,,,,,,,,,,,,,,,,,,,,,,,,,,,,,,,,,,,,,493.62032009999996,493.6343056999999,494.15018839999993,494.1189098,494.14723289999995,494.15018839999993,494.15018839999993,494.15018839999993,495.470064,Objects\253a.jpg,post,o,1.317558800000029,None,,,,,,,,00049,001,2026-01-18_15h51.26.110,MST_test,2024.2.0,59.99991600011918,2026-01-18 15h51.44.425755 +0530,
110,0,111,s,3.251174399999968,None,111,0,110,495.4843634,,,,,,,,,,,,,,,,,,,,,,,,,,,,,,,,,,,,,,,,,,,,,,,,,,495.4703776,495.4843634,496.03234829999997,495.9688761,496.02878309999994,496.03234829999997,496.03234829999997,496.03234829999997,499.2863080999999,Objects\306b.jpg,pre,s,3.251174399999968,None,,,,,,,,00049,001,2026-01-18_15h51.26.110,MST_test,2024.2.0,59.99991600011918,2026-01-18 15h51.44.425755 +0530,
111,0,112,s,1.5040529000000333,None,112,0,111,499.30125469999996,,,,,,,,,,,,,,,,,,,,,,,,,,,,,,,,,,,,,,,,,,,,,,,,,,499.2865506999999,499.30125469999996,499.82733599999995,499.78535579999993,499.82452749999993,499.82733599999995,499.82733599999995,499.82733599999995,501.33628039999996,Objects\361b.jpg,pre,s,1.5040529000000333,None,,,,,,,,00049,001,2026-01-18_15h51.26.110,MST_test,2024.2.0,59.99991600011918,2026-01-18 15h51.44.425755 +0530,
112,0,113,n,1.8601101999998946,None,113,0,112,501.35133669999993,,,,,,,,,,,,,,,,,,,,,,,,,,,,,,,,,,,,,,,,,,,,,,,,,,501.33653489999995,501.35133669999993,501.88836029999993,501.8361239999999,501.88493889999995,501.88836029999993,501.88836029999993,501.88836029999993,503.75278850000007,Objects\307a.jpg,pre,n,1.8601101999998946,None,,,,,,,,00049,001,2026-01-18_15h51.26.110,MST_test,2024.2.0,59.99991600011918,2026-01-18 15h51.44.425755 +0530,
113,0,114,o,1.4257107000000815,None,114,0,113,503.76765020000005,,,,,,,,,,,,,,,,,,,,,,,,,,,,,,,,,,,,,,,,,,,,,,,,,,503.7530393999999,503.76765020000005,504.3062389999999,504.25180779999994,504.30323609999994,504.3062389999999,504.3062389999999,504.3062389999999,505.73643759999993,Objects\162b.jpg,mid,o,1.4257107000000815,None,,,,,,,,00049,001,2026-01-18_15h51.26.110,MST_test,2024.2.0,59.99991600011918,2026-01-18 15h51.44.425755 +0530,
114,0,115,s,1.4903655000000526,None,115,0,114,505.75108880000005,,,,,,,,,,,,,,,,,,,,,,,,,,,,,,,,,,,,,,,,,,,,,,,,,,505.73672210000007,505.75108880000005,506.28106820000005,506.2355119,506.27872650000006,506.28106820000005,506.28106820000005,506.28106820000005,507.7863306999999,Objects\131a.jpg,post,s,1.4903655000000526,None,,,,,,,,00049,001,2026-01-18_15h51.26.110,MST_test,2024.2.0,59.99991600011918,2026-01-18 15h51.44.425755 +0530,
115,0,116,n,1.962025199999971,None,116,0,115,507.8013496,,,,,,,,,,,,,,,,,,,,,,,,,,,,,,,,,,,,,,,,,,,,,,,,,,507.78659400000004,507.8013496,508.33035959999995,508.2854166999999,508.32677780000006,508.33035959999995,508.33035959999995,508.33035959999995,510.30295979999994,Objects\266b.jpg,pre,n,1.962025199999971,None,,,,,,,,00049,001,2026-01-18_15h51.26.110,MST_test,2024.2.0,59.99991600011918,2026-01-18 15h51.44.425755 +0530,
116,0,117,n,1.4761905000000297,None,117,0,116,510.31768069999987,,,,,,,,,,,,,,,,,,,,,,,,,,,,,,,,,,,,,,,,,,,,,,,,,,510.3032869,510.31768069999987,510.89672630000007,510.8021522999999,510.8920207,510.89672630000007,510.89672630000007,510.89672630000007,512.387341,Foils\106a.jpg,none,n,1.4761905000000297,None,,,,,,,,00049,001,2026-01-18_15h51.26.110,MST_test,2024.2.0,59.99991600011918,2026-01-18 15h51.44.425755 +0530,
117,0,118,s,1.2366845999999896,None,118,0,117,512.4010829,,,,,,,,,,,,,,,,,,,,,,,,,,,,,,,,,,,,,,,,,,,,,,,,,,512.3876305999999,512.4010829,512.9591274,512.885553,512.9562287,512.9591274,512.9591274,512.9591274,514.2025373999999,Objects\336b.jpg,post,s,1.2366845999999896,None,,,,,,,,00049,001,2026-01-18_15h51.26.110,MST_test,2024.2.0,59.99991600011918,2026-01-18 15h51.44.425755 +0530,
118,0,119,s,1.677759000000151,None,119,0,118,514.2176091,,,,,,,,,,,,,,,,,,,,,,,,,,,,,,,,,,,,,,,,,,,,,,,,,,514.2027628,514.2176091,514.7500039,514.7024321,514.7459622,514.7500039,514.7500039,514.7500039,516.4364539,Objects\248b.jpg,post,s,1.677759000000151,None,,,,,,,,00049,001,2026-01-18_15h51.26.110,MST_test,2024.2.0,59.99991600011918,2026-01-18 15h51.44.425755 +0530,
119,0,120,n,1.6925017999999454,None,120,0,119,516.4512019999999,,,,,,,,,,,,,,,,,,,,,,,,,,,,,,,,,,,,,,,,,,,,,,,,,,516.4368327999999,516.4512019999999,516.9751941000001,516.9360459999999,516.9726001,516.9751941000001,516.9751941000001,516.9751941000001,518.6695398999999,Objects\137b.jpg,post,n,1.6925017999999454,None,,,,,,,,00049,001,2026-01-18_15h51.26.110,MST_test,2024.2.0,59.99991600011918,2026-01-18 15h51.44.425755 +0530,
120,0,121,o,1.3381131999999525,None,121,0,120,518.6847280000001,,,,,,,,,,,,,,,,,,,,,,,,,,,,,,,,,,,,,,,,,,,,,,,,,,518.6697939,518.6847280000001,519.1931077,519.169107,519.1906843,519.1931077,519.1931077,519.1931077,520.5363850999998,Objects\128a.jpg,pre,o,1.3381131999999525,None,,,,,,,,00049,001,2026-01-18_15h51.26.110,MST_test,2024.2.0,59.99991600011918,2026-01-18 15h51.44.425755 +0530,
121,0,122,o,1.2981194000001324,None,122,0,121,520.551284,,,,,,,,,,,,,,,,,,,,,,,,,,,,,,,,,,,,,,,,,,,,,,,,,,520.5366421,520.551284,521.0891218999999,521.0353377999999,521.0861191,521.0891218999999,521.0891218999999,521.0891218999999,522.4032108,Objects\057b.jpg,post,o,1.2981194000001324,None,,,,,,,,00049,001,2026-01-18_15h51.26.110,MST_test,2024.2.0,59.99991600011918,2026-01-18 15h51.44.425755 +0530,
122,0,123,n,2.180264399999942,None,123,0,122,522.4176991,,,,,,,,,,,,,,,,,,,,,,,,,,,,,,,,,,,,,,,,,,,,,,,,,,522.4034610999998,522.4176991,522.9677737999999,522.9024102,522.9650714,522.9677737999999,522.9677737999999,522.9677737999999,525.152764,Foils\093b.jpg,none,n,2.180264399999942,None,,,,,,,,00049,001,2026-01-18_15h51.26.110,MST_test,2024.2.0,59.99991600011918,2026-01-18 15h51.44.425755 +0530,
123,0,124,n,2.7516299999999774,None,124,0,123,525.1676613999999,,,,,,,,,,,,,,,,,,,,,,,,,,,,,,,,,,,,,,,,,,,,,,,,,,525.1530970999999,525.1676613999999,525.7001466,525.652264,525.6967590999999,525.7001466,525.7001466,525.7001466,528.4536876999999,Objects\343a.jpg,mid,n,2.7516299999999774,None,,,,,,,,00049,001,2026-01-18_15h51.26.110,MST_test,2024.2.0,59.99991600011918,2026-01-18 15h51.44.425755 +0530,
124,0,125,o,1.3502968999998757,None,125,0,124,528.4676647,,,,,,,,,,,,,,,,,,,,,,,,,,,,,,,,,,,,,,,,,,,,,,,,,,528.4540436999999,528.4676647,528.9807918999999,528.9523716999998,528.9769255999998,528.9807918999999,528.9807918999999,528.9807918999999,530.3362154999999,Objects\287a.jpg,post,o,1.3502968999998757,None,,,,,,,,00049,001,2026-01-18_15h51.26.110,MST_test,2024.2.0,59.99991600011918,2026-01-18 15h51.44.425755 +0530,
125,0,126,s,1.67992490000006,None,126,0,125,530.3509671,,,,,,,,,,,,,,,,,,,,,,,,,,,,,,,,,,,,,,,,,,,,,,,,,,530.3364593999999,530.3509671,530.9235645999998,530.8363120999999,530.8824429999999,530.9235645999998,530.9235645999998,530.9235645999998,532.6196537,Objects\317a.jpg,pre,s,1.67992490000006,None,,,,,,,,00049,001,2026-01-18_15h51.26.110,MST_test,2024.2.0,59.99991600011918,2026-01-18 15h51.44.425755 +0530,
126,0,127,n,1.1708799000000454,None,127,0,126,532.634367,,,,,,,,,,,,,,,,,,,,,,,,,,,,,,,,,,,,,,,,,,,,,,,,,,532.6200593,532.634367,533.1446606000001,533.118918,533.1417232999999,533.1446606000001,533.1446606000001,533.1446606000001,534.31884,Foils\113a.jpg,none,n,1.1708799000000454,None,,,,,,,,00049,001,2026-01-18_15h51.26.110,MST_test,2024.2.0,59.99991600011918,2026-01-18 15h51.44.425755 +0530,
127,0,128,s,1.7483531999998831,None,128,0,127,534.3339901999999,,,,,,,,,,,,,,,,,,,,,,,,,,,,,,,,,,,,,,,,,,,,,,,,,,534.3191575,534.3339901999999,534.847394,534.8178357999999,534.8448161999999,534.847394,534.847394,534.847394,536.6028026999999,Objects\120a.jpg,pre,s,1.7483531999998831,None,,,,,,,,00049,001,2026-01-18_15h51.26.110,MST_test,2024.2.0,59.99991600011918,2026-01-18 15h51.44.425755 +0530,
128,0,129,s,5.312969000000066,None,129,0,128,536.617517,,,,,,,,,,,,,,,,,,,,,,,,,,,,,,,,,,,,,,,,,,,,,,,,,,536.6030995,536.617517,537.2106627,537.1020957,537.2080857,537.2106627,537.2106627,537.2106627,542.5362667,Objects\378b.jpg,post,s,5.312969000000066,None,,,,,,,,00049,001,2026-01-18_15h51.26.110,MST_test,2024.2.0,59.99991600011918,2026-01-18 15h51.44.425755 +0530,
129,0,130,s,1.8710681999998542,None,130,0,129,542.5511445999999,,,,,,,,,,,,,,,,,,,,,,,,,,,,,,,,,,,,,,,,,,,,,,,,,,542.5366791,542.5511445999999,543.0693665999999,543.0354139,543.0666502,543.0693665999999,543.0693665999999,543.0693665999999,544.9530489999999,Objects\270a.jpg,pre,s,1.8710681999998542,None,,,,,,,,00049,001,2026-01-18_15h51.26.110,MST_test,2024.2.0,59.99991600011918,2026-01-18 15h51.44.425755 +0530,
130,0,131,s,1.5328441999999995,None,131,0,130,544.9676880000001,,,,,,,,,,,,,,,,,,,,,,,,,,,,,,,,,,,,,,,,,,,,,,,,,,544.9534565999999,544.9676880000001,545.4952540999999,545.4521650999999,545.4919891999999,545.4952540999999,545.4952540999999,545.4952540999999,547.0360669,Objects\159b.jpg,pre,s,1.5328441999999995,None,,,,,,,,00049,001,2026-01-18_15h51.26.110,MST_test,2024.2.0,59.99991600011918,2026-01-18 15h51.44.425755 +0530,
131,0,132,o,1.1933833000000504,None,132,0,131,547.0509541999999,,,,,,,,,,,,,,,,,,,,,,,,,,,,,,,,,,,,,,,,,,,,,,,,,,547.036297,547.0509541999999,547.5698160999999,547.5354001,547.5673582000001,547.5698160999999,547.5698160999999,547.5698160999999,548.7699460999999,Objects\334a.jpg,mid,o,1.1933833000000504,None,,,,,,,,00049,001,2026-01-18_15h51.26.110,MST_test,2024.2.0,59.99991600011918,2026-01-18 15h51.44.425755 +0530,
132,0,133,n,1.0854572000000644,None,133,0,132,548.7842440999999,,,,,,,,,,,,,,,,,,,,,,,,,,,,,,,,,,,,,,,,,,,,,,,,,,548.7702937999999,548.7842440999999,549.334054,549.2686814999998,549.3314741,549.334054,549.334054,549.334054,550.4364158,Foils\082a.jpg,none,n,1.0854572000000644,None,,,,,,,,00049,001,2026-01-18_15h51.26.110,MST_test,2024.2.0,59.99991600011918,2026-01-18 15h51.44.425755 +0530,
133,0,134,o,1.0160777000000962,None,134,0,133,550.4508863,,,,,,,,,,,,,,,,,,,,,,,,,,,,,,,,,,,,,,,,,,,,,,,,,,550.4367229000001,550.4508863,550.9645884,550.9348377,550.9620180999999,550.9645884,550.9645884,550.9645884,551.9867688999999,Objects\264b.jpg,pre,o,1.0160777000000962,None,,,,,,,,00049,001,2026-01-18_15h51.26.110,MST_test,2024.2.0,59.99991600011918,2026-01-18 15h51.44.425755 +0530,
134,0,135,s,2.1495846000000256,None,135,0,134,552.0010868,,,,,,,,,,,,,,,,,,,,,,,,,,,,,,,,,,,,,,,,,,,,,,,,,,551.9877995999999,552.0010868,552.5343508,552.4858141999999,552.5309504999999,552.5343508,552.5343508,552.5343508,554.6863694,Objects\302b.jpg,post,s,2.1495846000000256,None,,,,,,,,00049,001,2026-01-18_15h51.26.110,MST_test,2024.2.0,59.99991600011918,2026-01-18 15h51.44.425755 +0530,
135,0,136,n,2.149714299999914,None,136,0,135,554.7009638000001,,,,,,,,,,,,,,,,,,,,,,,,,,,,,,,,,,,,,,,,,,,,,,,,,,554.6867994999999,554.7009638000001,555.221637,555.1853092999999,555.2190161,555.221637,555.221637,555.221637,557.3864253,Objects\064b.jpg,pre,n,2.149714299999914,None,,,,,,,,00049,001,2026-01-18_15h51.26.110,MST_test,2024.2.0,59.99991600011918,2026-01-18 15h51.44.425755 +0530,
136,0,137,n,1.549376299999949,None,137,0,136,557.4009835,,,,,,,,,,,,,,,,,,,,,,,,,,,,,,,,,,,,,,,,,,,,,,,,,,557.3868788999999,557.4009835,557.9423644,557.8863038999999,557.9394423,557.9423644,557.9423644,557.9423644,559.5032279999999,Foils\105a.jpg,none,n,1.549376299999949,None,,,,,,,,00049,001,2026-01-18_15h51.26.110,MST_test,2024.2.0,59.99991600011918,2026-01-18 15h51.44.425755 +0530,
137,0,138,n,1.6950180999999702,None,138,0,137,559.5176419999999,,,,,,,,,,,,,,,,,,,,,,,,,,,,,,,,,,,,,,,,,,,,,,,,,,559.5035148000001,559.5176419999999,560.1013783,560.0021470999999,560.0985892,560.1013783,560.1013783,560.1013783,561.8031149,Objects\290b.jpg,post,n,1.6950180999999702,None,,,,,,,,00049,001,2026-01-18_15h51.26.110,MST_test,2024.2.0,59.99991600011918,2026-01-18 15h51.44.425755 +0530,
138,0,139,s,1.2935681999999815,None,139,0,138,561.8175668999999,,,,,,,,,,,,,,,,,,,,,,,,,,,,,,,,,,,,,,,,,,,,,,,,,,561.8033829,561.8175668999999,562.3743596999999,562.3019246999999,562.3712763,562.3743596999999,562.3743596999999,562.3743596999999,563.6700318,Objects\338a.jpg,mid,s,1.2935681999999815,None,,,,,,,,00049,001,2026-01-18_15h51.26.110,MST_test,2024.2.0,59.99991600011918,2026-01-18 15h51.44.425755 +0530,
139,0,140,n,2.0266721000000416,None,140,0,139,563.684245,,,,,,,,,,,,,,,,,,,,,,,,,,,,,,,,,,,,,,,,,,,,,,,,,,563.6702879999999,563.684245,564.2249409,564.1686252000001,564.222046,564.2249409,564.2249409,564.2249409,566.2534606999999,Foils\020b.jpg,none,n,2.0266721000000416,None,,,,,,,,00049,001,2026-01-18_15h51.26.110,MST_test,2024.2.0,59.99991600011918,2026-01-18 15h51.44.425755 +0530,
140,0,141,s,3.126497800000152,None,141,0,140,566.2676217,,,,,,,,,,,,,,,,,,,,,,,,,,,,,,,,,,,,,,,,,,,,,,,,,,566.2538774999999,566.2676217,566.7969471999999,566.7520590999999,566.7939352,566.7969471999999,566.7969471999999,566.7969471999999,569.9365784999999,Objects\257b.jpg,mid,s,3.126497800000152,None,,,,,,,,00049,001,2026-01-18_15h51.26.110,MST_test,2024.2.0,59.99991600011918,2026-01-18 15h51.44.425755 +0530,
141,0,142,s,1.514779800000042,None,142,0,141,569.9509872,,,,,,,,,,,,,,,,,,,,,,,,,,,,,,,,,,,,,,,,,,,,,,,,,,569.9367043999999,569.9509872,570.472693,570.4351404,570.4697115999999,570.472693,570.472693,570.472693,572.0028105999999,Objects\126b.jpg,mid,s,1.514779800000042,None,,,,,,,,00049,001,2026-01-18_15h51.26.110,MST_test,2024.2.0,59.99991600011918,2026-01-18 15h51.44.425755 +0530,
142,0,143,n,1.353726399999914,None,143,0,142,572.0176335,,,,,,,,,,,,,,,,,,,,,,,,,,,,,,,,,,,,,,,,,,,,,,,,,,572.0031227999999,572.0176335,572.5546618,572.5020585999999,572.5516431,572.5546618,572.5546618,572.5546618,573.919949,Objects\255a.jpg,pre,n,1.353726399999914,None,,,,,,,,00049,001,2026-01-18_15h51.26.110,MST_test,2024.2.0,59.99991600011918,2026-01-18 15h51.44.425755 +0530,
143,0,144,n,2.75735920000011,None,144,0,143,573.9345835999999,,,,,,,,,,,,,,,,,,,,,,,,,,,,,,,,,,,,,,,,,,,,,,,,,,573.9202482,573.9345835999999,574.4616149,574.4189316999999,574.458107,574.4616149,574.4616149,574.4616149,577.2358135999999,Foils\090a.jpg,none,n,2.75735920000011,None,,,,,,,,00049,001,2026-01-18_15h51.26.110,MST_test,2024.2.0,59.99991600011918,2026-01-18 15h51.44.425755 +0530,
144,0,145,s,1.305482100000063,None,145,0,144,577.2511426,,,,,,,,,,,,,,,,,,,,,,,,,,,,,,,,,,,,,,,,,,,,,,,,,,577.2362127999999,577.2511426,577.8186362,577.7357086000001,577.8148285999999,577.8186362,577.8186362,577.8186362,579.1360487000001,Objects\374a.jpg,post,s,1.305482100000063,None,,,,,,,,00049,001,2026-01-18_15h51.26.110,MST_test,2024.2.0,59.99991600011918,2026-01-18 15h51.44.425755 +0530,
145,0,146,n,1.3036463999999341,None,146,0,145,579.1509803,,,,,,,,,,,,,,,,,,,,,,,,,,,,,,,,,,,,,,,,,,,,,,,,,,579.1362869999999,579.1509803,579.6839097999999,579.6354576999998,579.6799665,579.6839097999999,579.6839097999999,579.6839097999999,581.0017228999999,Objects\379b.jpg,mid,n,1.3036463999999341,None,,,,,,,,00049,001,2026-01-18_15h51.26.110,MST_test,2024.2.0,59.99991600011918,2026-01-18 15h51.44.425755 +0530,
146,0,147,n,1.116973299999927,None,147,0,146,581.0183868999999,,,,,,,,,,,,,,,,,,,,,,,,,,,,,,,,,,,,,,,,,,,,,,,,,,581.0018893999999,581.0183868999999,581.5346776,581.5019928999999,581.5324064999999,581.5346776,581.5346776,581.5346776,582.6536864999999,Foils\073a.jpg,none,n,1.116973299999927,None,,,,,,,,00049,001,2026-01-18_15h51.26.110,MST_test,2024.2.0,59.99991600011918,2026-01-18 15h51.44.425755 +0530,
147,0,148,o,2.069645600000058,None,148,0,147,582.6676824,,,,,,,,,,,,,,,,,,,,,,,,,,,,,,,,,,,,,,,,,,,,,,,,,,582.6539743,582.6676824,583.2143840999998,583.1520873999999,583.2117689,583.2143840999998,583.2143840999998,583.2143840999998,585.2862377999999,Objects\305a.jpg,mid,o,2.069645600000058,None,,,,,,,,00049,001,2026-01-18_15h51.26.110,MST_test,2024.2.0,59.99991600011918,2026-01-18 15h51.44.425755 +0530,
148,0,149,s,1.1230264000000716,None,149,0,148,585.3011272999998,,,,,,,,,,,,,,,,,,,,,,,,,,,,,,,,,,,,,,,,,,,,,,,,,,585.2865016,585.3011272999998,585.8412958999999,585.7862104,585.8382928,585.8412958999999,585.8412958999999,585.8412958999999,586.9696955999999,Objects\202b.jpg,pre,s,1.1230264000000716,None,,,,,,,,00049,001,2026-01-18_15h51.26.110,MST_test,2024.2.0,59.99991600011918,2026-01-18 15h51.44.425755 +0530,
149,0,150,o,1.5564065000000937,None,150,0,149,586.9846076999999,,,,,,,,,,,,,,,,,,,,,,,,,,,,,,,,,,,,,,,,,,,,,,,,,,586.9700291999999,586.9846076999999,587.5198182,587.4688806,587.5169227,587.5198182,587.5198182,587.5198182,589.086385,Objects\265a.jpg,post,o,1.5564065000000937,None,,,,,,,,00049,001,2026-01-18_15h51.26.110,MST_test,2024.2.0,59.99991600011918,2026-01-18 15h51.44.425755 +0530,
,,,,,,,,,,,,,,,,,,,,,,,,,,,,,,,,,,,,,,,,,,,,,,,,,,,,,,,,,,,,,,,,,,,,,,,,,589.0865490999998,589.1008157,589.1008157,591.2030561,space,2.0944798000000446,None,00049,001,2026-01-18_15h51.26.110,MST_test,2024.2.0,59.99991600011918,2026-01-18 15h51.44.425755 +0530,
