Sl_no,image_path,thisN,thisTrialN,thisRepN,key_resp_5.keys,key_resp_7.keys,key_resp_7.rt,key_resp_7.duration,key_resp_5.rt,key_resp_5.duration,key_resp_9.keys,key_resp_8.keys,key_resp_8.rt,key_resp_8.duration,key_resp_9.rt,key_resp_9.duration,practice.thisRepN,practice.thisTrialN,practice.thisN,trials.thisRepN,trials.thisTrialN,trials.thisN,thisRow.t,notes,welcome_page.started,text.started,key_resp.started,welcome_page.stopped,key_resp.keys,key_resp.rt,key_resp.duration,instructions.started,ins.started,key_resp_2.started,instructions.stopped,key_resp_2.keys,key_resp_2.rt,key_resp_2.duration,objects_only_instruction.started,text_3.started,key_resp_3.started,objects_only_instruction.stopped,key_resp_3.keys,key_resp_3.rt,key_resp_3.duration,ISI.started,text_4.started,text_4.stopped,ISI.stopped,practice_block.started,image.started,key_resp_5.started,text_5.started,image.stopped,key_resp_5.stopped,text_5.stopped,practice_block.stopped,practice.key_resp_5.keys,indoor_outdoor.started,text_7.started,key_resp_7.started,indoor_outdoor.stopped,practice.key_resp_7.keys,practice.key_resp_7.rt,practice.key_resp_7.duration,practice.key_resp_5.rt,practice.key_resp_5.duration,practice_to_main.started,text_2.started,key_resp_4.started,practice_to_main.stopped,key_resp_4.keys,key_resp_4.rt,key_resp_4.duration,objects.started,image_2.started,text_9.started,key_resp_9.started,objects.stopped,category,trials.key_resp_9.keys,encoding_task.started,text_8.started,key_resp_8.started,encoding_task.stopped,trials.key_resp_8.keys,trials.key_resp_8.rt,trials.key_resp_8.duration,image_2.stopped,text_9.stopped,key_resp_9.stopped,trials.key_resp_9.rt,trials.key_resp_9.duration,end_experiment.started,text_6.started,key_resp_6.started,end_experiment.stopped,key_resp_6.keys,key_resp_6.rt,key_resp_6.duration,list_of_stimuli,encoding_task_accuracy,participant,session,date,expName,psychopyVersion,frameRate,expStart,
,,,,,,,,,,,,,,,,,,,,,,,,,0.0012549999519251287,0.0030731000006198883,0.0030731000006198883,285.7821369000012,space,285.7684217999922,None,,,,,,,,,,,,,,,,,,,,,,,,,,,,,,,,,,,,,,,,,,,,,,,,,,,,,,,,,,,,,,,,,,,,,,,,00046,001,2026-01-18_11h15.02.395,MST_task,2024.2.0,60.10164390449534,2026-01-18 11h15.17.191840 +0530,
,,,,,,,,,,,,,,,,,,,,,,,,,,,,,,,,285.7821769999573,285.7966870999662,285.7966870999662,322.7640185999917,space,36.958263500011526,None,,,,,,,,,,,,,,,,,,,,,,,,,,,,,,,,,,,,,,,,,,,,,,,,,,,,,,,,,,,,,,,,,00046,001,2026-01-18_11h15.02.395,MST_task,2024.2.0,60.10164390449534,2026-01-18 11h15.17.191840 +0530,
,,,,,,,,,,,,,,,,,,,,,,,,,,,,,,,,,,,,,,,322.76404969999567,322.7799281999469,322.7799281999469,370.96388819999993,space,48.17490139999427,None,,,,,,,,,,,,,,,,,,,,,,,,,,,,,,,,,,,,,,,,,,,,,,,,,,,,,,,,,,00046,001,2026-01-18_11h15.02.395,MST_task,2024.2.0,60.10164390449534,2026-01-18 11h15.17.191840 +0530,
7,practice_images/166a.jpg,0,0,1,None,f,7.243867699988186,None,,,,,,,,,1,0,0,,,,370.97993309999583,,,,,,,,,,,,,,,,,,,,,,,370.96795609995024,370.97993309999583,371.4808617999661,371.46368869999424,371.47010379994754,371.4808617999661,371.4808617999661,371.4808617999661,374.4799044999527,374.4799044999527,374.4799044999527,374.46379399998114,None,374.4653787999996,374.4799044999527,374.4799044999527,381.7303623999469,f,7.243867699988186,None,,,,,,,,,,,,,,,,,,,,,,,,,,,,,,,,,,,,,,00046,001,2026-01-18_11h15.02.395,MST_task,2024.2.0,60.10164390449534,2026-01-18 11h15.17.191840 +0530,
1,practice_images/013a.jpg,1,1,1,None,j,1.8847122000297531,None,,,,,,,,,1,1,1,,,,381.7467746999464,,,,,,,,,,,,,,,,,,,,,,,381.73045829997864,381.7467746999464,382.247009099985,382.2302920999937,382.23218209994957,382.247009099985,382.247009099985,382.247009099985,385.2467356999987,385.2467356999987,385.2467356999987,385.2303706999519,None,385.2304037999711,385.2467356999987,385.2467356999987,387.14715479995357,j,1.8847122000297531,None,,,,,,,,,,,,,,,,,,,,,,,,,,,,,,,,,,,,,,00046,001,2026-01-18_11h15.02.395,MST_task,2024.2.0,60.10164390449534,2026-01-18 11h15.17.191840 +0530,
2,practice_images/031a.jpg,2,2,1,None,f,0.516296699992381,None,,,,,,,,,1,2,2,,,,387.1634492999874,,,,,,,,,,,,,,,,,,,,,,,387.1472398999613,387.1634492999874,387.66358789999504,387.6469660999719,387.6487368999515,387.66358789999504,387.66358789999504,387.66358789999504,390.66340649995254,390.66340649995254,390.66340649995254,390.6470907999901,None,390.6471221999964,390.66340649995254,390.66340649995254,391.1805865999777,f,0.516296699992381,None,,,,,,,,,,,,,,,,,,,,,,,,,,,,,,,,,,,,,,00046,001,2026-01-18_11h15.02.395,MST_task,2024.2.0,60.10164390449534,2026-01-18 11h15.17.191840 +0530,
6,practice_images/158a.jpg,3,3,1,j,None,,,2.4904712000279687,0.14418790000490844,,,,,,,1,3,3,,,,391.19672319997335,,,,,,,,,,,,,,,,,,,,,,,391.1806816999451,391.19672319997335,391.69694489997346,391.68026119994465,391.68181280000135,391.69694489997346,391.69694489997346,391.69694489997346,394.6967312999768,394.6967312999768,394.6967312999768,394.68024419998983,j,394.68027979996987,,,394.6802918999456,None,,,2.4904712000279687,0.14418790000490844,,,,,,,,,,,,,,,,,,,,,,,,,,,,,,,,,,,,00046,001,2026-01-18_11h15.02.395,MST_task,2024.2.0,60.10164390449534,2026-01-18 11h15.17.191840 +0530,
4,practice_images/002b.jpg,4,4,1,None,f,1.134723800001666,None,,,,,,,,,1,4,4,,,,394.6967312999768,,,,,,,,,,,,,,,,,,,,,,,394.6803551999619,394.6967312999768,395.19685849995585,395.1801909999922,395.18181539996294,395.19685849995585,395.19685849995585,395.19685849995585,398.19670949998545,398.19670949998545,398.19670949998545,398.18036009999923,None,398.1803930999595,398.19670949998545,398.19670949998545,399.347326099989,f,1.134723800001666,None,,,,,,,,,,,,,,,,,,,,,,,,,,,,,,,,,,,,,,00046,001,2026-01-18_11h15.02.395,MST_task,2024.2.0,60.10164390449534,2026-01-18 11h15.17.191840 +0530,
5,practice_images/139a.jpg,5,5,1,None,f,2.1406602999777533,None,,,,,,,,,1,5,5,,,,399.3633686999674,,,,,,,,,,,,,,,,,,,,,,,399.34741239994764,399.3633686999674,399.86356799997156,399.84703619999345,399.8516325999517,399.86356799997156,399.86356799997156,399.86356799997156,402.86366609996185,402.86366609996185,402.86366609996185,402.8476165999891,None,402.8501748999697,402.86366609996185,402.86366609996185,405.0137949999771,f,2.1406602999777533,None,,,,,,,,,,,,,,,,,,,,,,,,,,,,,,,,,,,,,,00046,001,2026-01-18_11h15.02.395,MST_task,2024.2.0,60.10164390449534,2026-01-18 11h15.17.191840 +0530,
3,practice_images/037a.jpg,6,6,1,None,f,2.91332470002817,None,,,,,,,,,1,6,6,,,,405.03001209994545,,,,,,,,,,,,,,,,,,,,,,,405.0138780999696,405.03001209994545,405.5302690999815,405.5137401999673,405.51528880000114,405.5302690999815,405.5302690999815,405.5302690999815,408.5299201999442,408.5299201999442,408.5299201999442,408.51382779999403,None,408.5138603999512,408.5299201999442,408.5299201999442,411.447267999989,f,2.91332470002817,None,,,,,,,,,,,,,,,,,,,,,,,,,,,,,,,,,,,,,,00046,001,2026-01-18_11h15.02.395,MST_task,2024.2.0,60.10164390449534,2026-01-18 11h15.17.191840 +0530,
9,practice_images/180a.jpg,7,7,1,None,j,1.991587599972263,None,,,,,,,,,1,7,7,,,,411.46335509995697,,,,,,,,,,,,,,,,,,,,,,,411.447351299983,411.46335509995697,411.9635986999492,411.94701859995257,411.94867299997713,411.9635986999492,411.9635986999492,411.9635986999492,414.96343869995326,414.96343869995326,414.96343869995326,414.94711129995994,None,414.947145299986,414.96343869995326,414.96343869995326,416.96400609996635,j,1.991587599972263,None,,,,,,,,,,,,,,,,,,,,,,,,,,,,,,,,,,,,,,00046,001,2026-01-18_11h15.02.395,MST_task,2024.2.0,60.10164390449534,2026-01-18 11h15.17.191840 +0530,
8,practice_images/178a.jpg,8,8,1,None,f,0.6993270000093617,None,,,,,,,,,1,8,8,,,,416.9800919999834,,,,,,,,,,,,,,,,,,,,,,,416.96409169997787,416.9800919999834,417.48024019994773,417.4637912999606,417.465434099955,417.48024019994773,417.48024019994773,417.48024019994773,420.4801977999741,420.4801977999741,420.4801977999741,420.4639332999941,None,420.46396549994824,420.4801977999741,420.4801977999741,421.180624599976,f,0.6993270000093617,None,,,,,,,,,,,,,,,,,,,,,,,,,,,,,,,,,,,,,,00046,001,2026-01-18_11h15.02.395,MST_task,2024.2.0,60.10164390449534,2026-01-18 11h15.17.191840 +0530,
10,practice_images/182a.jpg,9,9,1,None,f,0.6824121999670751,None,,,,,,,,,1,9,9,,,,421.19679299998097,,,,,,,,,,,,,,,,,,,,,,,421.180705799954,421.19679299998097,421.697026299953,421.6802980999928,421.68187279999256,421.697026299953,421.697026299953,421.697026299953,424.69685509998817,424.69685509998817,424.69685509998817,424.6805156999617,None,424.6805497999885,424.69685509998817,424.69685509998817,425.38069179997547,f,0.6824121999670751,None,,,,,,,,,,,,,,,,,,,,,,,,,,,,,,,,,,,,,,00046,001,2026-01-18_11h15.02.395,MST_task,2024.2.0,60.10164390449534,2026-01-18 11h15.17.191840 +0530,
,,,,,,,,,,,,,,,,,,,,,,,,,,,,,,,,,,,,,,,,,,,,,,,,,,,,,,,,,,,,,,,,,,,,425.38076089997776,425.39675590000115,425.39675590000115,471.5972839999595,space,46.190827299957164,None,,,,,,,,,,,,,,,,,,,,,,,,,,,,,00046,001,2026-01-18_11h15.02.395,MST_task,2024.2.0,60.10164390449534,2026-01-18 11h15.17.191840 +0530,
,Objects\331a.jpg,0,0,1,,,,,,,None,f,1.9047703000251204,None,,,,,,1,0,0,471.6135124999564,,,,,,,,,,,,,,,,,,,,,,,471.59804679994704,471.6135124999564,472.11534319998464,472.0971583999926,,,,,,,,,,,,,,,,,,,,,,,,,,472.1124333999469,472.11534319998464,472.11534319998464,472.11534319998464,475.11385889997473,indoor,None,475.11545859999023,475.1301923999563,475.1301923999563,477.0474095999962,f,1.9047703000251204,None,,,,,,,,,,,,,,,00046,001,2026-01-18_11h15.02.395,MST_task,2024.2.0,60.10164390449534,2026-01-18 11h15.17.191840 +0530,
,Objects\048a.jpg,1,0,2,,,,,,,j,None,,,1.7121193999773823,0.19111519999569282,,,,2,0,1,477.0635888999677,,,,,,,,,,,,,,,,,,,,,,,477.0475025999476,477.0635888999677,477.56380979996175,477.546970699972,,,,,,,,,,,,,,,,,,,,,,,,,,477.5507876999909,477.56380979996175,477.56380979996175,477.56380979996175,480.54767979995813,indoor,j,480.5477279999759,,,480.5477409999585,None,,,480.5634192999569,480.5634192999569,480.5634192999569,1.7121193999773823,0.19111519999569282,,,,,,,,,,00046,001,2026-01-18_11h15.02.395,MST_task,2024.2.0,60.10164390449534,2026-01-18 11h15.17.191840 +0530,
,Objects\134a.jpg,2,0,3,,,,,,,f,None,,,2.3482357000466436,0.15199280000524595,,,,3,0,2,480.5634192999569,,,,,,,,,,,,,,,,,,,,,,,480.54781139997067,480.5634192999569,481.06359399994835,481.0469463999616,,,,,,,,,,,,,,,,,,,,,,,,,,481.0593750999542,481.06359399994835,481.06359399994835,481.06359399994835,484.04737939999904,indoor,f,484.047422499978,,,484.04743499995675,None,,,484.0634333999478,484.0634333999478,484.0634333999478,2.3482357000466436,0.15199280000524595,,,,,,,,,,00046,001,2026-01-18_11h15.02.395,MST_task,2024.2.0,60.10164390449534,2026-01-18 11h15.17.191840 +0530,
,Objects\275a.jpg,3,0,4,,,,,,,None,f,0.9361828999826685,None,,,,,,4,0,3,484.0634333999478,,,,,,,,,,,,,,,,,,,,,,,484.0474992999807,484.0634333999478,484.5639702999615,484.5472175999894,,,,,,,,,,,,,,,,,,,,,,,,,,484.550634299987,484.5639702999615,484.5639702999615,484.5639702999615,487.5472632999881,indoor,None,487.5473051999579,487.56345709995367,487.56345709995367,488.5140673999558,f,0.9361828999826685,None,487.56345709995367,487.56345709995367,487.56345709995367,,,,,,,,,,,,00046,001,2026-01-18_11h15.02.395,MST_task,2024.2.0,60.10164390449534,2026-01-18 11h15.17.191840 +0530,
,Objects\097a.jpg,4,0,5,,,,,,,j,None,,,2.0929842999903485,0.23999300005380064,,,,5,0,4,488.52996369998436,,,,,,,,,,,,,,,,,,,,,,,488.5141507999506,488.52996369998436,489.0304326999467,489.0136925999541,,,,,,,,,,,,,,,,,,,,,,,,,,489.01699769997504,489.0304326999467,489.0304326999467,489.0304326999467,492.01387919997796,indoor,j,492.0139237999683,,,492.0139362999471,None,,,492.03008589998353,492.03008589998353,492.03008589998353,2.0929842999903485,0.23999300005380064,,,,,,,,,,00046,001,2026-01-18_11h15.02.395,MST_task,2024.2.0,60.10164390449534,2026-01-18 11h15.17.191840 +0530,
,Objects\060a.jpg,5,0,6,,,,,,,None,j,0.6172638999996707,None,,,,,,6,0,5,492.03008589998353,,,,,,,,,,,,,,,,,,,,,,,492.0140014999779,492.03008589998353,492.5301754999673,492.51373279996915,,,,,,,,,,,,,,,,,,,,,,,,,,492.524901399971,492.5301754999673,492.5301754999673,492.5301754999673,495.5139303999604,indoor,None,495.51396739995107,495.5300412999932,495.5300412999932,496.16386369999964,j,0.6172638999996707,None,495.5300412999932,495.5300412999932,495.5300412999932,,,,,,,,,,,,00046,001,2026-01-18_11h15.02.395,MST_task,2024.2.0,60.10164390449534,2026-01-18 11h15.17.191840 +0530,
,Objects\269a.jpg,6,0,7,,,,,,,None,f,2.7878418000182137,None,,,,,,7,0,6,496.18003529997077,,,,,,,,,,,,,,,,,,,,,,,496.16394849994686,496.18003529997077,496.68045449996134,496.6637031999999,,,,,,,,,,,,,,,,,,,,,,,,,,496.66653499996755,496.68045449996134,496.68045449996134,496.68045449996134,499.66389499994693,indoor,None,499.6639328999445,499.68001639994327,499.68001639994327,502.4803694000002,f,2.7878418000182137,None,499.68001639994327,499.68001639994327,499.68001639994327,,,,,,,,,,,,00046,001,2026-01-18_11h15.02.395,MST_task,2024.2.0,60.10164390449534,2026-01-18 11h15.17.191840 +0530,
,Objects\106a.jpg,7,0,8,,,,,,,None,f,2.9507242999970913,None,,,,,,8,0,7,502.4967816999997,,,,,,,,,,,,,,,,,,,,,,,502.480454799952,502.4967816999997,502.99690499994904,502.9804865999613,,,,,,,,,,,,,,,,,,,,,,,,,,502.9868119999883,502.99690499994904,502.99690499994904,502.99690499994904,505.9804404999595,shoe,None,505.98258829995757,505.99679159995867,505.99679159995867,508.9639132999582,f,2.9507242999970913,None,505.99679159995867,505.99679159995867,505.99679159995867,,,,,,,,,,,,00046,001,2026-01-18_11h15.02.395,MST_task,2024.2.0,60.10164390449534,2026-01-18 11h15.17.191840 +0530,
,Objects\211a.jpg,8,0,9,,,,,,,None,f,1.8675574999651872,None,,,,,,9,0,8,508.9799923999817,,,,,,,,,,,,,,,,,,,,,,,508.9640266999486,508.9799923999817,509.480419599975,509.4638501999434,,,,,,,,,,,,,,,,,,,,,,,,,,509.4672373999492,509.480419599975,509.480419599975,509.480419599975,512.4639184999978,shoe,None,512.4639563999954,512.4800523999729,512.4800523999729,514.3638704999466,f,1.8675574999651872,None,512.4800523999729,512.4800523999729,512.4800523999729,,,,,,,,,,,,00046,001,2026-01-18_11h15.02.395,MST_task,2024.2.0,60.10164390449534,2026-01-18 11h15.17.191840 +0530,
,Objects\309a.jpg,9,0,10,,,,,,,None,f,0.8914246000349522,None,,,,,,10,0,9,514.3799565999652,,,,,,,,,,,,,,,,,,,,,,,514.3639659999753,514.3799565999652,514.8804232999682,514.8636980999727,,,,,,,,,,,,,,,,,,,,,,,,,,514.8665492999717,514.8804232999682,514.8804232999682,514.8804232999682,517.863942099968,shoe,None,517.8639802999678,517.8800208999892,517.8800208999892,518.7804483999498,f,0.8914246000349522,None,517.8800208999892,517.8800208999892,517.8800208999892,,,,,,,,,,,,00046,001,2026-01-18_11h15.02.395,MST_task,2024.2.0,60.10164390449534,2026-01-18 11h15.17.191840 +0530,
,Objects\329a.jpg,10,0,11,,,,,,,None,f,0.17153099999995902,None,,,,,,11,0,10,518.7967011999572,,,,,,,,,,,,,,,,,,,,,,,518.7805346999667,518.7967011999572,519.2971300999634,519.2803099999437,,,,,,,,,,,,,,,,,,,,,,,,,,519.2910781999817,519.2971300999634,519.2971300999634,519.2971300999634,522.2806159999454,shoe,None,522.2806597999879,522.2967245999607,522.2967245999607,522.4805534999468,f,0.17153099999995902,None,522.2967245999607,522.2967245999607,522.2967245999607,,,,,,,,,,,,00046,001,2026-01-18_11h15.02.395,MST_task,2024.2.0,60.10164390449534,2026-01-18 11h15.17.191840 +0530,
,Objects\229a.jpg,11,0,12,,,,,,,f,None,,,1.9496346000232734,0.18519009998999536,,,,12,0,11,522.4967717999825,,,,,,,,,,,,,,,,,,,,,,,522.4806743999943,522.4967717999825,522.9973270999617,522.9806579999859,,,,,,,,,,,,,,,,,,,,,,,,,,522.9845170999761,522.9973270999617,522.9973270999617,522.9973270999617,525.9804790999624,shoe,f,525.9805221999995,,,525.9805347999791,None,,,525.9967854999704,525.9967854999704,525.9967854999704,1.9496346000232734,0.18519009998999536,,,,,,,,,,00046,001,2026-01-18_11h15.02.395,MST_task,2024.2.0,60.10164390449534,2026-01-18 11h15.17.191840 +0530,
,Objects\195a.jpg,12,0,13,,,,,,,None,f,0.6911222999915481,None,,,,,,13,0,12,525.9967854999704,,,,,,,,,,,,,,,,,,,,,,,525.9805985999992,525.9967854999704,526.4970975999604,526.4802170999465,,,,,,,,,,,,,,,,,,,,,,,,,,526.4828546999488,526.4970975999604,526.4970975999604,526.4970975999604,529.4806220999453,shoe,None,529.4806625999627,529.4967866999796,529.4967866999796,530.1972137999837,f,0.6911222999915481,None,529.4967866999796,529.4967866999796,529.4967866999796,,,,,,,,,,,,00046,001,2026-01-18_11h15.02.395,MST_task,2024.2.0,60.10164390449534,2026-01-18 11h15.17.191840 +0530,
,Objects\352a.jpg,13,0,14,,,,,,,f,None,,,1.7372460999758914,0.1919874000013806,,,,14,0,13,530.2134339999757,,,,,,,,,,,,,,,,,,,,,,,530.197299499996,530.2134339999757,530.7137897999492,530.6970170999994,,,,,,,,,,,,,,,,,,,,,,,,,,530.700151099998,530.7137897999492,530.7137897999492,530.7137897999492,533.69731399999,shoe,f,533.6973940999596,,,533.6974076999468,None,,,533.7134222999448,533.7134222999448,533.7134222999448,1.7372460999758914,0.1919874000013806,,,,,,,,,,00046,001,2026-01-18_11h15.02.395,MST_task,2024.2.0,60.10164390449534,2026-01-18 11h15.17.191840 +0530,
,Objects\142a.jpg,14,0,15,,,,,,,f,None,,,2.485813000006601,0.15203300002031028,,,,15,0,14,533.7134222999448,,,,,,,,,,,,,,,,,,,,,,,533.6974742999882,533.7134222999448,534.2138486999902,534.1970405999455,,,,,,,,,,,,,,,,,,,,,,,,,,534.2023176999646,534.2138486999902,534.2138486999902,534.2138486999902,537.1973805999733,indoor,f,537.19905929995,,,537.1990771999699,None,,,537.2135662999935,537.2135662999935,537.2135662999935,2.485813000006601,0.15203300002031028,,,,,,,,,,00046,001,2026-01-18_11h15.02.395,MST_task,2024.2.0,60.10164390449534,2026-01-18 11h15.17.191840 +0530,
,Objects\170a.jpg,15,0,16,,,,,,,None,f,0.20135729998582974,None,,,,,,16,0,15,537.2135662999935,,,,,,,,,,,,,,,,,,,,,,,537.1991537999711,537.2135662999935,537.7138013999793,537.6972535999957,,,,,,,,,,,,,,,,,,,,,,,,,,537.7071895999834,537.7138013999793,537.7138013999793,537.7138013999793,540.6975079999538,indoor,None,540.6975492999773,540.7134366999962,540.7134366999962,540.9307922999724,f,0.20135729998582974,None,540.7134366999962,540.7134366999962,540.7134366999962,,,,,,,,,,,,00046,001,2026-01-18_11h15.02.395,MST_task,2024.2.0,60.10164390449534,2026-01-18 11h15.17.191840 +0530,
,Objects\003a.jpg,16,0,17,,,,,,,j,None,,,2.0442137999925762,0.19200360000832006,,,,17,0,16,540.9469285999658,,,,,,,,,,,,,,,,,,,,,,,540.9308811999508,540.9469285999658,541.4470323999994,541.4303148999461,,,,,,,,,,,,,,,,,,,,,,,,,,541.4330789999804,541.4470323999994,541.4470323999994,541.4470323999994,544.4308579999488,indoor,j,544.4309043999529,,,544.4309168999898,None,,,544.4469137999695,544.4469137999695,544.4469137999695,2.0442137999925762,0.19200360000832006,,,,,,,,,,00046,001,2026-01-18_11h15.02.395,MST_task,2024.2.0,60.10164390449534,2026-01-18 11h15.17.191840 +0530,
,Objects\028a.jpg,17,0,18,,,,,,,f,None,,,1.6321189000154845,0.1999906999990344,,,,18,0,17,544.4469137999695,,,,,,,,,,,,,,,,,,,,,,,544.4309840999776,544.4469137999695,544.9471578999655,544.9305652999901,,,,,,,,,,,,,,,,,,,,,,,,,,544.9332001999719,544.9471578999655,544.9471578999655,544.9471578999655,547.9307661999483,indoor,f,547.9308128999546,,,547.9308250999893,None,,,547.9468833999708,547.9468833999708,547.9468833999708,1.6321189000154845,0.1999906999990344,,,,,,,,,,00046,001,2026-01-18_11h15.02.395,MST_task,2024.2.0,60.10164390449534,2026-01-18 11h15.17.191840 +0530,
,Objects\305a.jpg,18,0,19,,,,,,,j,None,,,2.356250800017733,0.2393813999951817,,,,19,0,18,547.9468833999708,,,,,,,,,,,,,,,,,,,,,,,547.9308918999741,547.9468833999708,548.4471403999487,548.4307205999503,,,,,,,,,,,,,,,,,,,,,,,,,,548.4414063000004,548.4471403999487,548.4471403999487,548.4471403999487,551.4309371999698,indoor,j,551.4309898999636,,,551.4310026999447,None,,,551.446838999982,551.446838999982,551.446838999982,2.356250800017733,0.2393813999951817,,,,,,,,,,00046,001,2026-01-18_11h15.02.395,MST_task,2024.2.0,60.10164390449534,2026-01-18 11h15.17.191840 +0530,
,Objects\217a.jpg,19,0,20,,,,,,,f,None,,,2.3368033000151627,0.18294889997923747,,,,20,0,19,551.446838999982,,,,,,,,,,,,,,,,,,,,,,,551.4310687999823,551.446838999982,551.9474462999497,551.930438899959,,,,,,,,,,,,,,,,,,,,,,,,,,551.9342884999933,551.9474462999497,551.9474462999497,551.9474462999497,554.9308443999616,indoor,f,554.9311174999457,,,554.9311462999904,None,,,554.9467913999688,554.9467913999688,554.9467913999688,2.3368033000151627,0.18294889997923747,,,,,,,,,,00046,001,2026-01-18_11h15.02.395,MST_task,2024.2.0,60.10164390449534,2026-01-18 11h15.17.191840 +0530,
,Objects\337a.jpg,20,0,21,,,,,,,f,None,,,2.108806300035212,0.20752719999291003,,,,21,0,20,554.9467913999688,,,,,,,,,,,,,,,,,,,,,,,554.931225999957,554.9467913999688,555.447347499954,555.4304656999884,,,,,,,,,,,,,,,,,,,,,,,,,,555.440552999964,555.447347499954,555.447347499954,555.447347499954,558.4306431000005,indoor,f,558.4306848999695,,,558.4306962999981,None,,,558.4468919999781,558.4468919999781,558.4468919999781,2.108806300035212,0.20752719999291003,,,,,,,,,,00046,001,2026-01-18_11h15.02.395,MST_task,2024.2.0,60.10164390449534,2026-01-18 11h15.17.191840 +0530,
,Objects\075a.jpg,21,0,22,,,,,,,f,None,,,2.895474499964621,None,,,,22,0,21,558.4468919999781,,,,,,,,,,,,,,,,,,,,,,,558.4307599999593,558.4468919999781,558.9474651999772,558.9304121999885,,,,,,,,,,,,,,,,,,,,,,,,,,558.9359593999689,558.9474651999772,558.9474651999772,558.9474651999772,561.9307178999879,shoe,f,561.932884699956,,,561.9329028999782,None,,,561.9469606999774,561.9469606999774,561.9469606999774,2.895474499964621,None,,,,,,,,,,00046,001,2026-01-18_11h15.02.395,MST_task,2024.2.0,60.10164390449534,2026-01-18 11h15.17.191840 +0530,
,Objects\099a.jpg,22,0,23,,,,,,,f,None,,,2.9482407000032254,None,,,,23,0,22,561.9469606999774,,,,,,,,,,,,,,,,,,,,,,,561.9330124999979,561.9469606999774,562.4471167999436,562.4303930999595,,,,,,,,,,,,,,,,,,,,,,,,,,562.4334089999902,562.4471167999436,562.4471167999436,562.4471167999436,565.4307303999667,shoe,f,565.4307737999479,,,565.4307856999803,None,,,565.4469000999816,565.4469000999816,565.4469000999816,2.9482407000032254,None,,,,,,,,,,00046,001,2026-01-18_11h15.02.395,MST_task,2024.2.0,60.10164390449534,2026-01-18 11h15.17.191840 +0530,
,Objects\334a.jpg,23,0,24,,,,,,,f,None,,,1.5597948000067845,0.21703439997509122,,,,24,0,23,565.4469000999816,,,,,,,,,,,,,,,,,,,,,,,565.430847999989,565.4469000999816,565.9471592999762,565.9304234999581,,,,,,,,,,,,,,,,,,,,,,,,,,565.939828099974,565.9471592999762,565.9471592999762,565.9471592999762,568.9307360999519,shoe,f,568.9307778999791,,,568.9307900999556,None,,,568.9469042999553,568.9469042999553,568.9469042999553,1.5597948000067845,0.21703439997509122,,,,,,,,,,00046,001,2026-01-18_11h15.02.395,MST_task,2024.2.0,60.10164390449534,2026-01-18 11h15.17.191840 +0530,
,Objects\016a.jpg,24,0,25,,,,,,,f,None,,,2.0842055000248365,0.2157086000079289,,,,25,0,24,568.9469042999553,,,,,,,,,,,,,,,,,,,,,,,568.930853799975,568.9469042999553,569.4469700999907,569.4302629999584,,,,,,,,,,,,,,,,,,,,,,,,,,569.4331560999854,569.4469700999907,569.4469700999907,569.4469700999907,572.4308564999956,shoe,f,572.430899799976,,,572.4309115999495,None,,,572.4468946999987,572.4468946999987,572.4468946999987,2.0842055000248365,0.2157086000079289,,,,,,,,,,00046,001,2026-01-18_11h15.02.395,MST_task,2024.2.0,60.10164390449534,2026-01-18 11h15.17.191840 +0530,
,Objects\201a.jpg,25,0,26,,,,,,,None,f,0.008071299991570413,None,,,,,,26,0,25,572.4468946999987,,,,,,,,,,,,,,,,,,,,,,,572.4310062999721,572.4468946999987,572.9472261999617,572.9303382999497,,,,,,,,,,,,,,,,,,,,,,,,,,572.9402894999948,572.9472261999617,572.9472261999617,572.9472261999617,575.9305804999894,shoe,None,575.930617999984,575.9469421999529,575.9469421999529,575.9639740999555,f,0.008071299991570413,None,575.9469421999529,575.9469421999529,575.9469421999529,,,,,,,,,,,,00046,001,2026-01-18_11h15.02.395,MST_task,2024.2.0,60.10164390449534,2026-01-18 11h15.17.191840 +0530,
,Objects\313a.jpg,26,0,27,,,,,,,None,f,0.06715140002779663,None,,,,,,27,0,26,575.9801082999911,,,,,,,,,,,,,,,,,,,,,,,575.9640553999925,575.9801082999911,576.480407199997,576.4638012999785,,,,,,,,,,,,,,,,,,,,,,,,,,576.4747587999445,576.480407199997,576.480407199997,576.480407199997,579.464082099963,shoe,None,579.4641210999689,579.4801495999563,579.4801495999563,579.5639003999531,f,0.06715140002779663,None,579.4801495999563,579.4801495999563,579.4801495999563,,,,,,,,,,,,00046,001,2026-01-18_11h15.02.395,MST_task,2024.2.0,60.10164390449534,2026-01-18 11h15.17.191840 +0530,
,Objects\272a.jpg,27,0,28,,,,,,,f,None,,,2.5222156000090763,0.192022499977611,,,,28,0,27,579.5802050999482,,,,,,,,,,,,,,,,,,,,,,,579.5639817999909,579.5802050999482,580.0806618999923,580.0639362999937,,,,,,,,,,,,,,,,,,,,,,,,,,580.0737535999506,580.0806618999923,580.0806618999923,580.0806618999923,583.0643966999487,shoe,f,583.0644470999832,,,583.0644608999719,None,,,583.0802032999927,583.0802032999927,583.0802032999927,2.5222156000090763,0.192022499977611,,,,,,,,,,00046,001,2026-01-18_11h15.02.395,MST_task,2024.2.0,60.10164390449534,2026-01-18 11h15.17.191840 +0530,
,Objects\153a.jpg,28,0,29,,,,,,,f,None,,,1.998316299985163,0.1520132000441663,,,,29,0,28,583.0802032999927,,,,,,,,,,,,,,,,,,,,,,,583.0645737999585,583.0802032999927,583.5805858999956,583.5638755999971,,,,,,,,,,,,,,,,,,,,,,,,,,583.5759657999733,583.5805858999956,583.5805858999956,583.5805858999956,586.563943599991,indoor,f,586.565624299983,,,586.5656427999493,None,,,586.5800846999628,586.5800846999628,586.5800846999628,1.998316299985163,0.1520132000441663,,,,,,,,,,00046,001,2026-01-18_11h15.02.395,MST_task,2024.2.0,60.10164390449534,2026-01-18 11h15.17.191840 +0530,
,Objects\221a.jpg,29,0,30,,,,,,,j,None,,,1.2267145999940112,0.19153489999007434,,,,30,0,29,586.5800846999628,,,,,,,,,,,,,,,,,,,,,,,586.5657124999561,586.5800846999628,587.0806325000012,587.0640955999843,,,,,,,,,,,,,,,,,,,,,,,,,,587.0670329999994,587.0806325000012,587.0806325000012,587.0806325000012,590.0640017999685,indoor,j,590.0640459999559,,,590.064057999989,None,,,590.0801904999535,590.0801904999535,590.0801904999535,1.2267145999940112,0.19153489999007434,,,,,,,,,,00046,001,2026-01-18_11h15.02.395,MST_task,2024.2.0,60.10164390449534,2026-01-18 11h15.17.191840 +0530,
,Objects\183a.jpg,30,0,31,,,,,,,f,None,,,2.3909128999803215,0.18342630000552163,,,,31,0,30,590.0801904999535,,,,,,,,,,,,,,,,,,,,,,,590.0641229999601,590.0801904999535,,590.5642445999547,,,,,,,,,,,,,,,,,,,,,,,,,,590.5676370000001,590.5805404999992,590.5805404999992,590.5805404999992,593.564118499984,indoor,f,593.564166199998,,,593.5641778999707,None,,,593.5800077999593,593.5800077999593,593.5800077999593,2.3909128999803215,0.18342630000552163,,,,,,,,,,00046,001,2026-01-18_11h15.02.395,MST_task,2024.2.0,60.10164390449534,2026-01-18 11h15.17.191840 +0530,
,Objects\369a.jpg,31,0,32,,,,,,,None,f,0.17241300002206117,None,,,,,,32,0,31,593.5800077999593,,,,,,,,,,,,,,,,,,,,,,,593.5642463999684,593.5800077999593,594.0803321999847,594.0638812999823,,,,,,,,,,,,,,,,,,,,,,,,,,594.0731827999698,594.0803321999847,594.0803321999847,594.0803321999847,597.0640360999969,indoor,None,597.0640774999629,597.0799423999852,597.0799423999852,597.2638214999461,f,0.17241300002206117,None,597.0799423999852,597.0799423999852,597.0799423999852,,,,,,,,,,,,00046,001,2026-01-18_11h15.02.395,MST_task,2024.2.0,60.10164390449534,2026-01-18 11h15.17.191840 +0530,
,Objects\255a.jpg,32,0,33,,,,,,,f,None,,,1.5743394999881275,0.19996910000918433,,,,33,0,32,597.2800875999965,,,,,,,,,,,,,,,,,,,,,,,597.2639073999599,597.2800875999965,597.7806868999614,597.763833199977,,,,,,,,,,,,,,,,,,,,,,,,,,597.7669825999765,597.7806868999614,597.7806868999614,597.7806868999614,600.7642098999931,indoor,f,600.7642585999565,,,600.7642716999981,None,,,600.7799720999901,600.7799720999901,600.7799720999901,1.5743394999881275,0.19996910000918433,,,,,,,,,,00046,001,2026-01-18_11h15.02.395,MST_task,2024.2.0,60.10164390449534,2026-01-18 11h15.17.191840 +0530,
,Objects\319a.jpg,33,0,34,,,,,,,f,None,,,1.9946986000286415,0.21577379998052493,,,,34,0,33,600.7799720999901,,,,,,,,,,,,,,,,,,,,,,,600.7643383999821,600.7799720999901,601.280518399959,601.2637012999621,,,,,,,,,,,,,,,,,,,,,,,,,,601.2738380999654,601.280518399959,601.280518399959,601.280518399959,604.2639787999797,indoor,f,604.2640214999556,,,604.2640330999857,None,,,604.2800533999689,604.2800533999689,604.2800533999689,1.9946986000286415,0.21577379998052493,,,,,,,,,,00046,001,2026-01-18_11h15.02.395,MST_task,2024.2.0,60.10164390449534,2026-01-18 11h15.17.191840 +0530,
,Objects\091a.jpg,34,0,35,,,,,,,j,None,,,1.9587142000091262,0.22400659997947514,,,,35,0,34,604.2800533999689,,,,,,,,,,,,,,,,,,,,,,,604.264097599953,604.2800533999689,604.7803735999623,604.7638509999961,,,,,,,,,,,,,,,,,,,,,,,,,,604.7669644999551,604.7803735999623,604.7803735999623,604.7803735999623,607.7642994999769,indoor,j,607.7643478999962,,,607.7643600999727,None,,,607.780010699993,607.780010699993,607.780010699993,1.9587142000091262,0.22400659997947514,,,,,,,,,,00046,001,2026-01-18_11h15.02.395,MST_task,2024.2.0,60.10164390449534,2026-01-18 11h15.17.191840 +0530,
,Objects\119a.jpg,35,0,36,,,,,,,f,None,,,1.7789158999803476,0.21574399998644367,,,,36,0,35,607.780010699993,,,,,,,,,,,,,,,,,,,,,,,607.7644423999591,607.780010699993,608.2802972999634,608.2636078999494,,,,,,,,,,,,,,,,,,,,,,,,,,608.2683156999992,608.2802972999634,608.2802972999634,608.2802972999634,611.2640447999584,shoe,f,611.2662226999528,,,611.2662439999986,None,,,611.2800933999824,611.2800933999824,611.2800933999824,1.7789158999803476,0.21574399998644367,,,,,,,,,,00046,001,2026-01-18_11h15.02.395,MST_task,2024.2.0,60.10164390449534,2026-01-18 11h15.17.191840 +0530,
,Objects\363a.jpg,36,0,37,,,,,,,f,None,,,1.8872282999800518,0.1759959000046365,,,,37,0,36,611.2800933999824,,,,,,,,,,,,,,,,,,,,,,,611.2663679999532,611.2800933999824,611.7803168999963,611.7636892999872,,,,,,,,,,,,,,,,,,,,,,,,,,611.7666556999902,611.7803168999963,611.7803168999963,611.7803168999963,614.7640292999567,shoe,f,614.7640712999855,,,614.7640836999635,None,,,614.7800708999857,614.7800708999857,614.7800708999857,1.8872282999800518,0.1759959000046365,,,,,,,,,,00046,001,2026-01-18_11h15.02.395,MST_task,2024.2.0,60.10164390449534,2026-01-18 11h15.17.191840 +0530,
,Objects\384a.jpg,37,0,38,,,,,,,f,None,,,1.6754267000360414,0.20017269998788834,,,,38,0,37,614.7800708999857,,,,,,,,,,,,,,,,,,,,,,,614.7641480999882,614.7800708999857,615.2801278999541,615.2636794999707,,,,,,,,,,,,,,,,,,,,,,,,,,615.2673218999989,615.2801278999541,615.2801278999541,615.2801278999541,618.2639647999895,shoe,f,618.2640077999677,,,618.2640190999955,None,,,618.2801108999993,618.2801108999993,618.2801108999993,1.6754267000360414,0.20017269998788834,,,,,,,,,,00046,001,2026-01-18_11h15.02.395,MST_task,2024.2.0,60.10164390449534,2026-01-18 11h15.17.191840 +0530,
,Objects\292a.jpg,38,0,39,,,,,,,f,None,,,1.3514026000048034,0.1750591000309214,,,,39,0,38,618.2801108999993,,,,,,,,,,,,,,,,,,,,,,,618.2640825999551,618.2801108999993,618.7804751999793,618.7637081999565,,,,,,,,,,,,,,,,,,,,,,,,,,618.7665821999544,618.7804751999793,618.7804751999793,618.7804751999793,621.7640575999976,shoe,f,621.764100099972,,,621.7641117999447,None,,,621.7800199999474,621.7800199999474,621.7800199999474,1.3514026000048034,0.1750591000309214,,,,,,,,,,00046,001,2026-01-18_11h15.02.395,MST_task,2024.2.0,60.10164390449534,2026-01-18 11h15.17.191840 +0530,
,Objects\328a.jpg,39,0,40,,,,,,,f,None,,,1.6427429000032134,0.20911739999428391,,,,40,0,39,621.7800199999474,,,,,,,,,,,,,,,,,,,,,,,621.7641747999587,621.7800199999474,622.2803258999484,622.2637307999539,,,,,,,,,,,,,,,,,,,,,,,,,,622.2672241999535,622.2803258999484,622.2803258999484,622.2803258999484,625.2640007999726,shoe,f,625.2640428000013,,,625.2640546999755,None,,,625.2799766999669,625.2799766999669,625.2799766999669,1.6427429000032134,0.20911739999428391,,,,,,,,,,00046,001,2026-01-18_11h15.02.395,MST_task,2024.2.0,60.10164390449534,2026-01-18 11h15.17.191840 +0530,
,Objects\232a.jpg,40,0,41,,,,,,,f,None,,,1.8233299999847077,0.21601360000204295,,,,41,0,40,625.2799766999669,,,,,,,,,,,,,,,,,,,,,,,625.2641291999607,625.2799766999669,625.7804692999925,625.7637177999713,,,,,,,,,,,,,,,,,,,,,,,,,,625.7669009999954,625.7804692999925,625.7804692999925,625.7804692999925,628.7640145999612,shoe,f,628.7640556999831,,,628.7640676999581,None,,,628.7800004999735,628.7800004999735,628.7800004999735,1.8233299999847077,0.21601360000204295,,,,,,,,,,00046,001,2026-01-18_11h15.02.395,MST_task,2024.2.0,60.10164390449534,2026-01-18 11h15.17.191840 +0530,
,Objects\226a.jpg,41,0,42,,,,,,,f,None,,,2.4985922999912873,0.17583670001477003,,,,42,0,41,628.7800004999735,,,,,,,,,,,,,,,,,,,,,,,628.7641302999691,628.7800004999735,629.2804539999925,629.2636492999736,,,,,,,,,,,,,,,,,,,,,,,,,,629.2669503999641,629.2804539999925,629.2804539999925,629.2804539999925,632.2639195999946,shoe,f,632.2639626999735,,,632.2639746999484,None,,,632.2801007999806,632.2801007999806,632.2801007999806,2.4985922999912873,0.17583670001477003,,,,,,,,,,00046,001,2026-01-18_11h15.02.395,MST_task,2024.2.0,60.10164390449534,2026-01-18 11h15.17.191840 +0530,
,Objects\362a.jpg,42,0,43,,,,,,,f,None,,,2.40663919999497,0.1847591000259854,,,,43,0,42,632.2801007999806,,,,,,,,,,,,,,,,,,,,,,,632.2640375999617,632.2801007999806,632.780443799973,632.763694299967,,,,,,,,,,,,,,,,,,,,,,,,,,632.776586699998,632.780443799973,632.780443799973,632.780443799973,635.7640484999865,indoor,f,635.7657219999819,,,635.7657402999466,None,,,635.7799918999663,635.7799918999663,635.7799918999663,2.40663919999497,0.1847591000259854,,,,,,,,,,00046,001,2026-01-18_11h15.02.395,MST_task,2024.2.0,60.10164390449534,2026-01-18 11h15.17.191840 +0530,
,Objects\032a.jpg,43,0,44,,,,,,,f,None,,,2.3394015000085346,0.22477199998684227,,,,44,0,43,635.7799918999663,,,,,,,,,,,,,,,,,,,,,,,635.7658088999451,635.7799918999663,636.2804781000013,636.2640327999834,,,,,,,,,,,,,,,,,,,,,,,,,,636.2747118999832,636.2804781000013,636.2804781000013,636.2804781000013,639.2641445999616,indoor,f,639.2641893999535,,,639.2642018999904,None,,,639.279989899951,639.279989899951,639.279989899951,2.3394015000085346,0.22477199998684227,,,,,,,,,,00046,001,2026-01-18_11h15.02.395,MST_task,2024.2.0,60.10164390449534,2026-01-18 11h15.17.191840 +0530,
,Objects\208a.jpg,44,0,45,,,,,,,f,None,,,1.535256400005892,0.19122839998453856,,,,45,0,44,639.279989899951,,,,,,,,,,,,,,,,,,,,,,,639.2642660999554,639.279989899951,639.7804215999786,639.7636681000004,,,,,,,,,,,,,,,,,,,,,,,,,,639.7664446999552,639.7804215999786,639.7804215999786,639.7804215999786,642.7639305999619,indoor,f,642.7639740000013,,,642.7639865999809,None,,,642.7800833999645,642.7800833999645,642.7800833999645,1.535256400005892,0.19122839998453856,,,,,,,,,,00046,001,2026-01-18_11h15.02.395,MST_task,2024.2.0,60.10164390449534,2026-01-18 11h15.17.191840 +0530,
,Objects\372a.jpg,45,0,46,,,,,,,None,f,2.603737200028263,None,,,,,,46,0,45,642.7800833999645,,,,,,,,,,,,,,,,,,,,,,,642.7640493999934,642.7800833999645,643.2805087999441,643.2640590999508,,,,,,,,,,,,,,,,,,,,,,,,,,643.2673439999926,643.2805087999441,643.2805087999441,643.2805087999441,646.2641261999961,indoor,None,646.2641702999827,646.2800351999467,646.2800351999467,648.897393799969,f,2.603737200028263,None,646.2800351999467,646.2800351999467,646.2800351999467,,,,,,,,,,,,00046,001,2026-01-18_11h15.02.395,MST_task,2024.2.0,60.10164390449534,2026-01-18 11h15.17.191840 +0530,
,Objects\230a.jpg,46,0,47,,,,,,,j,None,,,1.2372274000081234,0.20109869999578223,,,,47,0,46,648.913437799958,,,,,,,,,,,,,,,,,,,,,,,648.8974821000011,648.913437799958,649.4138548999908,649.3970072999946,,,,,,,,,,,,,,,,,,,,,,,,,,649.3998196999892,649.4138548999908,649.4138548999908,649.4138548999908,652.3973115999834,indoor,j,652.3973535999539,,,652.3973662999924,None,,,652.4134254999808,652.4134254999808,652.4134254999808,1.2372274000081234,0.20109869999578223,,,,,,,,,,00046,001,2026-01-18_11h15.02.395,MST_task,2024.2.0,60.10164390449534,2026-01-18 11h15.17.191840 +0530,
,Objects\086a.jpg,47,0,48,,,,,,,None,f,0.2260361000080593,None,,,,,,48,0,47,652.4134254999808,,,,,,,,,,,,,,,,,,,,,,,652.3974298999528,652.4134254999808,652.9138821999659,652.8970612999983,,,,,,,,,,,,,,,,,,,,,,,,,,652.900417799945,652.9138821999659,652.9138821999659,652.9138821999659,655.897445599956,indoor,None,655.8974886999931,655.9134862999781,655.9134862999781,656.1472500999807,f,0.2260361000080593,None,655.9134862999781,655.9134862999781,655.9134862999781,,,,,,,,,,,,00046,001,2026-01-18_11h15.02.395,MST_task,2024.2.0,60.10164390449534,2026-01-18 11h15.17.191840 +0530,
,Objects\089a.jpg,48,0,49,,,,,,,f,None,,,2.2678069000248797,0.17607799998950213,,,,49,0,48,656.1634802999906,,,,,,,,,,,,,,,,,,,,,,,656.1473372999462,656.1634802999906,656.6636438999558,656.6470565999625,,,,,,,,,,,,,,,,,,,,,,,,,,656.649547799956,656.6636438999558,656.6636438999558,656.6636438999558,659.6474822999444,indoor,f,659.6475261999876,,,659.6475390999694,None,,,659.6636408999912,659.6636408999912,659.6636408999912,2.2678069000248797,0.17607799998950213,,,,,,,,,,00046,001,2026-01-18_11h15.02.395,MST_task,2024.2.0,60.10164390449534,2026-01-18 11h15.17.191840 +0530,
,Objects\222a.jpg,49,0,50,,,,,,,None,j,0.607719800027553,None,,,,,,50,0,49,659.6636408999912,,,,,,,,,,,,,,,,,,,,,,,659.6476028999896,659.6636408999912,660.1640084999963,660.1471980999922,,,,,,,,,,,,,,,,,,,,,,,,,,660.152294199972,660.1640084999963,660.1640084999963,660.1640084999963,663.1473508999916,shoe,None,663.1497001999523,663.1634993999614,663.1634993999614,663.7805955999647,j,0.607719800027553,None,663.1634993999614,663.1634993999614,663.1634993999614,,,,,,,,,,,,00046,001,2026-01-18_11h15.02.395,MST_task,2024.2.0,60.10164390449534,2026-01-18 11h15.17.191840 +0530,
,Objects\303a.jpg,50,0,51,,,,,,,None,f,1.1459857000154443,None,,,,,,51,0,50,663.7968469999614,,,,,,,,,,,,,,,,,,,,,,,663.7806908999919,663.7968469999614,664.2972438999568,664.2803350999602,,,,,,,,,,,,,,,,,,,,,,,,,,664.294323799957,664.2972438999568,664.2972438999568,664.2972438999568,667.2808779999614,shoe,None,667.2809160999605,667.296964899986,667.296964899986,668.4472084000008,f,1.1459857000154443,None,667.296964899986,667.296964899986,667.296964899986,,,,,,,,,,,,00046,001,2026-01-18_11h15.02.395,MST_task,2024.2.0,60.10164390449534,2026-01-18 11h15.17.191840 +0530,
,Objects\143a.jpg,51,0,52,,,,,,,None,j,2.9998137000366114,None,,,,,,52,0,51,668.4634880999802,,,,,,,,,,,,,,,,,,,,,,,668.4472937999526,668.4634880999802,668.9640060999664,668.9471947999555,,,,,,,,,,,,,,,,,,,,,,,,,,668.9570580999716,668.9640060999664,668.9640060999664,668.9640060999664,671.947474799992,shoe,None,671.9475136999972,671.9636458999594,671.9636458999594,674.9642429999658,j,2.9998137000366114,None,671.9636458999594,671.9636458999594,671.9636458999594,,,,,,,,,,,,00046,001,2026-01-18_11h15.02.395,MST_task,2024.2.0,60.10164390449534,2026-01-18 11h15.17.191840 +0530,
,Objects\366a.jpg,52,0,53,,,,,,,None,f,0.09196599997812882,None,,,,,,53,0,52,674.9801507999655,,,,,,,,,,,,,,,,,,,,,,,674.964342399966,674.9801507999655,675.4804788999609,675.4636827999493,,,,,,,,,,,,,,,,,,,,,,,,,,675.4668589999783,675.4804788999609,675.4804788999609,675.4804788999609,678.4640233999817,shoe,None,678.4640616999823,678.4802928999998,678.4802928999998,678.5806263999548,f,0.09196599997812882,None,678.4802928999998,678.4802928999998,678.4802928999998,,,,,,,,,,,,00046,001,2026-01-18_11h15.02.395,MST_task,2024.2.0,60.10164390449534,2026-01-18 11h15.17.191840 +0530,
,Objects\276a.jpg,53,0,54,,,,,,,f,None,,,2.6747085000388324,0.19102759996894747,,,,54,0,53,678.5969398999587,,,,,,,,,,,,,,,,,,,,,,,678.5807078999933,678.5969398999587,679.0971547999652,679.0805000999826,,,,,,,,,,,,,,,,,,,,,,,,,,679.0829943999997,679.0971547999652,679.0971547999652,679.0971547999652,682.0807967999717,shoe,f,682.0808423999697,,,682.0808549999492,None,,,682.0968827999895,682.0968827999895,682.0968827999895,2.6747085000388324,0.19102759996894747,,,,,,,,,,00046,001,2026-01-18_11h15.02.395,MST_task,2024.2.0,60.10164390449534,2026-01-18 11h15.17.191840 +0530,
,Objects\132a.jpg,54,0,55,,,,,,,f,None,,,1.91833980003139,0.19198529998539016,,,,55,0,54,682.0968827999895,,,,,,,,,,,,,,,,,,,,,,,682.080918099964,682.0968827999895,682.5970084999572,682.5804124999559,,,,,,,,,,,,,,,,,,,,,,,,,,682.5831502999645,682.5970084999572,682.5970084999572,682.5970084999572,685.580734499963,shoe,f,685.580778399948,,,685.5807905999827,None,,,685.5970199999865,685.5970199999865,685.5970199999865,1.91833980003139,0.19198529998539016,,,,,,,,,,00046,001,2026-01-18_11h15.02.395,MST_task,2024.2.0,60.10164390449534,2026-01-18 11h15.17.191840 +0530,
,Objects\304a.jpg,55,0,56,,,,,,,f,None,,,1.6021884999936447,0.20002109999768436,,,,56,0,55,685.5970199999865,,,,,,,,,,,,,,,,,,,,,,,685.5808877999661,685.5970199999865,686.0973905999563,686.0805183999473,,,,,,,,,,,,,,,,,,,,,,,,,,686.0916379999835,686.0973905999563,686.0973905999563,686.0973905999563,689.0810029999702,shoe,f,689.0810647999751,,,689.0810808999813,None,,,689.0968691999442,689.0968691999442,689.0968691999442,1.6021884999936447,0.20002109999768436,,,,,,,,,,00046,001,2026-01-18_11h15.02.395,MST_task,2024.2.0,60.10164390449534,2026-01-18 11h15.17.191840 +0530,
,Objects\344a.jpg,56,0,57,,,,,,,j,None,,,1.470399499987252,0.19128129997989163,,,,57,0,56,689.0968691999442,,,,,,,,,,,,,,,,,,,,,,,689.0811931999633,689.0968691999442,689.5972209999454,689.5802965999465,,,,,,,,,,,,,,,,,,,,,,,,,,689.5844117999659,689.5972209999454,689.5972209999454,689.5972209999454,692.5806322999997,indoor,j,692.5822640999686,,,692.58228219999,None,,,692.5968295999919,692.5968295999919,692.5968295999919,1.470399499987252,0.19128129997989163,,,,,,,,,,00046,001,2026-01-18_11h15.02.395,MST_task,2024.2.0,60.10164390449534,2026-01-18 11h15.17.191840 +0530,
,Objects\263a.jpg,57,0,58,,,,,,,None,j,0.11473400000249967,None,,,,,,58,0,57,692.5968295999919,,,,,,,,,,,,,,,,,,,,,,,692.582361299952,692.5968295999919,693.0972189999884,693.0804015999893,,,,,,,,,,,,,,,,,,,,,,,,,,693.0841991999769,693.0972189999884,693.0972189999884,693.0972189999884,696.0806798999547,indoor,None,696.080719599966,696.0968502999749,696.0968502999749,696.2139063999639,j,0.11473400000249967,None,696.0968502999749,696.0968502999749,696.0968502999749,,,,,,,,,,,,00046,001,2026-01-18_11h15.02.395,MST_task,2024.2.0,60.10164390449534,2026-01-18 11h15.17.191840 +0530,
,Objects\380a.jpg,58,0,59,,,,,,,j,None,,,2.3371071000001393,0.15998870000476018,,,,59,0,58,696.2301224999828,,,,,,,,,,,,,,,,,,,,,,,696.2139916999731,696.2301224999828,696.7303782999516,696.7136965999962,,,,,,,,,,,,,,,,,,,,,,,,,,696.7171034999774,696.7303782999516,696.7303782999516,696.7303782999516,699.7139446999645,indoor,j,699.7139873999986,,,699.7139993999735,None,,,699.7301105999504,699.7301105999504,699.7301105999504,2.3371071000001393,0.15998870000476018,,,,,,,,,,00046,001,2026-01-18_11h15.02.395,MST_task,2024.2.0,60.10164390449534,2026-01-18 11h15.17.191840 +0530,
,Objects\124a.jpg,59,0,60,,,,,,,None,j,1.8447603000095114,None,,,,,,60,0,59,699.7301105999504,,,,,,,,,,,,,,,,,,,,,,,699.7140626999899,699.7301105999504,700.2303504999727,700.2137399999774,,,,,,,,,,,,,,,,,,,,,,,,,,700.2164055999601,700.2303504999727,700.2303504999727,700.2303504999727,703.2143501999672,indoor,None,703.2143960999674,703.2300956999534,703.2300956999534,705.0804271999514,j,1.8447603000095114,None,703.2300956999534,703.2300956999534,703.2300956999534,,,,,,,,,,,,00046,001,2026-01-18_11h15.02.395,MST_task,2024.2.0,60.10164390449534,2026-01-18 11h15.17.191840 +0530,
,Objects\377a.jpg,60,0,61,,,,,,,None,j,1.0471882999991067,None,,,,,,61,0,60,705.0968067999929,,,,,,,,,,,,,,,,,,,,,,,705.0805108999484,705.0968067999929,705.5978093000012,705.5804666999611,,,,,,,,,,,,,,,,,,,,,,,,,,705.5837921999628,705.5978093000012,705.5978093000012,705.5978093000012,708.5806685999851,indoor,None,708.5807076999918,708.5968472999521,708.5968472999521,709.6476735999458,j,1.0471882999991067,None,708.5968472999521,708.5968472999521,708.5968472999521,,,,,,,,,,,,00046,001,2026-01-18_11h15.02.395,MST_task,2024.2.0,60.10164390449534,2026-01-18 11h15.17.191840 +0530,
,Objects\150a.jpg,61,0,62,,,,,,,None,f,0.37589379999553785,None,,,,,,62,0,61,709.6634869999834,,,,,,,,,,,,,,,,,,,,,,,709.6477710999898,709.6634869999834,710.1637777999858,710.1470969999791,,,,,,,,,,,,,,,,,,,,,,,,,,710.1504449999775,710.1637777999858,710.1637777999858,710.1637777999858,713.1474291999475,indoor,None,713.1474669999443,713.1634383999626,713.1634383999626,713.5471867999877,f,0.37589379999553785,None,713.1634383999626,713.1634383999626,713.1634383999626,,,,,,,,,,,,00046,001,2026-01-18_11h15.02.395,MST_task,2024.2.0,60.10164390449534,2026-01-18 11h15.17.191840 +0530,
,Objects\343a.jpg,62,0,63,,,,,,,None,f,0.49136089999228716,None,,,,,,63,0,62,713.563489299966,,,,,,,,,,,,,,,,,,,,,,,713.5472699999809,713.563489299966,714.0638889999827,714.0471905999584,,,,,,,,,,,,,,,,,,,,,,,,,,714.0493639999768,714.0638889999827,714.0638889999827,714.0638889999827,717.0473267999478,indoor,None,717.0473657999537,717.0635249999468,717.0635249999468,717.5639158999547,f,0.49136089999228716,None,717.0635249999468,717.0635249999468,717.0635249999468,,,,,,,,,,,,00046,001,2026-01-18_11h15.02.395,MST_task,2024.2.0,60.10164390449534,2026-01-18 11h15.17.191840 +0530,
,Objects\076a.jpg,63,0,64,,,,,,,j,None,,,1.2428669999935664,0.18434460001299158,,,,64,0,63,717.5800356999971,,,,,,,,,,,,,,,,,,,,,,,717.564001199964,717.5800356999971,718.0804894999601,718.0637406999595,,,,,,,,,,,,,,,,,,,,,,,,,,718.0695466999896,718.0804894999601,718.0804894999601,718.0804894999601,721.064426500001,shoe,j,721.06660739996,,,721.0666247999761,None,,,721.0800902999472,721.0800902999472,721.0800902999472,1.2428669999935664,0.18434460001299158,,,,,,,,,,00046,001,2026-01-18_11h15.02.395,MST_task,2024.2.0,60.10164390449534,2026-01-18 11h15.17.191840 +0530,
,Objects\030a.jpg,64,0,65,,,,,,,None,f,0.07997250003973022,None,,,,,,65,0,64,721.0800902999472,,,,,,,,,,,,,,,,,,,,,,,721.0667297999607,721.0800902999472,721.5803739999537,721.5637036999688,,,,,,,,,,,,,,,,,,,,,,,,,,721.5664778999635,721.5803739999537,721.5803739999537,721.5803739999537,724.5643996999715,shoe,None,724.5644452999695,724.580186599982,724.580186599982,724.6642272999743,f,0.07997250003973022,None,724.580186599982,724.580186599982,724.580186599982,,,,,,,,,,,,00046,001,2026-01-18_11h15.02.395,MST_task,2024.2.0,60.10164390449534,2026-01-18 11h15.17.191840 +0530,
,Objects\013a.jpg,65,0,66,,,,,,,None,j,5.3589911999879405,None,,,,,,66,0,65,724.680195999972,,,,,,,,,,,,,,,,,,,,,,,724.6643608999439,724.680195999972,725.1802620999515,725.1637388999807,,,,,,,,,,,,,,,,,,,,,,,,,,725.1664246,725.1802620999515,725.1802620999515,725.1802620999515,728.1640282999724,shoe,None,728.1640671999776,728.1800501999678,728.1800501999678,733.5473688999773,j,5.3589911999879405,None,728.1800501999678,728.1800501999678,728.1800501999678,,,,,,,,,,,,00046,001,2026-01-18_11h15.02.395,MST_task,2024.2.0,60.10164390449534,2026-01-18 11h15.17.191840 +0530,
,Objects\159a.jpg,66,0,67,,,,,,,f,None,,,2.579376499983482,0.20800040004542097,,,,67,0,66,733.5634666999686,,,,,,,,,,,,,,,,,,,,,,,733.547453599982,733.5634666999686,734.0637268999708,734.0471148999641,,,,,,,,,,,,,,,,,,,,,,,,,,734.0501463999972,734.0637268999708,734.0637268999708,734.0637268999708,737.0473584999563,shoe,f,737.0474002999836,,,737.0474128999631,None,,,737.0634544999921,737.0634544999921,737.0634544999921,2.579376499983482,0.20800040004542097,,,,,,,,,,00046,001,2026-01-18_11h15.02.395,MST_task,2024.2.0,60.10164390449534,2026-01-18 11h15.17.191840 +0530,
,Objects\257a.jpg,67,0,68,,,,,,,f,None,,,1.6310404000105336,0.24074500001734123,,,,68,0,67,737.0634544999921,,,,,,,,,,,,,,,,,,,,,,,737.0475074999849,737.0634544999921,737.5639715999714,737.5471699999762,,,,,,,,,,,,,,,,,,,,,,,,,,737.5503595999908,737.5639715999714,737.5639715999714,737.5639715999714,740.5473893999588,shoe,f,740.5474325999967,,,740.5474484000006,None,,,740.563507599989,740.563507599989,740.563507599989,1.6310404000105336,0.24074500001734123,,,,,,,,,,00046,001,2026-01-18_11h15.02.395,MST_task,2024.2.0,60.10164390449534,2026-01-18 11h15.17.191840 +0530,
,Objects\115a.jpg,68,0,69,,,,,,,f,None,,,1.6196062000235543,0.18431550002424046,,,,69,0,68,740.563507599989,,,,,,,,,,,,,,,,,,,,,,,740.5475126999663,740.563507599989,741.0639030999737,741.047055699979,,,,,,,,,,,,,,,,,,,,,,,,,,741.0505934999674,741.0639030999737,741.0639030999737,741.0639030999737,744.0473969999584,shoe,f,744.0474423999549,,,744.0474547999911,None,,,744.063622799993,744.063622799993,744.063622799993,1.6196062000235543,0.18431550002424046,,,,,,,,,,00046,001,2026-01-18_11h15.02.395,MST_task,2024.2.0,60.10164390449534,2026-01-18 11h15.17.191840 +0530,
,Objects\178a.jpg,69,0,70,,,,,,,f,None,,,1.7357463000225835,0.23270459997002035,,,,70,0,69,744.063622799993,,,,,,,,,,,,,,,,,,,,,,,744.0475844999892,744.063622799993,744.5636989999912,744.5471216999576,,,,,,,,,,,,,,,,,,,,,,,,,,744.559529399965,744.5636989999912,744.5636989999912,744.5636989999912,747.5475470999954,shoe,f,747.5475908999797,,,747.5476031999569,None,,,747.5635357999709,747.5635357999709,747.5635357999709,1.7357463000225835,0.23270459997002035,,,,,,,,,,00046,001,2026-01-18_11h15.02.395,MST_task,2024.2.0,60.10164390449534,2026-01-18 11h15.17.191840 +0530,
,Objects\288a.jpg,70,0,71,,,,,,,f,None,,,1.5956463000038639,0.16000069997971877,,,,71,0,70,747.5635357999709,,,,,,,,,,,,,,,,,,,,,,,747.5476677999832,747.5635357999709,748.0639084999566,748.0471428999444,,,,,,,,,,,,,,,,,,,,,,,,,,748.0520135999541,748.0639084999566,748.0639084999566,748.0639084999566,751.0472975999583,indoor,f,751.0489733999711,,,751.0489906999865,None,,,751.0635469999979,751.0635469999979,751.0635469999979,1.5956463000038639,0.16000069997971877,,,,,,,,,,00046,001,2026-01-18_11h15.02.395,MST_task,2024.2.0,60.10164390449534,2026-01-18 11h15.17.191840 +0530,
,Objects\107a.jpg,71,0,72,,,,,,,None,j,2.3598069000290707,None,,,,,,72,0,71,751.0635469999979,,,,,,,,,,,,,,,,,,,,,,,751.0490587999811,751.0635469999979,751.5638369999942,751.5470350999967,,,,,,,,,,,,,,,,,,,,,,,,,,751.5505261999788,751.5638369999942,751.5638369999942,751.5638369999942,754.5475877999561,indoor,None,754.5476321999449,754.5634923999896,754.5634923999896,756.9303976999945,j,2.3598069000290707,None,754.5634923999896,754.5634923999896,754.5634923999896,,,,,,,,,,,,00046,001,2026-01-18_11h15.02.395,MST_task,2024.2.0,60.10164390449534,2026-01-18 11h15.17.191840 +0530,
,Objects\096a.jpg,72,0,73,,,,,,,f,None,,,2.7643847999861464,None,,,,73,0,72,756.9468868999975,,,,,,,,,,,,,,,,,,,,,,,756.9304870999767,756.9468868999975,757.4470473999972,757.4303680999437,,,,,,,,,,,,,,,,,,,,,,,,,,757.4335023999447,757.4470473999972,757.4470473999972,757.4470473999972,760.4308017999865,indoor,f,760.4308430999517,,,760.4308553999872,None,,,760.4467807999463,760.4467807999463,760.4467807999463,2.7643847999861464,None,,,,,,,,,,00046,001,2026-01-18_11h15.02.395,MST_task,2024.2.0,60.10164390449534,2026-01-18 11h15.17.191840 +0530,
,Objects\157a.jpg,73,0,74,,,,,,,f,None,,,2.064700399991125,0.19204500003252178,,,,74,0,73,760.4467807999463,,,,,,,,,,,,,,,,,,,,,,,760.4309167999891,760.4467807999463,760.9469768999843,760.9303396999603,,,,,,,,,,,,,,,,,,,,,,,,,,760.9327948999708,760.9469768999843,760.9469768999843,760.9469768999843,763.9306765999645,indoor,f,763.9307239999762,,,763.9307356999489,None,,,763.9468133999617,763.9468133999617,763.9468133999617,2.064700399991125,0.19204500003252178,,,,,,,,,,00046,001,2026-01-18_11h15.02.395,MST_task,2024.2.0,60.10164390449534,2026-01-18 11h15.17.191840 +0530,
,Objects\043a.jpg,74,0,75,,,,,,,f,None,,,2.684510200051591,0.16932849999284372,,,,75,0,74,763.9468133999617,,,,,,,,,,,,,,,,,,,,,,,763.9307989999652,763.9468133999617,764.4470597999752,764.4303550999612,,,,,,,,,,,,,,,,,,,,,,,,,,764.4330311999656,764.4470597999752,764.4470597999752,764.4470597999752,767.4306350999977,indoor,f,767.4306818999466,,,767.4306946999859,None,,,767.4468221999705,767.4468221999705,767.4468221999705,2.684510200051591,0.16932849999284372,,,,,,,,,,00046,001,2026-01-18_11h15.02.395,MST_task,2024.2.0,60.10164390449534,2026-01-18 11h15.17.191840 +0530,
,Objects\144a.jpg,75,0,76,,,,,,,None,f,1.376742499996908,None,,,,,,76,0,75,767.4468221999705,,,,,,,,,,,,,,,,,,,,,,,767.430759699957,767.4468221999705,767.9470526999794,767.9302921999479,,,,,,,,,,,,,,,,,,,,,,,,,,767.9336148999864,767.9470526999794,767.9470526999794,767.9470526999794,770.9309438999626,indoor,None,770.9309862999944,770.9470406999462,770.9470406999462,772.3304789999966,f,1.376742499996908,None,770.9470406999462,770.9470406999462,770.9470406999462,,,,,,,,,,,,00046,001,2026-01-18_11h15.02.395,MST_task,2024.2.0,60.10164390449534,2026-01-18 11h15.17.191840 +0530,
,Objects\314a.jpg,76,0,77,,,,,,,f,None,,,2.092149200034328,0.1679941999609582,,,,77,0,76,772.3468591999845,,,,,,,,,,,,,,,,,,,,,,,772.3305627999944,772.3468591999845,772.8472032999853,772.8303760999697,,,,,,,,,,,,,,,,,,,,,,,,,,772.840617299953,772.8472032999853,772.8472032999853,772.8472032999853,775.8305434999638,indoor,f,775.8305846999865,,,775.8305967999622,None,,,775.8468589999829,775.8468589999829,775.8468589999829,2.092149200034328,0.1679941999609582,,,,,,,,,,00046,001,2026-01-18_11h15.02.395,MST_task,2024.2.0,60.10164390449534,2026-01-18 11h15.17.191840 +0530,
,Objects\112a.jpg,77,0,78,,,,,,,f,None,,,2.07990409998456,0.2157393000088632,,,,78,0,77,775.8468589999829,,,,,,,,,,,,,,,,,,,,,,,775.8306603999808,775.8468589999829,776.3472755999537,776.3302937999833,,,,,,,,,,,,,,,,,,,,,,,,,,776.3432548999554,776.3472755999537,776.3472755999537,776.3472755999537,779.3309874999686,shoe,f,779.3331996999914,,,779.3332170999493,None,,,779.3470023999689,779.3470023999689,779.3470023999689,2.07990409998456,0.2157393000088632,,,,,,,,,,00046,001,2026-01-18_11h15.02.395,MST_task,2024.2.0,60.10164390449534,2026-01-18 11h15.17.191840 +0530,
,Objects\245a.jpg,78,0,79,,,,,,,f,None,,,2.675862699979916,0.1766592999920249,,,,79,0,78,779.3470023999689,,,,,,,,,,,,,,,,,,,,,,,779.3332842999953,779.3470023999689,779.8471808999893,779.8305842999835,,,,,,,,,,,,,,,,,,,,,,,,,,779.8331248999457,779.8471808999893,779.8471808999893,779.8471808999893,782.830830699997,shoe,f,782.8308728999691,,,782.8308853999479,None,,,782.8470257999725,782.8470257999725,782.8470257999725,2.675862699979916,0.1766592999920249,,,,,,,,,,00046,001,2026-01-18_11h15.02.395,MST_task,2024.2.0,60.10164390449534,2026-01-18 11h15.17.191840 +0530,
,Objects\316a.jpg,79,0,80,,,,,,,f,None,,,2.048697899968829,0.18290140002500266,,,,80,0,79,782.8470257999725,,,,,,,,,,,,,,,,,,,,,,,782.8309510999825,782.8470257999725,783.3473287999514,783.3304874999449,,,,,,,,,,,,,,,,,,,,,,,,,,783.3336750999442,783.3473287999514,783.3473287999514,783.3473287999514,786.3309445999912,shoe,f,786.3309965999797,,,786.3310105999699,None,,,786.3468854999519,786.3468854999519,786.3468854999519,2.048697899968829,0.18290140002500266,,,,,,,,,,00046,001,2026-01-18_11h15.02.395,MST_task,2024.2.0,60.10164390449534,2026-01-18 11h15.17.191840 +0530,
,Objects\186a.jpg,80,0,81,,,,,,,f,None,,,1.500357199984137,0.2071021000156179,,,,81,0,80,786.3468854999519,,,,,,,,,,,,,,,,,,,,,,,786.3310812999844,786.3468854999519,786.8474671999575,786.8306675999775,,,,,,,,,,,,,,,,,,,,,,,,,,786.8340367999626,786.8474671999575,786.8474671999575,786.8474671999575,789.8308552999515,shoe,f,789.8308968999772,,,789.830908999953,None,,,789.8468718999648,789.8468718999648,789.8468718999648,1.500357199984137,0.2071021000156179,,,,,,,,,,00046,001,2026-01-18_11h15.02.395,MST_task,2024.2.0,60.10164390449534,2026-01-18 11h15.17.191840 +0530,
,Objects\160a.jpg,81,0,82,,,,,,,f,None,,,2.8484574999893084,None,,,,82,0,81,789.8468718999648,,,,,,,,,,,,,,,,,,,,,,,789.8309737999807,789.8468718999648,790.3471706999699,790.330582799972,,,,,,,,,,,,,,,,,,,,,,,,,,790.3421155999531,790.3471706999699,790.3471706999699,790.3471706999699,793.330736599979,shoe,f,793.3307840999914,,,793.330797099974,None,,,793.3469196999795,793.3469196999795,793.3469196999795,2.8484574999893084,None,,,,,,,,,,00046,001,2026-01-18_11h15.02.395,MST_task,2024.2.0,60.10164390449534,2026-01-18 11h15.17.191840 +0530,
,Objects\114a.jpg,82,0,83,,,,,,,f,None,,,2.23665279999841,0.20020950003527105,,,,83,0,82,793.3469196999795,,,,,,,,,,,,,,,,,,,,,,,793.33086799999,793.3469196999795,793.8471762999543,793.8305860999972,,,,,,,,,,,,,,,,,,,,,,,,,,793.8410996999592,793.8471762999543,793.8471762999543,793.8471762999543,796.8308468999458,shoe,f,796.8308885999722,,,796.8309005999472,None,,,796.8469329999643,796.8469329999643,796.8469329999643,2.23665279999841,0.20020950003527105,,,,,,,,,,00046,001,2026-01-18_11h15.02.395,MST_task,2024.2.0,60.10164390449534,2026-01-18 11h15.17.191840 +0530,
,Objects\270a.jpg,83,0,84,,,,,,,None,j,2.144712899986189,None,,,,,,84,0,83,796.8469329999643,,,,,,,,,,,,,,,,,,,,,,,796.8309639999643,796.8469329999643,797.3474353999482,797.3305618999875,,,,,,,,,,,,,,,,,,,,,,,,,,797.3398165999679,797.3474353999482,797.3474353999482,797.3474353999482,800.3308584999759,shoe,None,800.3308986999909,800.3469456999446,800.3469456999446,802.4974212999805,j,2.144712899986189,None,800.3469456999446,800.3469456999446,800.3469456999446,,,,,,,,,,,,00046,001,2026-01-18_11h15.02.395,MST_task,2024.2.0,60.10164390449534,2026-01-18 11h15.17.191840 +0530,
,Objects\148a.jpg,84,0,85,,,,,,,None,f,1.1180173000320792,None,,,,,,85,0,84,802.5136124999844,,,,,,,,,,,,,,,,,,,,,,,802.4975050999783,802.5136124999844,803.013970799977,802.9971706999931,,,,,,,,,,,,,,,,,,,,,,,,,,803.0035242000013,803.013970799977,803.013970799977,803.013970799977,805.9975291999872,indoor,None,805.9991766999592,806.0135655999766,806.0135655999766,807.1474624999682,f,1.1180173000320792,None,806.0135655999766,806.0135655999766,806.0135655999766,,,,,,,,,,,,00046,001,2026-01-18_11h15.02.395,MST_task,2024.2.0,60.10164390449534,2026-01-18 11h15.17.191840 +0530,
,Objects\246a.jpg,85,0,86,,,,,,,f,None,,,1.323434299963992,0.18409160000737756,,,,86,0,85,807.1636047999491,,,,,,,,,,,,,,,,,,,,,,,807.147550099995,807.1636047999491,807.6637307999772,807.6472410999704,,,,,,,,,,,,,,,,,,,,,,,,,,807.6499765999615,807.6637307999772,807.6637307999772,807.6637307999772,810.6475260999869,indoor,f,810.647569099965,,,810.6475815000013,None,,,810.6636202999507,810.6636202999507,810.6636202999507,1.323434299963992,0.18409160000737756,,,,,,,,,,00046,001,2026-01-18_11h15.02.395,MST_task,2024.2.0,60.10164390449534,2026-01-18 11h15.17.191840 +0530,
,Objects\214a.jpg,86,0,87,,,,,,,f,None,,,0.9273408000008203,0.16801809996832162,,,,87,0,86,810.6636202999507,,,,,,,,,,,,,,,,,,,,,,,810.64764619997,810.6636202999507,811.163747499988,811.1470673999866,,,,,,,,,,,,,,,,,,,,,,,,,,811.1496114999754,811.163747499988,811.163747499988,811.163747499988,814.147603999998,indoor,f,814.1476448999601,,,814.147656599991,None,,,814.1635456999647,814.1635456999647,814.1635456999647,0.9273408000008203,0.16801809996832162,,,,,,,,,,00046,001,2026-01-18_11h15.02.395,MST_task,2024.2.0,60.10164390449534,2026-01-18 11h15.17.191840 +0530,
,Objects\241a.jpg,87,0,88,,,,,,,None,f,0.22787760000210255,None,,,,,,88,0,87,814.1635456999647,,,,,,,,,,,,,,,,,,,,,,,814.147718799999,814.1635456999647,814.6638421999523,814.6471097999602,,,,,,,,,,,,,,,,,,,,,,,,,,814.6497235999559,814.6638421999523,814.6638421999523,814.6638421999523,817.647470499971,indoor,None,817.6475095999776,817.663630999974,817.663630999974,817.8974715999793,f,0.22787760000210255,None,817.663630999974,817.663630999974,817.663630999974,,,,,,,,,,,,00046,001,2026-01-18_11h15.02.395,MST_task,2024.2.0,60.10164390449534,2026-01-18 11h15.17.191840 +0530,
,Objects\235a.jpg,88,0,89,,,,,,,None,f,2.5653139000060037,None,,,,,,89,0,88,817.9135507999454,,,,,,,,,,,,,,,,,,,,,,,817.8975548999733,817.9135507999454,818.4140828999807,818.3972751999972,,,,,,,,,,,,,,,,,,,,,,,,,,818.4008801999735,818.4140828999807,818.4140828999807,818.4140828999807,821.3976152999676,indoor,None,821.3976572999964,821.4136049999506,821.4136049999506,823.9805837999447,f,2.5653139000060037,None,821.4136049999506,821.4136049999506,821.4136049999506,,,,,,,,,,,,00046,001,2026-01-18_11h15.02.395,MST_task,2024.2.0,60.10164390449534,2026-01-18 11h15.17.191840 +0530,
,Objects\155a.jpg,89,0,90,,,,,,,None,f,1.0263179000467062,None,,,,,,90,0,89,823.9969051999506,,,,,,,,,,,,,,,,,,,,,,,823.9806677999441,823.9969051999506,824.4972822999698,824.4805127999862,,,,,,,,,,,,,,,,,,,,,,,,,,824.4836044999538,824.4972822999698,824.4972822999698,824.4972822999698,827.480688599986,indoor,None,827.4807261999813,827.4969905999606,827.4969905999606,828.5307312999503,f,1.0263179000467062,None,827.4969905999606,827.4969905999606,827.4969905999606,,,,,,,,,,,,00046,001,2026-01-18_11h15.02.395,MST_task,2024.2.0,60.10164390449534,2026-01-18 11h15.17.191840 +0530,
,Objects\236a.jpg,90,0,91,,,,,,,None,j,2.243985800014343,None,,,,,,91,0,90,828.5471185999922,,,,,,,,,,,,,,,,,,,,,,,828.5308150999481,828.5471185999922,829.0473947999999,829.0305239000008,,,,,,,,,,,,,,,,,,,,,,,,,,829.033638999972,829.0473947999999,829.0473947999999,829.0473947999999,832.030881099985,indoor,None,832.0309194999863,832.0469432999962,832.0469432999962,834.2972654999467,j,2.243985800014343,None,832.0469432999962,832.0469432999962,832.0469432999962,,,,,,,,,,,,00046,001,2026-01-18_11h15.02.395,MST_task,2024.2.0,60.10164390449534,2026-01-18 11h15.17.191840 +0530,
,Objects\058a.jpg,91,0,92,,,,,,,f,None,,,2.4690487000043504,0.20871099998475984,,,,92,0,91,834.3139960999833,,,,,,,,,,,,,,,,,,,,,,,834.2973535999772,834.3139960999833,834.8140945999767,834.7972293999628,,,,,,,,,,,,,,,,,,,,,,,,,,834.8029098999687,834.8140945999767,834.8140945999767,834.8140945999767,837.7974465999869,shoe,f,837.7996231999714,,,837.7996409999905,None,,,837.8135304999887,837.8135304999887,837.8135304999887,2.4690487000043504,0.20871099998475984,,,,,,,,,,00046,001,2026-01-18_11h15.02.395,MST_task,2024.2.0,60.10164390449534,2026-01-18 11h15.17.191840 +0530,
,Objects\250a.jpg,92,0,93,,,,,,,j,None,,,2.217038100003265,0.1839932999573648,,,,93,0,92,837.8135304999887,,,,,,,,,,,,,,,,,,,,,,,837.7997108999989,837.8135304999887,838.3139206999913,838.2971301999642,,,,,,,,,,,,,,,,,,,,,,,,,,838.30063839996,838.3139206999913,838.3139206999913,838.3139206999913,841.2975452999817,shoe,j,841.2975883999607,,,841.2976002999931,None,,,841.3135064999806,841.3135064999806,841.3135064999806,2.217038100003265,0.1839932999573648,,,,,,,,,,00046,001,2026-01-18_11h15.02.395,MST_task,2024.2.0,60.10164390449534,2026-01-18 11h15.17.191840 +0530,
,Objects\340a.jpg,93,0,94,,,,,,,f,None,,,1.9258778999792412,0.2152866999967955,,,,94,0,93,841.3135064999806,,,,,,,,,,,,,,,,,,,,,,,841.2976653999649,841.3135064999806,841.8138524999958,841.7970583999995,,,,,,,,,,,,,,,,,,,,,,,,,,841.8065905999974,841.8138524999958,841.8138524999958,841.8138524999958,844.7974002999836,shoe,f,844.7974423999549,,,844.7974544999888,None,,,844.8135361999739,844.8135361999739,844.8135361999739,1.9258778999792412,0.2152866999967955,,,,,,,,,,00046,001,2026-01-18_11h15.02.395,MST_task,2024.2.0,60.10164390449534,2026-01-18 11h15.17.191840 +0530,
,Objects\193a.jpg,94,0,95,,,,,,,f,None,,,2.3215399000328034,0.21567559998948127,,,,95,0,94,844.8135361999739,,,,,,,,,,,,,,,,,,,,,,,844.7975182999508,844.8135361999739,845.313861499948,845.2970617999672,,,,,,,,,,,,,,,,,,,,,,,,,,845.3010108999442,845.313861499948,845.313861499948,845.313861499948,848.2973214999656,shoe,f,848.2973632999929,,,848.2973760999739,None,,,848.3135669999756,848.3135669999756,848.3135669999756,2.3215399000328034,0.21567559998948127,,,,,,,,,,00046,001,2026-01-18_11h15.02.395,MST_task,2024.2.0,60.10164390449534,2026-01-18 11h15.17.191840 +0530,
,Objects\031a.jpg,95,0,96,,,,,,,None,j,1.245785999984946,None,,,,,,96,0,95,848.3135669999756,,,,,,,,,,,,,,,,,,,,,,,848.297451899969,848.3135669999756,848.8137877999688,848.7971399999806,,,,,,,,,,,,,,,,,,,,,,,,,,848.7997761999723,848.8137877999688,848.8137877999688,848.8137877999688,851.7974038999528,shoe,None,851.7974404999986,851.8134925999912,851.8134925999912,853.0640182999778,j,1.245785999984946,None,851.8134925999912,851.8134925999912,851.8134925999912,,,,,,,,,,,,00046,001,2026-01-18_11h15.02.395,MST_task,2024.2.0,60.10164390449534,2026-01-18 11h15.17.191840 +0530,
,Objects\273a.jpg,96,0,97,,,,,,,None,f,0.9030158000532538,None,,,,,,97,0,96,853.0799930999638,,,,,,,,,,,,,,,,,,,,,,,853.0641363999457,853.0799930999638,853.5802775999764,853.5637915999978,,,,,,,,,,,,,,,,,,,,,,,,,,853.5752279000008,853.5802775999764,853.5802775999764,853.5802775999764,856.5640617999597,shoe,None,856.56410399999,856.5800862999749,856.5800862999749,857.4972992999828,f,0.9030158000532538,None,856.5800862999749,856.5800862999749,856.5800862999749,,,,,,,,,,,,00046,001,2026-01-18_11h15.02.395,MST_task,2024.2.0,60.10164390449534,2026-01-18 11h15.17.191840 +0530,
,Objects\243a.jpg,97,0,98,,,,,,,None,f,1.1101903000380844,None,,,,,,98,0,97,857.5134861999541,,,,,,,,,,,,,,,,,,,,,,,857.4973835999845,857.5134861999541,858.0139249999775,857.9972520999727,,,,,,,,,,,,,,,,,,,,,,,,,,858.000974799972,858.0139249999775,858.0139249999775,858.0139249999775,860.9974409999559,shoe,None,860.9974789999542,861.0134855999495,861.0134855999495,862.130548599991,f,1.1101903000380844,None,861.0134855999495,861.0134855999495,861.0134855999495,,,,,,,,,,,,00046,001,2026-01-18_11h15.02.395,MST_task,2024.2.0,60.10164390449534,2026-01-18 11h15.17.191840 +0530,
,Objects\162a.jpg,98,0,99,,,,,,,None,j,1.020733300014399,None,,,,,,99,0,98,862.1467957999557,,,,,,,,,,,,,,,,,,,,,,,862.1306434999569,862.1467957999557,862.6472822999931,862.6303936999757,,,,,,,,,,,,,,,,,,,,,,,,,,862.642655099975,862.6472822999931,862.6472822999931,862.6472822999931,865.6305810999474,indoor,None,865.6325260999729,865.6468979999772,865.6468979999772,866.6809056999628,j,1.020733300014399,None,865.6468979999772,865.6468979999772,865.6468979999772,,,,,,,,,,,,00046,001,2026-01-18_11h15.02.395,MST_task,2024.2.0,60.10164390449534,2026-01-18 11h15.17.191840 +0530,
,Objects\274a.jpg,99,0,100,,,,,,,None,j,0.4141422000247985,None,,,,,,100,0,99,866.6969109999482,,,,,,,,,,,,,,,,,,,,,,,866.6810003999854,866.6969109999482,867.1970814999659,867.1803500999813,,,,,,,,,,,,,,,,,,,,,,,,,,867.1833063999657,867.1970814999659,867.1970814999659,867.1970814999659,870.1806113999919,indoor,None,870.1806513999472,870.1968613999779,870.1968613999779,870.6140276999795,j,0.4141422000247985,None,870.1968613999779,870.1968613999779,870.1968613999779,,,,,,,,,,,,00046,001,2026-01-18_11h15.02.395,MST_task,2024.2.0,60.10164390449534,2026-01-18 11h15.17.191840 +0530,
,Objects\087a.jpg,100,0,101,,,,,,,j,None,,,2.370124000008218,0.20672299998113886,,,,101,0,100,870.6300742999883,,,,,,,,,,,,,,,,,,,,,,,870.6141108999727,870.6300742999883,871.1305323999841,871.1141390999546,,,,,,,,,,,,,,,,,,,,,,,,,,871.1245804999489,871.1305323999841,871.1305323999841,871.1305323999841,874.1139161999454,indoor,j,874.1139601999894,,,874.1139722999651,None,,,874.1300939999637,874.1300939999637,874.1300939999637,2.370124000008218,0.20672299998113886,,,,,,,,,,00046,001,2026-01-18_11h15.02.395,MST_task,2024.2.0,60.10164390449534,2026-01-18 11h15.17.191840 +0530,
,Objects\279a.jpg,101,0,102,,,,,,,f,None,,,2.117422399984207,0.20736559998476878,,,,102,0,101,874.1300939999637,,,,,,,,,,,,,,,,,,,,,,,874.1140410999651,874.1300939999637,874.6303762999596,874.6138974999776,,,,,,,,,,,,,,,,,,,,,,,,,,874.6237922,874.6303762999596,874.6303762999596,874.6303762999596,877.6142920999555,indoor,f,877.614337499952,,,877.6143499999889,None,,,877.6301281999913,877.6301281999913,877.6301281999913,2.117422399984207,0.20736559998476878,,,,,,,,,,00046,001,2026-01-18_11h15.02.395,MST_task,2024.2.0,60.10164390449534,2026-01-18 11h15.17.191840 +0530,
,Objects\046a.jpg,102,0,103,,,,,,,None,f,0.7457516000140458,None,,,,,,103,0,102,877.6301281999913,,,,,,,,,,,,,,,,,,,,,,,877.6144158999668,877.6301281999913,878.1304814999457,878.1137744999724,,,,,,,,,,,,,,,,,,,,,,,,,,878.1163242999464,878.1304814999457,878.1304814999457,878.1304814999457,881.1140078999451,indoor,None,881.1140463999473,881.1301767999539,881.1301767999539,881.880760799977,f,0.7457516000140458,None,881.1301767999539,881.1301767999539,881.1301767999539,,,,,,,,,,,,00046,001,2026-01-18_11h15.02.395,MST_task,2024.2.0,60.10164390449534,2026-01-18 11h15.17.191840 +0530,
,Objects\376a.jpg,103,0,104,,,,,,,f,None,,,2.334229599975515,0.14462959999218583,,,,104,0,103,881.8969846999971,,,,,,,,,,,,,,,,,,,,,,,881.8808572999551,881.8969846999971,882.39707549999,882.3803161999676,,,,,,,,,,,,,,,,,,,,,,,,,,882.3831955999485,882.39707549999,882.39707549999,882.39707549999,885.3806047999533,indoor,f,885.3806479999912,,,885.3806602999684,None,,,885.3970157000003,885.3970157000003,885.3970157000003,2.334229599975515,0.14462959999218583,,,,,,,,,,00046,001,2026-01-18_11h15.02.395,MST_task,2024.2.0,60.10164390449534,2026-01-18 11h15.17.191840 +0530,
,Objects\129a.jpg,104,0,105,,,,,,,f,None,,,2.2262601000256836,0.1681269999826327,,,,105,0,104,885.3970157000003,,,,,,,,,,,,,,,,,,,,,,,885.3807224999764,885.3970157000003,885.8970264999662,885.8803210999467,,,,,,,,,,,,,,,,,,,,,,,,,,885.8829486999894,885.8970264999662,885.8970264999662,885.8970264999662,888.8805766999722,indoor,f,888.8806197999511,,,888.8806315999827,None,,,888.8968794999528,888.8968794999528,888.8968794999528,2.2262601000256836,0.1681269999826327,,,,,,,,,,00046,001,2026-01-18_11h15.02.395,MST_task,2024.2.0,60.10164390449534,2026-01-18 11h15.17.191840 +0530,
,Objects\336a.jpg,105,0,106,,,,,,,None,f,3.3661181000061333,None,,,,,,106,0,105,888.8968794999528,,,,,,,,,,,,,,,,,,,,,,,888.8806967999553,888.8968794999528,889.3973418999813,889.3804713999853,,,,,,,,,,,,,,,,,,,,,,,,,,889.3931634999462,889.3973418999813,889.3973418999813,889.3973418999813,892.3808806999587,shoe,None,892.383049899945,892.396903899964,892.396903899964,895.7639116999926,f,3.3661181000061333,None,892.396903899964,892.396903899964,892.396903899964,,,,,,,,,,,,00046,001,2026-01-18_11h15.02.395,MST_task,2024.2.0,60.10164390449534,2026-01-18 11h15.17.191840 +0530,
,Objects\174a.jpg,106,0,107,,,,,,,None,f,0.3388198000029661,None,,,,,,107,0,106,895.7800460999715,,,,,,,,,,,,,,,,,,,,,,,895.7640087999753,895.7800460999715,896.2804722999572,896.2637881999835,,,,,,,,,,,,,,,,,,,,,,,,,,896.2745036999695,896.2804722999572,896.2804722999572,896.2804722999572,899.2642655999516,shoe,None,899.264302399999,899.280225399998,899.280225399998,899.6306120999507,f,0.3388198000029661,None,899.280225399998,899.280225399998,899.280225399998,,,,,,,,,,,,00046,001,2026-01-18_11h15.02.395,MST_task,2024.2.0,60.10164390449534,2026-01-18 11h15.17.191840 +0530,
,Objects\197a.jpg,107,0,108,,,,,,,j,None,,,1.4883354000048712,0.18401550000999123,,,,108,0,107,899.6469721999601,,,,,,,,,,,,,,,,,,,,,,,899.6307310999837,899.6469721999601,900.1471713999636,900.130577599979,,,,,,,,,,,,,,,,,,,,,,,,,,900.1333240999957,900.1471713999636,900.1471713999636,900.1471713999636,903.1309724999592,shoe,j,903.1310139999841,,,903.1310267999652,None,,,903.1469584999722,903.1469584999722,903.1469584999722,1.4883354000048712,0.18401550000999123,,,,,,,,,,00046,001,2026-01-18_11h15.02.395,MST_task,2024.2.0,60.10164390449534,2026-01-18 11h15.17.191840 +0530,
,Objects\184a.jpg,108,0,109,,,,,,,j,None,,,2.8602954000234604,None,,,,109,0,108,903.1469584999722,,,,,,,,,,,,,,,,,,,,,,,903.1311239999486,903.1469584999722,903.6471128999838,903.630598299962,,,,,,,,,,,,,,,,,,,,,,,,,,903.6336644999683,903.6471128999838,903.6471128999838,903.6471128999838,906.6308517999714,shoe,j,906.6308977999724,,,906.630910399952,None,,,906.6469920999953,906.6469920999953,906.6469920999953,2.8602954000234604,None,,,,,,,,,,00046,001,2026-01-18_11h15.02.395,MST_task,2024.2.0,60.10164390449534,2026-01-18 11h15.17.191840 +0530,
,Objects\191a.jpg,109,0,110,,,,,,,f,None,,,1.4717515999800526,0.17603410000447184,,,,110,0,109,906.6469920999953,,,,,,,,,,,,,,,,,,,,,,,906.6310043999692,906.6469920999953,907.1471900999895,907.1305409999914,,,,,,,,,,,,,,,,,,,,,,,,,,907.1421677999897,907.1471900999895,907.1471900999895,907.1471900999895,910.1308389999904,shoe,f,910.1308791999472,,,910.1308908999781,None,,,910.1470050999778,910.1470050999778,910.1470050999778,1.4717515999800526,0.17603410000447184,,,,,,,,,,00046,001,2026-01-18_11h15.02.395,MST_task,2024.2.0,60.10164390449534,2026-01-18 11h15.17.191840 +0530,
,Objects\333a.jpg,110,0,111,,,,,,,f,None,,,2.612258000008296,0.16758130001835525,,,,111,0,110,910.1470050999778,,,,,,,,,,,,,,,,,,,,,,,910.1309845999931,910.1470050999778,910.6472340999753,910.6305976999574,,,,,,,,,,,,,,,,,,,,,,,,,,910.6330929999822,910.6472340999753,910.6472340999753,910.6472340999753,913.6309056999744,shoe,f,913.6309506999678,,,913.630962700001,None,,,913.6469765999936,913.6469765999936,913.6469765999936,2.612258000008296,0.16758130001835525,,,,,,,,,,00046,001,2026-01-18_11h15.02.395,MST_task,2024.2.0,60.10164390449534,2026-01-18 11h15.17.191840 +0530,
,Objects\325a.jpg,111,0,112,,,,,,,f,None,,,2.3922784000169486,0.14399960002629086,,,,112,0,111,913.6469765999936,,,,,,,,,,,,,,,,,,,,,,,913.6310261999606,913.6469765999936,914.1474249999737,914.1307433999609,,,,,,,,,,,,,,,,,,,,,,,,,,914.1340349999955,914.1474249999737,914.1474249999737,914.1474249999737,917.1307916999795,shoe,f,917.1308328999439,,,917.1308448999771,None,,,917.146995899966,917.146995899966,917.146995899966,2.3922784000169486,0.14399960002629086,,,,,,,,,,00046,001,2026-01-18_11h15.02.395,MST_task,2024.2.0,60.10164390449534,2026-01-18 11h15.17.191840 +0530,
,Objects\008a.jpg,112,0,113,,,,,,,None,f,1.53204600000754,None,,,,,,113,0,112,917.146995899966,,,,,,,,,,,,,,,,,,,,,,,917.1309096999466,917.146995899966,917.6473660999909,917.630422999966,,,,,,,,,,,,,,,,,,,,,,,,,,917.6356270999531,917.6473660999909,917.6473660999909,917.6473660999909,920.6311820999836,indoor,None,920.6328702999745,920.6469458999927,920.6469458999927,922.1807163999765,f,1.53204600000754,None,920.6469458999927,920.6469458999927,920.6469458999927,,,,,,,,,,,,00046,001,2026-01-18_11h15.02.395,MST_task,2024.2.0,60.10164390449534,2026-01-18 11h15.17.191840 +0530,
,Objects\168a.jpg,113,0,114,,,,,,,None,f,0.8740727000404149,None,,,,,,114,0,113,922.197017999948,,,,,,,,,,,,,,,,,,,,,,,922.1808017999865,922.197017999948,922.6973407999612,922.6807114999974,,,,,,,,,,,,,,,,,,,,,,,,,,922.683486199996,922.6973407999612,922.6973407999612,922.6973407999612,925.6810468999902,indoor,None,925.6810851999908,925.6970195999602,925.6970195999602,926.5806274999632,f,0.8740727000404149,None,925.6970195999602,925.6970195999602,925.6970195999602,,,,,,,,,,,,00046,001,2026-01-18_11h15.02.395,MST_task,2024.2.0,60.10164390449534,2026-01-18 11h15.17.191840 +0530,
,Objects\361a.jpg,114,0,115,,,,,,,None,f,1.8741748000029474,None,,,,,,115,0,114,926.5970075999503,,,,,,,,,,,,,,,,,,,,,,,926.5807110999594,926.5970075999503,927.0972769999644,927.0806369999773,,,,,,,,,,,,,,,,,,,,,,,,,,927.0840956999455,927.0972769999644,927.0972769999644,927.0972769999644,930.0809136999887,indoor,None,930.0809564999654,930.096880099969,930.096880099969,931.9806687999517,f,1.8741748000029474,None,930.096880099969,930.096880099969,930.096880099969,,,,,,,,,,,,00046,001,2026-01-18_11h15.02.395,MST_task,2024.2.0,60.10164390449534,2026-01-18 11h15.17.191840 +0530,
,Objects\260a.jpg,115,0,116,,,,,,,None,f,0.4182093000272289,None,,,,,,116,0,115,931.9970056999591,,,,,,,,,,,,,,,,,,,,,,,931.9807566999807,931.9970056999591,932.497227099957,932.4805035999743,,,,,,,,,,,,,,,,,,,,,,,,,,932.4834902999573,932.497227099957,932.497227099957,932.497227099957,935.4808477999759,indoor,None,935.480888799997,935.4968770999694,935.4968770999694,935.9306272999966,f,0.4182093000272289,None,935.4968770999694,935.4968770999694,935.4968770999694,,,,,,,,,,,,00046,001,2026-01-18_11h15.02.395,MST_task,2024.2.0,60.10164390449534,2026-01-18 11h15.17.191840 +0530,
,Objects\345a.jpg,116,0,117,,,,,,,f,None,,,2.0530631000292487,0.1509949999745004,,,,117,0,116,935.9469962999574,,,,,,,,,,,,,,,,,,,,,,,935.9307125999476,935.9469962999574,936.4474592999904,936.4306274999981,,,,,,,,,,,,,,,,,,,,,,,,,,936.4344267999986,936.4474592999904,936.4474592999904,936.4474592999904,939.4309637999977,indoor,f,939.4310098999995,,,939.4310236999881,None,,,939.4470412999508,939.4470412999508,939.4470412999508,2.0530631000292487,0.1509949999745004,,,,,,,,,,00046,001,2026-01-18_11h15.02.395,MST_task,2024.2.0,60.10164390449534,2026-01-18 11h15.17.191840 +0530,
,Objects\220a.jpg,117,0,118,,,,,,,j,None,,,1.6409255000180565,0.19869539997307584,,,,118,0,117,939.4470412999508,,,,,,,,,,,,,,,,,,,,,,,939.4310889999615,939.4470412999508,939.947370299953,939.9305865999777,,,,,,,,,,,,,,,,,,,,,,,,,,939.9334607999772,939.947370299953,939.947370299953,939.947370299953,942.9311926999944,indoor,j,942.9312465999974,,,942.9312602999853,None,,,942.9471464999951,942.9471464999951,942.9471464999951,1.6409255000180565,0.19869539997307584,,,,,,,,,,00046,001,2026-01-18_11h15.02.395,MST_task,2024.2.0,60.10164390449534,2026-01-18 11h15.17.191840 +0530,
,Objects\181a.jpg,118,0,119,,,,,,,j,None,,,1.0516216999967583,0.2400076999911107,,,,119,0,118,942.9471464999951,,,,,,,,,,,,,,,,,,,,,,,942.9313326999545,942.9471464999951,943.4473750999896,943.4306868999847,,,,,,,,,,,,,,,,,,,,,,,,,,943.4340130999917,943.4473750999896,943.4473750999896,943.4473750999896,946.4309751999681,indoor,j,946.4310177000007,,,946.4310294999741,None,,,946.4470173999434,946.4470173999434,946.4470173999434,1.0516216999967583,0.2400076999911107,,,,,,,,,,00046,001,2026-01-18_11h15.02.395,MST_task,2024.2.0,60.10164390449534,2026-01-18 11h15.17.191840 +0530,
,Objects\135a.jpg,119,0,120,,,,,,,None,f,0.26401779998559505,None,,,,,,120,0,119,946.4470173999434,,,,,,,,,,,,,,,,,,,,,,,946.4310938999988,946.4470173999434,946.9470807999605,946.9304269999848,,,,,,,,,,,,,,,,,,,,,,,,,,946.9428826999501,946.9470807999605,946.9470807999605,946.9470807999605,949.930868299969,shoe,None,949.9329773999634,949.9470305999857,949.9470305999857,950.2141147999791,f,0.26401779998559505,None,949.9470305999857,949.9470305999857,949.9470305999857,,,,,,,,,,,,00046,001,2026-01-18_11h15.02.395,MST_task,2024.2.0,60.10164390449534,2026-01-18 11h15.17.191840 +0530,
,Objects\281a.jpg,120,0,121,,,,,,,f,None,,,2.408590299950447,0.15164830000139773,,,,121,0,120,950.2303323999513,,,,,,,,,,,,,,,,,,,,,,,950.2142298999825,950.2303323999513,950.7307436999981,950.7139358999557,,,,,,,,,,,,,,,,,,,,,,,,,,950.7267650999711,950.7307436999981,950.7307436999981,950.7307436999981,953.7143217999837,shoe,f,953.7143615999958,,,953.714373899973,None,,,953.7302705999464,953.7302705999464,953.7302705999464,2.408590299950447,0.15164830000139773,,,,,,,,,,00046,001,2026-01-18_11h15.02.395,MST_task,2024.2.0,60.10164390449534,2026-01-18 11h15.17.191840 +0530,
,Objects\188a.jpg,121,0,122,,,,,,,f,None,,,2.301141200005077,0.19989469996653497,,,,122,0,121,953.7302705999464,,,,,,,,,,,,,,,,,,,,,,,953.7144369999878,953.7302705999464,954.2304832999944,954.2138284999528,,,,,,,,,,,,,,,,,,,,,,,,,,954.2173427999951,954.2304832999944,954.2304832999944,954.2304832999944,957.2141186999506,shoe,f,957.2141607999802,,,957.2141726999544,None,,,957.230165099958,957.230165099958,957.230165099958,2.301141200005077,0.19989469996653497,,,,,,,,,,00046,001,2026-01-18_11h15.02.395,MST_task,2024.2.0,60.10164390449534,2026-01-18 11h15.17.191840 +0530,
,Objects\140a.jpg,122,0,123,,,,,,,None,f,0.4578560999943875,None,,,,,,123,0,122,957.230165099958,,,,,,,,,,,,,,,,,,,,,,,957.2142675999785,957.230165099958,957.7304048999795,957.7138218999607,,,,,,,,,,,,,,,,,,,,,,,,,,957.7162861999823,957.7304048999795,957.7304048999795,957.7304048999795,960.7141391999903,shoe,None,960.7141745999688,960.7301147999824,960.7301147999824,961.1974870999693,f,0.4578560999943875,None,960.7301147999824,960.7301147999824,960.7301147999824,,,,,,,,,,,,00046,001,2026-01-18_11h15.02.395,MST_task,2024.2.0,60.10164390449534,2026-01-18 11h15.17.191840 +0530,
,Objects\166a.jpg,123,0,124,,,,,,,f,None,,,2.409587000031024,0.1600773999816738,,,,124,0,123,961.2135596999433,,,,,,,,,,,,,,,,,,,,,,,961.1975720999762,961.2135596999433,961.7137510999455,961.6971496999613,,,,,,,,,,,,,,,,,,,,,,,,,,961.7067613999825,961.7137510999455,961.7137510999455,961.7137510999455,964.6974230999476,shoe,f,964.6974662999855,,,964.6974793999689,None,,,964.7135957999853,964.7135957999853,964.7135957999853,2.409587000031024,0.1600773999816738,,,,,,,,,,00046,001,2026-01-18_11h15.02.395,MST_task,2024.2.0,60.10164390449534,2026-01-18 11h15.17.191840 +0530,
,Objects\378a.jpg,124,0,125,,,,,,,None,f,1.1580988999921829,None,,,,,,125,0,124,964.7135957999853,,,,,,,,,,,,,,,,,,,,,,,964.6975854999619,964.7135957999853,965.2139106999966,965.1974823999917,,,,,,,,,,,,,,,,,,,,,,,,,,965.2100869999849,965.2139106999966,965.2139106999966,965.2139106999966,968.1974323999602,shoe,None,968.1974712999654,968.213519699988,968.213519699988,969.3806856999872,f,1.1580988999921829,None,968.213519699988,968.213519699988,968.213519699988,,,,,,,,,,,,00046,001,2026-01-18_11h15.02.395,MST_task,2024.2.0,60.10164390449534,2026-01-18 11h15.17.191840 +0530,
,Objects\127a.jpg,125,0,126,,,,,,,f,None,,,1.9547407999634743,0.17564720002701506,,,,126,0,125,969.3968985999818,,,,,,,,,,,,,,,,,,,,,,,969.3807720999466,969.3968985999818,969.8971336999675,969.8804985999595,,,,,,,,,,,,,,,,,,,,,,,,,,969.8835442999844,969.8971336999675,969.8971336999675,969.8971336999675,972.8808045999613,shoe,f,972.8808474999969,,,972.8808607999817,None,,,972.8969029999571,972.8969029999571,972.8969029999571,1.9547407999634743,0.17564720002701506,,,,,,,,,,00046,001,2026-01-18_11h15.02.395,MST_task,2024.2.0,60.10164390449534,2026-01-18 11h15.17.191840 +0530,
,Objects\206a.jpg,126,0,127,,,,,,,j,None,,,2.109682200010866,0.20059839996974915,,,,127,0,126,972.8969029999571,,,,,,,,,,,,,,,,,,,,,,,972.8809255999513,972.8969029999571,973.3973457999527,973.380427600001,,,,,,,,,,,,,,,,,,,,,,,,,,973.384926699975,973.3973457999527,973.3973457999527,973.3973457999527,976.3807753999718,indoor,j,976.382526899979,,,976.3825457999483,None,,,976.3969679999864,976.3969679999864,976.3969679999864,2.109682200010866,0.20059839996974915,,,,,,,,,,00046,001,2026-01-18_11h15.02.395,MST_task,2024.2.0,60.10164390449534,2026-01-18 11h15.17.191840 +0530,
,Objects\051a.jpg,127,0,128,,,,,,,None,j,3.4660525000072084,None,,,,,,128,0,127,976.3969679999864,,,,,,,,,,,,,,,,,,,,,,,976.3826181999757,976.3969679999864,976.8972317999578,976.8805870999931,,,,,,,,,,,,,,,,,,,,,,,,,,976.883958099992,976.8972317999578,976.8972317999578,976.8972317999578,979.8806095999898,indoor,None,979.8806464999798,979.8969185999595,979.8969185999595,983.3639939999557,j,3.4660525000072084,None,979.8969185999595,979.8969185999595,979.8969185999595,,,,,,,,,,,,00046,001,2026-01-18_11h15.02.395,MST_task,2024.2.0,60.10164390449534,2026-01-18 11h15.17.191840 +0530,
,Objects\120a.jpg,128,0,129,,,,,,,None,f,0.6273267000215128,None,,,,,,129,0,128,983.3801552999648,,,,,,,,,,,,,,,,,,,,,,,983.3640795999672,983.3801552999648,983.8803906999528,983.8638060999801,,,,,,,,,,,,,,,,,,,,,,,,,,983.8667172999703,983.8803906999528,983.8803906999528,983.8803906999528,986.8640899999882,indoor,None,986.8641275999835,986.8801270999829,986.8801270999829,987.5139132999466,f,0.6273267000215128,None,986.8801270999829,986.8801270999829,986.8801270999829,,,,,,,,,,,,00046,001,2026-01-18_11h15.02.395,MST_task,2024.2.0,60.10164390449534,2026-01-18 11h15.17.191840 +0530,
,Objects\251a.jpg,129,0,130,,,,,,,None,f,0.10919220000505447,None,,,,,,130,0,129,987.5301753999665,,,,,,,,,,,,,,,,,,,,,,,987.5139987999573,987.5301753999665,988.030493499944,988.0140187999932,,,,,,,,,,,,,,,,,,,,,,,,,,988.0165452999645,988.030493499944,988.030493499944,988.030493499944,991.0141007999773,indoor,None,991.0141421999433,991.0301292999648,991.0301292999648,991.1474302999559,f,0.10919220000505447,None,991.0301292999648,991.0301292999648,991.0301292999648,,,,,,,,,,,,00046,001,2026-01-18_11h15.02.395,MST_task,2024.2.0,60.10164390449534,2026-01-18 11h15.17.191840 +0530,
,Objects\382a.jpg,130,0,131,,,,,,,None,j,0.22034369996981695,None,,,,,,131,0,130,991.1635047999443,,,,,,,,,,,,,,,,,,,,,,,991.1475121999974,991.1635047999443,991.6639498999575,991.6472248999635,,,,,,,,,,,,,,,,,,,,,,,,,,991.6506825999822,991.6639498999575,991.6639498999575,991.6639498999575,994.6473776999628,indoor,None,994.6474161999649,994.6635839999653,994.6635839999653,994.8973399999668,j,0.22034369996981695,None,994.6635839999653,994.6635839999653,994.6635839999653,,,,,,,,,,,,00046,001,2026-01-18_11h15.02.395,MST_task,2024.2.0,60.10164390449534,2026-01-18 11h15.17.191840 +0530,
,Objects\133a.jpg,131,0,132,,,,,,,None,j,0.06154089997289702,None,,,,,,132,0,131,994.9135816999478,,,,,,,,,,,,,,,,,,,,,,,994.8974303999566,994.9135816999478,995.4140390999964,995.397177399951,,,,,,,,,,,,,,,,,,,,,,,,,,995.4080359999789,995.4140390999964,995.4140390999964,995.4140390999964,998.3975096999784,indoor,None,998.3975488999858,998.4135220999597,998.4135220999597,998.4805802999763,j,0.06154089997289702,None,998.4135220999597,998.4135220999597,998.4135220999597,,,,,,,,,,,,00046,001,2026-01-18_11h15.02.395,MST_task,2024.2.0,60.10164390449534,2026-01-18 11h15.17.191840 +0530,
,Objects\202a.jpg,132,0,133,,,,,,,j,None,,,1.2058351000305265,0.199998099997174,,,,133,0,132,998.4969155999715,,,,,,,,,,,,,,,,,,,,,,,998.480663299968,998.4969155999715,998.9972653999575,998.9803644999629,,,,,,,,,,,,,,,,,,,,,,,,,,998.9832633999758,998.9972653999575,998.9972653999575,998.9972653999575,1001.9809344999958,indoor,j,1001.9809777999762,,,1001.9809908999596,None,,,1001.9969401999842,1001.9969401999842,1001.9969401999842,1.2058351000305265,0.199998099997174,,,,,,,,,,00046,001,2026-01-18_11h15.02.395,MST_task,2024.2.0,60.10164390449534,2026-01-18 11h15.17.191840 +0530,
,Objects\121a.jpg,133,0,134,,,,,,,f,None,,,1.9697868999792263,0.20824880001600832,,,,134,0,133,1001.9969401999842,,,,,,,,,,,,,,,,,,,,,,,1001.981055399985,1001.9969401999842,1002.4972283999668,1002.4804608999984,,,,,,,,,,,,,,,,,,,,,,,,,,1002.4931791999843,1002.4972283999668,1002.4972283999668,1002.4972283999668,1005.4808209999464,shoe,f,1005.4829995999462,,,1005.4830174999661,None,,,1005.4969430999481,1005.4969430999481,1005.4969430999481,1.9697868999792263,0.20824880001600832,,,,,,,,,,00046,001,2026-01-18_11h15.02.395,MST_task,2024.2.0,60.10164390449534,2026-01-18 11h15.17.191840 +0530,
,Objects\285a.jpg,134,0,135,,,,,,,f,None,,,1.718375000054948,0.20793869998306036,,,,135,0,134,1005.4969430999481,,,,,,,,,,,,,,,,,,,,,,,1005.4830862999661,1005.4969430999481,1005.9971705999924,1005.9805779999588,,,,,,,,,,,,,,,,,,,,,,,,,,1005.9838253999478,1005.9971705999924,1005.9971705999924,1005.9971705999924,1008.980651299993,shoe,f,1008.9806953999796,,,1008.9807075999561,None,,,1008.9969178999891,1008.9969178999891,1008.9969178999891,1.718375000054948,0.20793869998306036,,,,,,,,,,00046,001,2026-01-18_11h15.02.395,MST_task,2024.2.0,60.10164390449534,2026-01-18 11h15.17.191840 +0530,
,Objects\057a.jpg,135,0,136,,,,,,,None,f,1.6430295999743976,None,,,,,,136,0,135,1008.9969178999891,,,,,,,,,,,,,,,,,,,,,,,1008.9807715999777,1008.9969178999891,1009.4972139999736,1009.4803762999945,,,,,,,,,,,,,,,,,,,,,,,,,,1009.4832499999902,1009.4972139999736,1009.4972139999736,1009.4972139999736,1012.4807103999774,shoe,None,1012.4807483999757,1012.4969289999572,1012.4969289999572,1014.1473210999975,f,1.6430295999743976,None,1012.4969289999572,1012.4969289999572,1012.4969289999572,,,,,,,,,,,,00046,001,2026-01-18_11h15.02.395,MST_task,2024.2.0,60.10164390449534,2026-01-18 11h15.17.191840 +0530,
,Objects\231a.jpg,136,0,137,,,,,,,j,None,,,1.259265900007449,0.20003260002704337,,,,137,0,136,1014.1635500999982,,,,,,,,,,,,,,,,,,,,,,,1014.1474171999726,1014.1635500999982,1014.6639358999673,1014.6470865999581,,,,,,,,,,,,,,,,,,,,,,,,,,1014.649707799952,1014.6639358999673,1014.6639358999673,1014.6639358999673,1017.6475522999535,shoe,j,1017.6475951999892,,,1017.647608099971,None,,,1017.6637446999666,1017.6637446999666,1017.6637446999666,1.259265900007449,0.20003260002704337,,,,,,,,,,00046,001,2026-01-18_11h15.02.395,MST_task,2024.2.0,60.10164390449534,2026-01-18 11h15.17.191840 +0530,
,Objects\092a.jpg,137,0,138,,,,,,,None,f,3.480205699976068,None,,,,,,138,0,137,1017.6637446999666,,,,,,,,,,,,,,,,,,,,,,,1017.6476715999888,1017.6637446999666,1018.1640776999993,1018.1473667999962,,,,,,,,,,,,,,,,,,,,,,,,,,1018.1510358999949,1018.1640776999993,1018.1640776999993,1018.1640776999993,1021.1477611999726,shoe,None,1021.1478088999866,1021.1637253999943,1021.1637253999943,1024.64741949999,f,3.480205699976068,None,1021.1637253999943,1021.1637253999943,1021.1637253999943,,,,,,,,,,,,00046,001,2026-01-18_11h15.02.395,MST_task,2024.2.0,60.10164390449534,2026-01-18 11h15.17.191840 +0530,
,Objects\078a.jpg,138,0,139,,,,,,,None,j,1.5912281000055373,None,,,,,,139,0,138,1024.6637036999455,,,,,,,,,,,,,,,,,,,,,,,1024.647540099977,1024.6637036999455,1025.1639307999867,1025.1473035999807,,,,,,,,,,,,,,,,,,,,,,,,,,1025.1503487999435,1025.1639307999867,1025.1639307999867,1025.1639307999867,1028.1475092999754,shoe,None,1028.1475460999645,1028.1636913999682,1028.1636913999682,1029.7641575999442,j,1.5912281000055373,None,1028.1636913999682,1028.1636913999682,1028.1636913999682,,,,,,,,,,,,00046,001,2026-01-18_11h15.02.395,MST_task,2024.2.0,60.10164390449534,2026-01-18 11h15.17.191840 +0530,
,Objects\324a.jpg,139,0,140,,,,,,,None,f,0.7546234999899752,None,,,,,,140,0,139,1029.7801148999715,,,,,,,,,,,,,,,,,,,,,,,1029.764248499996,1029.7801148999715,1030.2807801999734,1030.2639484999818,,,,,,,,,,,,,,,,,,,,,,,,,,1030.2677935999818,1030.2807801999734,1030.2807801999734,1030.2807801999734,1033.2641231999733,shoe,None,1033.2641603999655,1033.2803585999645,1033.2803585999645,1034.047444899974,f,0.7546234999899752,None,1033.2803585999645,1033.2803585999645,1033.2803585999645,,,,,,,,,,,,00046,001,2026-01-18_11h15.02.395,MST_task,2024.2.0,60.10164390449534,2026-01-18 11h15.17.191840 +0530,
,Objects\104a.jpg,140,0,141,,,,,,,None,j,1.8235290999873541,None,,,,,,141,0,140,1034.063658799976,,,,,,,,,,,,,,,,,,,,,,,1034.047581199964,1034.063658799976,1034.564254399971,1034.5471760999644,,,,,,,,,,,,,,,,,,,,,,,,,,1034.5606762999669,1034.564254399971,1034.564254399971,1034.564254399971,1037.547502399946,indoor,None,1037.5491610999452,1037.563734299969,1037.563734299969,1039.3974690999603,j,1.8235290999873541,None,1037.563734299969,1037.563734299969,1037.563734299969,,,,,,,,,,,,00046,001,2026-01-18_11h15.02.395,MST_task,2024.2.0,60.10164390449534,2026-01-18 11h15.17.191840 +0530,
,Objects\082a.jpg,141,0,142,,,,,,,None,j,2.1937200999818742,None,,,,,,142,0,141,1039.4136932999827,,,,,,,,,,,,,,,,,,,,,,,1039.3975585000007,1039.4136932999827,1039.9139341999544,1039.8972042999812,,,,,,,,,,,,,,,,,,,,,,,,,,1039.900307199976,1039.9139341999544,1039.9139341999544,1039.9139341999544,1042.8975886999979,indoor,None,1042.8976279999479,1042.9136888999492,1042.9136888999492,1045.1140503999777,j,2.1937200999818742,None,1042.9136888999492,1042.9136888999492,1042.9136888999492,,,,,,,,,,,,00046,001,2026-01-18_11h15.02.395,MST_task,2024.2.0,60.10164390449534,2026-01-18 11h15.17.191840 +0530,
,Objects\027a.jpg,142,0,143,,,,,,,f,None,,,1.4528580000041984,0.23193589999573305,,,,143,0,142,1045.1303529999568,,,,,,,,,,,,,,,,,,,,,,,1045.1141387999523,1045.1303529999568,1045.630488499999,1045.6140338999685,,,,,,,,,,,,,,,,,,,,,,,,,,1045.6172199999564,1045.630488499999,1045.630488499999,1045.630488499999,1048.6146265999996,indoor,f,1048.6146761999698,,,1048.614693599986,None,,,1048.6302040999872,1048.6302040999872,1048.6302040999872,1.4528580000041984,0.23193589999573305,,,,,,,,,,00046,001,2026-01-18_11h15.02.395,MST_task,2024.2.0,60.10164390449534,2026-01-18 11h15.17.191840 +0530,
,Objects\175a.jpg,143,0,144,,,,,,,None,f,1.649237199977506,None,,,,,,144,0,143,1048.6302040999872,,,,,,,,,,,,,,,,,,,,,,,1048.6147613999783,1048.6302040999872,1049.1304012999753,1049.1140062999912,,,,,,,,,,,,,,,,,,,,,,,,,,1049.1168859999743,1049.1304012999753,1049.1304012999753,1049.1304012999753,1052.1140679999953,indoor,None,1052.1141048999853,1052.1302373999497,1052.1302373999497,1053.7805769999977,f,1.649237199977506,None,1052.1302373999497,1052.1302373999497,1052.1302373999497,,,,,,,,,,,,00046,001,2026-01-18_11h15.02.395,MST_task,2024.2.0,60.10164390449534,2026-01-18 11h15.17.191840 +0530,
,Objects\295a.jpg,144,0,145,,,,,,,None,f,3.466433599998709,None,,,,,,145,0,144,1053.7969211999443,,,,,,,,,,,,,,,,,,,,,,,1053.7806615999434,1053.7969211999443,1054.2974119999562,1054.2804335999535,,,,,,,,,,,,,,,,,,,,,,,,,,1054.283981799963,1054.2974119999562,1054.2974119999562,1054.2974119999562,1057.2807564999675,indoor,None,1057.2808006999549,1057.2968708999688,1057.2968708999688,1060.7640158999711,f,3.466433599998709,None,,,,,,,,,,,,,,,00046,001,2026-01-18_11h15.02.395,MST_task,2024.2.0,60.10164390449534,2026-01-18 11h15.17.191840 +0530,
,Objects\128a.jpg,145,0,146,,,,,,,None,j,0.875169700011611,None,,,,,,146,0,145,1060.780204199953,,,,,,,,,,,,,,,,,,,,,,,1060.7641020999872,1060.780204199953,1061.2806197999744,1061.263840199972,,,,,,,,,,,,,,,,,,,,,,,,,,1061.267201599956,1061.2806197999744,1061.2806197999744,1061.2806197999744,1064.2642196999514,indoor,None,1064.264269199979,1064.2802772999858,1064.2802772999858,1065.1642005999456,j,0.875169700011611,None,1064.2802772999858,1064.2802772999858,1064.2802772999858,,,,,,,,,,,,00046,001,2026-01-18_11h15.02.395,MST_task,2024.2.0,60.10164390449534,2026-01-18 11h15.17.191840 +0530,
,Objects\277a.jpg,146,0,147,,,,,,,None,j,2.403095400019083,None,,,,,,147,0,146,1065.1801089999499,,,,,,,,,,,,,,,,,,,,,,,1065.1642875999678,1065.1801089999499,1065.6806432999438,1065.6638420999516,,,,,,,,,,,,,,,,,,,,,,,,,,1065.6667773999507,1065.6806432999438,1065.6806432999438,1065.6806432999438,1068.664137899992,indoor,None,1068.664177599945,1068.680215100001,1068.680215100001,1071.0974683999666,j,2.403095400019083,None,1068.680215100001,1068.680215100001,1068.680215100001,,,,,,,,,,,,00046,001,2026-01-18_11h15.02.395,MST_task,2024.2.0,60.10164390449534,2026-01-18 11h15.17.191840 +0530,
,Objects\149a.jpg,147,0,148,,,,,,,None,j,4.693984700017609,None,,,,,,148,0,147,1071.113539699989,,,,,,,,,,,,,,,,,,,,,,,1071.0975537999766,1071.113539699989,1071.6139719999628,1071.5973460999667,,,,,,,,,,,,,,,,,,,,,,,,,,1071.6032484999741,1071.6139719999628,1071.6139719999628,1071.6139719999628,1074.5976042999537,shoe,None,1074.5999478999875,1074.6136650999542,1074.6136650999542,1079.3140294999466,j,4.693984700017609,None,1074.6136650999542,1074.6136650999542,1074.6136650999542,,,,,,,,,,,,00046,001,2026-01-18_11h15.02.395,MST_task,2024.2.0,60.10164390449534,2026-01-18 11h15.17.191840 +0530,
,Objects\204a.jpg,148,0,149,,,,,,,f,None,,,2.1888487999676727,0.200112100050319,,,,149,0,148,1079.3301468999707,,,,,,,,,,,,,,,,,,,,,,,1079.3141589999432,1079.3301468999707,1079.8304352999548,1079.8138400999596,,,,,,,,,,,,,,,,,,,,,,,,,,1079.817032699997,1079.8304352999548,1079.8304352999548,1079.8304352999548,1082.8141728999908,shoe,f,1082.814211799996,,,1082.8142238999717,None,,,1082.8301049000002,1082.8301049000002,1082.8301049000002,2.1888487999676727,0.200112100050319,,,,,,,,,,00046,001,2026-01-18_11h15.02.395,MST_task,2024.2.0,60.10164390449534,2026-01-18 11h15.17.191840 +0530,
,Objects\171a.jpg,149,0,150,,,,,,,None,j,0.00885720003861934,None,,,,,,150,0,149,1082.8301049000002,,,,,,,,,,,,,,,,,,,,,,,1082.8142888000002,1082.8301049000002,1083.3304597999668,1083.3138316999539,,,,,,,,,,,,,,,,,,,,,,,,,,1083.3235274999752,1083.3304597999668,1083.3304597999668,1083.3304597999668,1086.3140627999674,shoe,None,1086.3140994999558,1086.3301768999663,1086.3301768999663,1086.3474022999872,j,0.00885720003861934,None,1086.3301768999663,1086.3301768999663,1086.3301768999663,,,,,,,,,,,,00046,001,2026-01-18_11h15.02.395,MST_task,2024.2.0,60.10164390449534,2026-01-18 11h15.17.191840 +0530,
,Objects\068a.jpg,150,0,151,,,,,,,None,f,6.891300600022078,None,,,,,,151,0,150,1086.363588499953,,,,,,,,,,,,,,,,,,,,,,,1086.3475159999798,1086.363588499953,1086.863799499988,1086.847225399979,,,,,,,,,,,,,,,,,,,,,,,,,,1086.8500948,1086.863799499988,1086.863799499988,1086.863799499988,1089.8476176999975,shoe,None,1089.8476568999467,1089.8636743999668,1089.8636743999668,1096.7641719999956,f,6.891300600022078,None,1089.8636743999668,1089.8636743999668,1089.8636743999668,,,,,,,,,,,,00046,001,2026-01-18_11h15.02.395,MST_task,2024.2.0,60.10164390449534,2026-01-18 11h15.17.191840 +0530,
,Objects\138a.jpg,151,0,152,,,,,,,j,None,,,2.4109817999997176,0.17623709997860715,,,,152,0,151,1096.780124299985,,,,,,,,,,,,,,,,,,,,,,,1096.7642568999436,1096.780124299985,1097.2802928999881,1097.2638581999927,,,,,,,,,,,,,,,,,,,,,,,,,,1097.2752409999957,1097.2802928999881,1097.2802928999881,1097.2802928999881,1100.264074399951,shoe,j,1100.2641181999934,,,1100.2641304999706,None,,,1100.2802309999825,1100.2802309999825,1100.2802309999825,2.4109817999997176,0.17623709997860715,,,,,,,,,,00046,001,2026-01-18_11h15.02.395,MST_task,2024.2.0,60.10164390449534,2026-01-18 11h15.17.191840 +0530,
,Objects\151a.jpg,152,0,153,,,,,,,f,None,,,2.879268200020306,None,,,,153,0,152,1100.2802309999825,,,,,,,,,,,,,,,,,,,,,,,1100.2642262000008,1100.2802309999825,1100.7803899999708,1100.763783399947,,,,,,,,,,,,,,,,,,,,,,,,,,1100.766496199998,1100.7803899999708,1100.7803899999708,1100.7803899999708,1103.7642924999818,shoe,f,1103.7643365999684,,,1103.764349599951,None,,,1103.78020379995,1103.78020379995,1103.78020379995,2.879268200020306,None,,,,,,,,,,00046,001,2026-01-18_11h15.02.395,MST_task,2024.2.0,60.10164390449534,2026-01-18 11h15.17.191840 +0530,
,Objects\037a.jpg,153,0,154,,,,,,,f,None,,,2.594608800020069,0.18398580001667142,,,,154,0,153,1103.78020379995,,,,,,,,,,,,,,,,,,,,,,,1103.764414699981,1103.78020379995,1104.2804662999697,1104.2638896999997,,,,,,,,,,,,,,,,,,,,,,,,,,1104.2668825999717,1104.2804662999697,1104.2804662999697,1104.2804662999697,1107.2640875999932,shoe,f,1107.264129499963,,,1107.2641412999947,None,,,1107.2801362999598,1107.2801362999598,1107.2801362999598,2.594608800020069,0.18398580001667142,,,,,,,,,,00046,001,2026-01-18_11h15.02.395,MST_task,2024.2.0,60.10164390449534,2026-01-18 11h15.17.191840 +0530,
,Objects\381a.jpg,154,0,155,,,,,,,None,f,1.9515981000149623,None,,,,,,155,0,154,1107.2801362999598,,,,,,,,,,,,,,,,,,,,,,,1107.2642367999651,1107.2801362999598,1107.7806209999835,1107.7638417999842,,,,,,,,,,,,,,,,,,,,,,,,,,1107.775859299989,1107.7806209999835,1107.7806209999835,1107.7806209999835,1110.7642236999818,indoor,None,1110.765933699964,1110.780129599967,1110.780129599967,1112.7472939,f,1.9515981000149623,None,1110.780129599967,1110.780129599967,1110.780129599967,,,,,,,,,,,,00046,001,2026-01-18_11h15.02.395,MST_task,2024.2.0,60.10164390449534,2026-01-18 11h15.17.191840 +0530,
,Objects\287a.jpg,155,0,156,,,,,,,f,None,,,2.643746600020677,0.1679973999853246,,,,156,0,155,1112.763589899987,,,,,,,,,,,,,,,,,,,,,,,1112.747379999957,1112.763589899987,1113.2639945999836,1113.2472235999885,,,,,,,,,,,,,,,,,,,,,,,,,,1113.2497036999557,1113.2639945999836,1113.2639945999836,1113.2639945999836,1116.2473989999853,indoor,f,1116.2474414999597,,,1116.2474536999944,None,,,1116.2636235999526,1116.2636235999526,1116.2636235999526,2.643746600020677,0.1679973999853246,,,,,,,,,,00046,001,2026-01-18_11h15.02.395,MST_task,2024.2.0,60.10164390449534,2026-01-18 11h15.17.191840 +0530,
,Objects\253a.jpg,156,0,157,,,,,,,f,None,,,1.4877492999657989,0.18496040004538372,,,,157,0,156,1116.2636235999526,,,,,,,,,,,,,,,,,,,,,,,1116.2475181999616,1116.2636235999526,1116.7639816999435,1116.7471723999479,,,,,,,,,,,,,,,,,,,,,,,,,,1116.7507122999523,1116.7639816999435,1116.7639816999435,1116.7639816999435,1119.7474316000007,indoor,f,1119.7474723999621,,,1119.7474841999938,None,,,1119.7636195999803,1119.7636195999803,1119.7636195999803,1.4877492999657989,0.18496040004538372,,,,,,,,,,00046,001,2026-01-18_11h15.02.395,MST_task,2024.2.0,60.10164390449534,2026-01-18 11h15.17.191840 +0530,
