thisN,thisTrialN,thisRepN,key_resp_3.keys,key_resp_3.rt,key_resp_3.duration,trials.thisRepN,trials.thisTrialN,trials.thisN,thisRow.t,notes,intro_page.started,text.started,key_resp.started,intro_page.stopped,key_resp.keys,key_resp.rt,key_resp.duration,instructions.started,text_2.started,key_resp_2.started,instructions.stopped,key_resp_2.keys,key_resp_2.rt,key_resp_2.duration,demo1.started,image_1.started,image_2.started,text_7.started,key_resp_6.started,text_9.started,demo1.stopped,key_resp_6.keys,key_resp_6.rt,key_resp_6.duration,demo3.started,image_5.started,image_6.started,text_11.started,text_12.started,key_resp_8.started,demo3.stopped,key_resp_8.keys,key_resp_8.rt,key_resp_8.duration,demo_conclusion.started,text_13.started,key_resp_9.started,demo_conclusion.stopped,key_resp_9.keys,key_resp_9.rt,key_resp_9.duration,start_test.started,text_6.started,key_resp_5.started,start_test.stopped,key_resp_5.keys,key_resp_5.rt,key_resp_5.duration,ISI.started,text_4.started,ISI.stopped,routine_1.started,image.started,text_3.started,key_resp_3.started,routine_1.stopped,image_path,position_of_stimuli,trials.key_resp_3.keys,trials.key_resp_3.rt,trials.key_resp_3.duration,text_4.stopped,End_page.started,text_5.started,key_resp_4.started,End_page.stopped,key_resp_4.keys,key_resp_4.rt,key_resp_4.duration,participant,session,date,expName,psychopyVersion,frameRate,expStart,
,,,,,,,,,,,0.01652120001381263,0.03293119999580085,0.03293119999580085,2.964093899994623,space,2.915188900020439,None,,,,,,,,,,,,,,,,,,,,,,,,,,,,,,,,,,,,,,,,,,,,,,,,,,,,,,,,,,,,,,,00041,001,2026-01-17_16h10.49.006,MST_test,2024.2.0,59.779616465013575,2026-01-17 16h11.02.568917 +0530,
,,,,,,,,,,,,,,,,,,2.964127900020685,2.994815100042615,2.994815100042615,12.763668300001882,space,9.753825700026937,None,,,,,,,,,,,,,,,,,,,,,,,,,,,,,,,,,,,,,,,,,,,,,,,,,,,,,,,,00041,001,2026-01-17_16h10.49.006,MST_test,2024.2.0,59.779616465013575,2026-01-17 16h11.02.568917 +0530,
,,,,,,,,,,,,,,,,,,,,,,,,,12.763698800001293,12.779674499994144,12.779674499994144,12.779674499994144,12.779674499994144,12.779674499994144,17.16189069999382,space,4.376530599955004,None,,,,,,,,,,,,,,,,,,,,,,,,,,,,,,,,,,,,,,,,,,,,,,00041,001,2026-01-17_16h10.49.006,MST_test,2024.2.0,59.779616465013575,2026-01-17 16h11.02.568917 +0530,
,,,,,,,,,,,,,,,,,,,,,,,,,,,,,,,,,,,17.161918200028595,17.17826650000643,17.17826650000643,17.17826650000643,17.17826650000643,17.17826650000643,19.01855640002759,space,1.8340815999545157,None,,,,,,,,,,,,,,,,,,,,,,,,,,,,,,,,,,,,00041,001,2026-01-17_16h10.49.006,MST_test,2024.2.0,59.779616465013575,2026-01-17 16h11.02.568917 +0530,
,,,,,,,,,,,,,,,,,,,,,,,,,,,,,,,,,,,,,,,,,,,,,19.01858450000873,19.034510000026785,19.034510000026785,29.237516099994536,space,10.1940110999858,None,,,,,,,,,,,,,,,,,,,,,,,,,,,,,00041,001,2026-01-17_16h10.49.006,MST_test,2024.2.0,59.779616465013575,2026-01-17 16h11.02.568917 +0530,
,,,,,,,,,,,,,,,,,,,,,,,,,,,,,,,,,,,,,,,,,,,,,,,,,,,,29.237550400022883,29.27049339999212,29.27049339999212,94.65008450002642,space,65.37395180005115,None,,,,,,,,,,,,,,,,,,,,,,00041,001,2026-01-17_16h10.49.006,MST_test,2024.2.0,59.779616465013575,2026-01-17 16h11.02.568917 +0530,
0,0,1,s,5.68237210001098,None,1,0,0,94.66615710000042,,,,,,,,,,,,,,,,,,,,,,,,,,,,,,,,,,,,,,,,,,,,,,,,,,94.65343080001185,94.66615710000042,95.15114370000083,95.1730341000366,95.18564010004047,95.18564010004047,95.18564010004047,100.8720368000213,Objects\188b.jpg,pre,s,5.68237210001098,None,,,,,,,,,00041,001,2026-01-17_16h10.49.006,MST_test,2024.2.0,59.779616465013575,2026-01-17 16h11.02.568917 +0530,
1,0,2,o,5.285487900022417,None,2,0,1,100.88783329998842,,,,,,,,,,,,,,,,,,,,,,,,,,,,,,,,,,,,,,,,,,,,,,,,,,100.87213390000397,100.88783329998842,101.37303650000831,101.38214380003046,101.40715250000358,101.40715250000358,101.40715250000358,106.70888550003292,Objects\240a.jpg,mid,o,5.285487900022417,None,,,,,,,,,00041,001,2026-01-17_16h10.49.006,MST_test,2024.2.0,59.779616465013575,2026-01-17 16h11.02.568917 +0530,
2,0,3,n,3.289096500026062,None,3,0,2,106.72504390001995,,,,,,,,,,,,,,,,,,,,,,,,,,,,,,,,,,,,,,,,,,,,,,,,,,106.7089769000304,106.72504390001995,107.21002609998686,107.21830700000282,107.2435339000076,107.2435339000076,107.2435339000076,110.53886130003957,Foils\074a.jpg,none,n,3.289096500026062,None,,,,,,,,,00041,001,2026-01-17_16h10.49.006,MST_test,2024.2.0,59.779616465013575,2026-01-17 16h11.02.568917 +0530,
3,0,4,o,1.2206779000116512,None,4,0,3,110.5551284000394,,,,,,,,,,,,,,,,,,,,,,,,,,,,,,,,,,,,,,,,,,,,,,,,,,110.53895690001082,110.5551284000394,111.04010010004276,111.04287649999605,111.05687750002835,111.05687750002835,111.05687750002835,112.27840740000829,Foils\066a.jpg,none,o,1.2206779000116512,None,,,,,,,,,00041,001,2026-01-17_16h10.49.006,MST_test,2024.2.0,59.779616465013575,2026-01-17 16h11.02.568917 +0530,
4,0,5,o,1.6957390999887139,None,5,0,4,112.29508509999141,,,,,,,,,,,,,,,,,,,,,,,,,,,,,,,,,,,,,,,,,,,,,,,,,,112.2785013000248,112.29508509999141,112.7795261000283,112.78220539999893,112.79629840003327,112.79629840003327,112.79629840003327,114.50271850003628,Objects\020a.jpg,pre,o,1.6957390999887139,None,,,,,,,,,00041,001,2026-01-17_16h10.49.006,MST_test,2024.2.0,59.779616465013575,2026-01-17 16h11.02.568917 +0530,
5,0,6,n,2.775392199982889,None,6,0,5,114.51889810001012,,,,,,,,,,,,,,,,,,,,,,,,,,,,,,,,,,,,,,,,,,,,,,,,,,114.50281330000143,114.51889810001012,115.00411680003162,115.00681270001223,115.02074599999469,115.02074599999469,115.02074599999469,117.79828400001861,Objects\102a.jpg,pre,n,2.775392199982889,None,,,,,,,,,00041,001,2026-01-17_16h10.49.006,MST_test,2024.2.0,59.779616465013575,2026-01-17 16h11.02.568917 +0530,
6,0,7,s,0.9042450000415556,None,7,0,6,117.81392640003469,,,,,,,,,,,,,,,,,,,,,,,,,,,,,,,,,,,,,,,,,,,,,,,,,,117.7983777000336,117.81392640003469,118.29886480001733,118.30221550003625,118.31564129999606,118.31564129999606,118.31564129999606,119.23634040000616,Objects\017a.jpg,mid,s,0.9042450000415556,None,,,,,,,,,00041,001,2026-01-17_16h10.49.006,MST_test,2024.2.0,59.779616465013575,2026-01-17 16h11.02.568917 +0530,
7,0,8,n,2.1943743000156246,None,8,0,7,119.25225710001541,,,,,,,,,,,,,,,,,,,,,,,,,,,,,,,,,,,,,,,,,,,,,,,,,,119.23643440002343,119.25225710001541,119.73722750000888,119.74032839998836,119.75414600002114,119.75414600002114,119.75414600002114,121.96266990003642,Foils\065a.jpg,none,n,2.1943743000156246,None,,,,,,,,,00041,001,2026-01-17_16h10.49.006,MST_test,2024.2.0,59.779616465013575,2026-01-17 16h11.02.568917 +0530,
8,0,9,n,0.9481695999857038,None,9,0,8,121.97847090003779,,,,,,,,,,,,,,,,,,,,,,,,,,,,,,,,,,,,,,,,,,,,,,,,,,121.9627654000069,121.97847090003779,122.46346490003634,122.46659810002893,122.48032630002126,122.48032630002126,122.48032630002126,123.43393090000609,Foils\020b.jpg,none,n,0.9481695999857038,None,,,,,,,,,00041,001,2026-01-17_16h10.49.006,MST_test,2024.2.0,59.779616465013575,2026-01-17 16h11.02.568917 +0530,
9,0,10,s,1.188019399996847,None,10,0,9,123.45050289999926,,,,,,,,,,,,,,,,,,,,,,,,,,,,,,,,,,,,,,,,,,,,,,,,,,123.43402450002031,123.45050289999926,123.93517800001428,123.93793660000665,123.95230430003721,123.95230430003721,123.95230430003721,125.15704000002006,Objects\042a.jpg,post,s,1.188019399996847,None,,,,,,,,,00041,001,2026-01-17_16h10.49.006,MST_test,2024.2.0,59.779616465013575,2026-01-17 16h11.02.568917 +0530,
10,0,11,n,1.7215489000082016,None,11,0,10,125.1728742000414,,,,,,,,,,,,,,,,,,,,,,,,,,,,,,,,,,,,,,,,,,,,,,,,,,125.15712980000535,125.1728742000414,125.6581920000026,125.66166470001917,125.67462639999576,125.67462639999576,125.67462639999576,127.39844469999662,Objects\028b.jpg,mid,n,1.7215489000082016,None,,,,,,,,,00041,001,2026-01-17_16h10.49.006,MST_test,2024.2.0,59.779616465013575,2026-01-17 16h11.02.568917 +0530,
11,0,12,n,2.376029099978041,None,12,0,11,127.41403640003409,,,,,,,,,,,,,,,,,,,,,,,,,,,,,,,,,,,,,,,,,,,,,,,,,,127.39853870001389,127.41403640003409,127.89924430003157,127.90701339999214,127.9325211000396,127.9325211000396,127.9325211000396,130.3246102000121,Objects\356a.jpg,pre,n,2.376029099978041,None,,,,,,,,,00041,001,2026-01-17_16h10.49.006,MST_test,2024.2.0,59.779616465013575,2026-01-17 16h11.02.568917 +0530,
12,0,13,o,1.801548899966292,None,13,0,12,130.34068030002527,,,,,,,,,,,,,,,,,,,,,,,,,,,,,,,,,,,,,,,,,,,,,,,,,,130.32470600004308,130.34068030002527,130.82585980003932,130.8339016000391,130.8423405000358,130.8423405000358,130.8423405000358,132.64949889999116,Objects\161a.jpg,pre,o,1.801548899966292,None,,,,,,,,,00041,001,2026-01-17_16h10.49.006,MST_test,2024.2.0,59.779616465013575,2026-01-17 16h11.02.568917 +0530,
13,0,14,n,1.3721426999545656,None,14,0,13,132.66567070002202,,,,,,,,,,,,,,,,,,,,,,,,,,,,,,,,,,,,,,,,,,,,,,,,,,132.6495922000031,132.66567070002202,133.15094990003854,133.1694021000294,133.1840393000166,133.1840393000166,133.1840393000166,134.5729458000278,Objects\359b.jpg,post,n,1.3721426999545656,None,,,,,,,,,00041,001,2026-01-17_16h10.49.006,MST_test,2024.2.0,59.779616465013575,2026-01-17 16h11.02.568917 +0530,
14,0,15,s,0.8894471999956295,None,15,0,14,134.58900179999182,,,,,,,,,,,,,,,,,,,,,,,,,,,,,,,,,,,,,,,,,,,,,,,,,,134.57303810003214,134.58900179999182,135.07404820004012,135.07997960003559,135.0907265000278,135.0907265000278,135.0907265000278,135.99426020000828,Objects\364a.jpg,post,s,0.8894471999956295,None,,,,,,,,,00041,001,2026-01-17_16h10.49.006,MST_test,2024.2.0,59.779616465013575,2026-01-17 16h11.02.568917 +0530,
15,0,16,s,1.8201603000052273,None,16,0,15,136.01090470002964,,,,,,,,,,,,,,,,,,,,,,,,,,,,,,,,,,,,,,,,,,,,,,,,,,135.99435140000423,136.01090470002964,136.49576010002056,136.50293429999147,136.51214390003588,136.51214390003588,136.51214390003588,138.33672570000635,Objects\245a.jpg,mid,s,1.8201603000052273,None,,,,,,,,,00041,001,2026-01-17_16h10.49.006,MST_test,2024.2.0,59.779616465013575,2026-01-17 16h11.02.568917 +0530,
16,0,17,o,3.830571800004691,None,17,0,16,138.3521815999993,,,,,,,,,,,,,,,,,,,,,,,,,,,,,,,,,,,,,,,,,,,,,,,,,,138.33682190004038,138.3521815999993,138.83716029999778,138.83957660000306,138.85397759999614,138.85397759999614,138.85397759999614,142.70131239999318,Objects\056a.jpg,post,o,3.830571800004691,None,,,,,,,,,00041,001,2026-01-17_16h10.49.006,MST_test,2024.2.0,59.779616465013575,2026-01-17 16h11.02.568917 +0530,
17,0,18,n,3.240689400001429,None,18,0,17,142.71736320003401,,,,,,,,,,,,,,,,,,,,,,,,,,,,,,,,,,,,,,,,,,,,,,,,,,142.70140260003973,142.71736320003401,143.20258490002016,143.2172445000033,143.23594270000467,143.23594270000467,143.23594270000467,146.48120420001214,Objects\243b.jpg,post,n,3.240689400001429,None,,,,,,,,,00041,001,2026-01-17_16h10.49.006,MST_test,2024.2.0,59.779616465013575,2026-01-17 16h11.02.568917 +0530,
18,0,19,o,3.4365631999680772,None,19,0,18,146.49744569999166,,,,,,,,,,,,,,,,,,,,,,,,,,,,,,,,,,,,,,,,,,,,,,,,,,146.48129580001114,146.49744569999166,146.98253189999377,146.99738190002972,147.01596819999395,147.01596819999395,147.01596819999395,150.46197390003363,Objects\357b.jpg,post,o,3.4365631999680772,None,,,,,,,,,00041,001,2026-01-17_16h10.49.006,MST_test,2024.2.0,59.779616465013575,2026-01-17 16h11.02.568917 +0530,
19,0,20,n,1.2399035000125878,None,20,0,19,150.4780334000243,,,,,,,,,,,,,,,,,,,,,,,,,,,,,,,,,,,,,,,,,,,,,,,,,,150.46206420002272,150.4780334000243,150.9632302999962,150.97797370003536,150.99682150001172,150.99682150001172,150.99682150001172,152.25179960002424,Objects\058b.jpg,post,n,1.2399035000125878,None,,,,,,,,,00041,001,2026-01-17_16h10.49.006,MST_test,2024.2.0,59.779616465013575,2026-01-17 16h11.02.568917 +0530,
20,0,21,s,0.946324500022456,None,21,0,20,152.26768039999297,,,,,,,,,,,,,,,,,,,,,,,,,,,,,,,,,,,,,,,,,,,,,,,,,,152.25189429998863,152.26768039999297,152.7531743000145,152.76369789999444,152.78607219998958,152.78607219998958,152.78607219998958,153.7402815000387,Objects\164b.jpg,mid,s,0.946324500022456,None,,,,,,,,,00041,001,2026-01-17_16h10.49.006,MST_test,2024.2.0,59.779616465013575,2026-01-17 16h11.02.568917 +0530,
21,0,22,n,2.1698648000019602,None,22,0,21,153.75618319999194,,,,,,,,,,,,,,,,,,,,,,,,,,,,,,,,,,,,,,,,,,,,,,,,,,153.7403852000134,153.75618319999194,154.241396300029,154.25461870001163,154.27460940001765,154.27460940001765,154.27460940001765,156.4496105000144,Objects\284b.jpg,mid,n,2.1698648000019602,None,,,,,,,,,00041,001,2026-01-17_16h10.49.006,MST_test,2024.2.0,59.779616465013575,2026-01-17 16h11.02.568917 +0530,
22,0,23,s,1.5743248999933712,None,23,0,22,156.46568680001656,,,,,,,,,,,,,,,,,,,,,,,,,,,,,,,,,,,,,,,,,,,,,,,,,,156.44970870000543,156.46568680001656,156.9509271000279,156.9575860000332,156.96711990004405,156.96711990004405,156.96711990004405,158.55690020002658,Objects\258a.jpg,mid,s,1.5743248999933712,None,,,,,,,,,00041,001,2026-01-17_16h10.49.006,MST_test,2024.2.0,59.779616465013575,2026-01-17 16h11.02.568917 +0530,
23,0,24,s,0.9851857000030577,None,24,0,23,158.5730412999983,,,,,,,,,,,,,,,,,,,,,,,,,,,,,,,,,,,,,,,,,,,,,,,,,,158.55699569999706,158.5730412999983,159.0582520000171,159.06452370004263,159.0747374999919,159.0747374999919,159.0747374999919,160.062402200012,Objects\257a.jpg,post,s,0.9851857000030577,None,,,,,,,,,00041,001,2026-01-17_16h10.49.006,MST_test,2024.2.0,59.779616465013575,2026-01-17 16h11.02.568917 +0530,
24,0,25,s,0.7914411000092514,None,25,0,24,160.0783046000288,,,,,,,,,,,,,,,,,,,,,,,,,,,,,,,,,,,,,,,,,,,,,,,,,,160.06267509999452,160.0783046000288,160.56365309999092,160.5784412000212,160.5967476000078,160.5967476000078,160.5967476000078,161.40034009999363,Objects\306b.jpg,post,s,0.7914411000092514,None,,,,,,,,,00041,001,2026-01-17_16h10.49.006,MST_test,2024.2.0,59.779616465013575,2026-01-17 16h11.02.568917 +0530,
25,0,26,s,0.9336806999635883,None,26,0,25,161.41645060002338,,,,,,,,,,,,,,,,,,,,,,,,,,,,,,,,,,,,,,,,,,,,,,,,,,161.40043340000557,161.41645060002338,161.90153850003844,161.9179606999969,161.93489840003895,161.93489840003895,161.93489840003895,162.87353730003815,Objects\206b.jpg,pre,s,0.9336806999635883,None,,,,,,,,,00041,001,2026-01-17_16h10.49.006,MST_test,2024.2.0,59.779616465013575,2026-01-17 16h11.02.568917 +0530,
26,0,27,n,1.022007499996107,None,27,0,26,162.8890020000399,,,,,,,,,,,,,,,,,,,,,,,,,,,,,,,,,,,,,,,,,,,,,,,,,,162.87363430002006,162.8890020000399,163.37341050000396,163.3760106000118,163.38998400000855,163.38998400000855,163.38998400000855,164.42743859998882,Foils\097a.jpg,none,n,1.022007499996107,None,163.38998400000855,,,,,,,,00041,001,2026-01-17_16h10.49.006,MST_test,2024.2.0,59.779616465013575,2026-01-17 16h11.02.568917 +0530,
27,0,28,n,1.4512575000408106,None,28,0,27,164.44356939999852,,,,,,,,,,,,,,,,,,,,,,,,,,,,,,,,,,,,,,,,,,,,,,,,,,164.42753210000228,164.44356939999852,164.9288388999994,164.9320779000409,164.94515320000937,164.94515320000937,164.94515320000937,166.40089129999978,Objects\276a.jpg,mid,n,1.4512575000408106,None,,,,,,,,,00041,001,2026-01-17_16h10.49.006,MST_test,2024.2.0,59.779616465013575,2026-01-17 16h11.02.568917 +0530,
28,0,29,o,1.2286670000175945,None,29,0,28,166.41807700000936,,,,,,,,,,,,,,,,,,,,,,,,,,,,,,,,,,,,,,,,,,,,,,,,,,166.40100790001452,166.41807700000936,166.90240570000606,166.90477900003316,166.91899830003968,166.91899830003968,166.91899830003968,168.1569095000159,Objects\174a.jpg,post,o,1.2286670000175945,None,,,,,,,,,00041,001,2026-01-17_16h10.49.006,MST_test,2024.2.0,59.779616465013575,2026-01-17 16h11.02.568917 +0530,
29,0,30,n,1.145583199977409,None,30,0,29,168.17315460002283,,,,,,,,,,,,,,,,,,,,,,,,,,,,,,,,,,,,,,,,,,,,,,,,,,168.1570021000225,168.17315460002283,168.65839659998892,168.66147570003523,168.67481400002725,168.67481400002725,168.67481400002725,169.8298291999963,Foils\121a.jpg,none,n,1.145583199977409,None,,,,,,,,,00041,001,2026-01-17_16h10.49.006,MST_test,2024.2.0,59.779616465013575,2026-01-17 16h11.02.568917 +0530,
30,0,31,s,1.1932936999946833,None,31,0,30,169.84569159999955,,,,,,,,,,,,,,,,,,,,,,,,,,,,,,,,,,,,,,,,,,,,,,,,,,169.82992220000597,169.84569159999955,170.33092530001886,170.3337421999895,170.34765410004184,170.34765410004184,170.34765410004184,171.5522808000096,Objects\068b.jpg,mid,s,1.1932936999946833,None,,,,,,,,,00041,001,2026-01-17_16h10.49.006,MST_test,2024.2.0,59.779616465013575,2026-01-17 16h11.02.568917 +0530,
31,0,32,o,1.5575916000525467,None,32,0,31,171.5684986000415,,,,,,,,,,,,,,,,,,,,,,,,,,,,,,,,,,,,,,,,,,,,,,,,,,171.55237280001165,171.5684986000415,172.0535172999953,172.06292930000927,172.08694960002322,172.08694960002322,172.08694960002322,173.65958969999338,Objects\181b.jpg,post,o,1.5575916000525467,None,,,,,,,,,00041,001,2026-01-17_16h10.49.006,MST_test,2024.2.0,59.779616465013575,2026-01-17 16h11.02.568917 +0530,
32,0,33,s,2.026266200002283,None,33,0,32,173.67588440002874,,,,,,,,,,,,,,,,,,,,,,,,,,,,,,,,,,,,,,,,,,,,,,,,,,173.6596823,173.67588440002874,174.16085750004277,174.16388649999863,174.17759760003537,174.17759760003537,174.17759760003537,176.21864040003857,Objects\307a.jpg,post,s,2.026266200002283,None,,,,,,,,,00041,001,2026-01-17_16h10.49.006,MST_test,2024.2.0,59.779616465013575,2026-01-17 16h11.02.568917 +0530,
33,0,34,s,0.956622600031551,None,34,0,33,176.23479350004345,,,,,,,,,,,,,,,,,,,,,,,,,,,,,,,,,,,,,,,,,,,,,,,,,,176.21873349999078,176.23479350004345,176.71992030000547,176.72716100001708,176.73640530003468,176.73640530003468,176.73640530003468,177.70721349999076,Objects\360a.jpg,post,s,0.956622600031551,None,,,,,,,,,00041,001,2026-01-17_16h10.49.006,MST_test,2024.2.0,59.779616465013575,2026-01-17 16h11.02.568917 +0530,
34,0,35,s,0.9939621000085026,None,35,0,34,177.7233894999954,,,,,,,,,,,,,,,,,,,,,,,,,,,,,,,,,,,,,,,,,,,,,,,,,,177.70730529999128,177.7233894999954,178.20842929999344,178.2246140000061,178.24194440001156,178.24194440001156,178.24194440001156,179.24640480004018,Objects\057b.jpg,post,s,0.9939621000085026,None,,,,,,,,,00041,001,2026-01-17_16h10.49.006,MST_test,2024.2.0,59.779616465013575,2026-01-17 16h11.02.568917 +0530,
35,0,36,o,1.2561026000184938,None,36,0,35,179.26210100000026,,,,,,,,,,,,,,,,,,,,,,,,,,,,,,,,,,,,,,,,,,,,,,,,,,179.24650370003656,179.26210100000026,179.74718460004078,179.74999179999577,179.76393120002467,179.76393120002467,179.76393120002467,181.03549720003502,Objects\097a.jpg,mid,o,1.2561026000184938,None,,,,,,,,,00041,001,2026-01-17_16h10.49.006,MST_test,2024.2.0,59.779616465013575,2026-01-17 16h11.02.568917 +0530,
36,0,37,o,1.315168500004802,None,37,0,36,181.05172210000455,,,,,,,,,,,,,,,,,,,,,,,,,,,,,,,,,,,,,,,,,,,,,,,,,,181.03559410001617,181.05172210000455,181.5368054000428,181.54013590002432,181.55343200004427,181.55343200004427,181.55343200004427,182.87553180003306,Objects\067a.jpg,post,o,1.315168500004802,None,,,,,,,,,00041,001,2026-01-17_16h10.49.006,MST_test,2024.2.0,59.779616465013575,2026-01-17 16h11.02.568917 +0530,
37,0,38,n,1.690413600008469,None,38,0,37,182.89166760002263,,,,,,,,,,,,,,,,,,,,,,,,,,,,,,,,,,,,,,,,,,,,,,,,,,182.87563349999255,182.89166760002263,183.3764530000044,183.37940370000433,183.39319820003584,183.39319820003584,183.39319820003584,185.09978450002382,Foils\009a.jpg,none,n,1.690413600008469,None,,,,,,,,,00041,001,2026-01-17_16h10.49.006,MST_test,2024.2.0,59.779616465013575,2026-01-17 16h11.02.568917 +0530,
38,0,39,s,1.4813819999690168,None,39,0,38,185.11582820001058,,,,,,,,,,,,,,,,,,,,,,,,,,,,,,,,,,,,,,,,,,,,,,,,,,185.09987780003576,185.11582820001058,185.60106180002913,185.6105090000201,185.63428220001515,185.63428220001515,185.63428220001515,187.12369780003792,Objects\037b.jpg,pre,s,1.4813819999690168,None,,,,,,,,,00041,001,2026-01-17_16h10.49.006,MST_test,2024.2.0,59.779616465013575,2026-01-17 16h11.02.568917 +0530,
39,0,40,o,1.657661100034602,None,40,0,39,187.13957619998837,,,,,,,,,,,,,,,,,,,,,,,,,,,,,,,,,,,,,,,,,,,,,,,,,,187.12379430001602,187.13957619998837,187.6247854999965,187.6346986000426,187.65801700000884,187.65801700000884,187.65801700000884,189.33137120003812,Objects\141b.jpg,post,o,1.657661100034602,None,,,,,,,,,00041,001,2026-01-17_16h10.49.006,MST_test,2024.2.0,59.779616465013575,2026-01-17 16h11.02.568917 +0530,
40,0,41,o,0.8755592000088654,None,41,0,40,189.34810200001812,,,,,,,,,,,,,,,,,,,,,,,,,,,,,,,,,,,,,,,,,,,,,,,,,,189.3314640999888,189.34810200001812,189.8322941000224,189.83517430000938,189.8490270000184,189.8490270000184,189.8490270000184,190.73629279999295,Objects\079a.jpg,pre,o,0.8755592000088654,None,,,,,,,,,00041,001,2026-01-17_16h10.49.006,MST_test,2024.2.0,59.779616465013575,2026-01-17 16h11.02.568917 +0530,
41,0,42,o,1.0699682000558823,None,42,0,41,190.7522362000309,,,,,,,,,,,,,,,,,,,,,,,,,,,,,,,,,,,,,,,,,,,,,,,,,,190.73638960003154,190.7522362000309,191.23784240003442,191.24062749999575,191.2539383000112,191.2539383000112,191.2539383000112,192.32515940000303,Foils\073a.jpg,none,o,1.0699682000558823,None,,,,,,,,,00041,001,2026-01-17_16h10.49.006,MST_test,2024.2.0,59.779616465013575,2026-01-17 16h11.02.568917 +0530,
42,0,43,s,2.6814577000332065,None,43,0,42,192.3411347999936,,,,,,,,,,,,,,,,,,,,,,,,,,,,,,,,,,,,,,,,,,,,,,,,,,192.3252526000142,192.3411347999936,192.82632440002635,192.83018430002267,192.8429604000412,192.8429604000412,192.8429604000412,195.53661010001088,Objects\178a.jpg,pre,s,2.6814577000332065,None,,,,,,,,,00041,001,2026-01-17_16h10.49.006,MST_test,2024.2.0,59.779616465013575,2026-01-17 16h11.02.568917 +0530,
43,0,44,s,2.006006699986756,None,44,0,43,195.55236730002798,,,,,,,,,,,,,,,,,,,,,,,,,,,,,,,,,,,,,,,,,,,,,,,,,,195.5367058000411,195.55236730002798,196.0377725000144,196.0405784000177,196.05431710003177,196.05431710003177,196.05431710003177,198.06193940003868,Objects\148a.jpg,pre,s,2.006006699986756,None,,,,,,,,,00041,001,2026-01-17_16h10.49.006,MST_test,2024.2.0,59.779616465013575,2026-01-17 16h11.02.568917 +0530,
44,0,45,n,1.2079037000075914,None,45,0,44,198.07802260003518,,,,,,,,,,,,,,,,,,,,,,,,,,,,,,,,,,,,,,,,,,,,,,,,,,198.06203140004072,198.07802260003518,198.56313580001006,198.56598569999915,198.5797237000079,198.5797237000079,198.5797237000079,199.8012969000265,Foils\042a.jpg,none,n,1.2079037000075914,None,,,,,,,,,00041,001,2026-01-17_16h10.49.006,MST_test,2024.2.0,59.779616465013575,2026-01-17 16h11.02.568917 +0530,
45,0,46,s,1.6932918000384234,None,46,0,45,199.8174192000297,,,,,,,,,,,,,,,,,,,,,,,,,,,,,,,,,,,,,,,,,,,,,,,,,,199.80138860002626,199.8174192000297,200.30240510002477,200.31272360001458,200.33588570001302,200.33588570001302,200.33588570001302,202.04249250004068,Objects\198b.jpg,post,s,1.6932918000384234,None,,,,,,,,,00041,001,2026-01-17_16h10.49.006,MST_test,2024.2.0,59.779616465013575,2026-01-17 16h11.02.568917 +0530,
46,0,47,o,1.957276200002525,None,47,0,46,202.05847660003928,,,,,,,,,,,,,,,,,,,,,,,,,,,,,,,,,,,,,,,,,,,,,,,,,,202.04258420004044,202.05847660003928,202.5437024999992,202.54677320003975,202.56032300001243,202.56032300001243,202.56032300001243,204.53460549999727,Objects\366a.jpg,post,o,1.957276200002525,None,,,,,,,,,00041,001,2026-01-17_16h10.49.006,MST_test,2024.2.0,59.779616465013575,2026-01-17 16h11.02.568917 +0530,
47,0,48,s,1.2721069999970496,None,48,0,47,204.5509269000031,,,,,,,,,,,,,,,,,,,,,,,,,,,,,,,,,,,,,,,,,,,,,,,,,,204.53469840000616,204.5509269000031,205.03563190001296,205.04517950001173,205.06922619999386,205.06922619999386,205.06922619999386,206.35764160001418,Objects\154b.jpg,pre,s,1.2721069999970496,None,,,,,,,,,00041,001,2026-01-17_16h10.49.006,MST_test,2024.2.0,59.779616465013575,2026-01-17 16h11.02.568917 +0530,
48,0,49,n,3.4403683000127785,None,49,0,48,206.3738391000079,,,,,,,,,,,,,,,,,,,,,,,,,,,,,,,,,,,,,,,,,,,,,,,,,,206.35773430002155,206.3738391000079,206.8586979000247,206.86142140004085,206.8754278999986,206.8754278999986,206.8754278999986,210.32156050001504,Foils\101b.jpg,none,n,3.4403683000127785,None,,,,,,,,,00041,001,2026-01-17_16h10.49.006,MST_test,2024.2.0,59.779616465013575,2026-01-17 16h11.02.568917 +0530,
49,0,50,o,1.1718005000147969,None,50,0,49,210.33761079999385,,,,,,,,,,,,,,,,,,,,,,,,,,,,,,,,,,,,,,,,,,,,,,,,,,210.32165330002317,210.33761079999385,210.82255560002523,210.8321888000355,210.85604500002228,210.85604500002228,210.85604500002228,212.04416749998927,Objects\162b.jpg,post,o,1.1718005000147969,None,,,,,,,,,00041,001,2026-01-17_16h10.49.006,MST_test,2024.2.0,59.779616465013575,2026-01-17 16h11.02.568917 +0530,
50,0,51,n,1.7134206999908201,None,51,0,50,212.06031229998916,,,,,,,,,,,,,,,,,,,,,,,,,,,,,,,,,,,,,,,,,,,,,,,,,,212.0442597999936,212.06031229998916,212.54526789998636,212.55501420004293,212.5789454000187,212.5789454000187,212.5789454000187,214.3020120000001,Objects\054b.jpg,pre,n,1.7134206999908201,None,,,,,,,,,00041,001,2026-01-17_16h10.49.006,MST_test,2024.2.0,59.779616465013575,2026-01-17 16h11.02.568917 +0530,
51,0,52,n,1.0724247000180185,None,52,0,51,214.31820540002082,,,,,,,,,,,,,,,,,,,,,,,,,,,,,,,,,,,,,,,,,,,,,,,,,,214.30210690002423,214.31820540002082,214.80321260000346,214.80560970003717,214.81991409999318,214.81991409999318,214.81991409999318,215.90776339999866,Objects\241b.jpg,pre,n,1.0724247000180185,None,,,,,,,,,00041,001,2026-01-17_16h10.49.006,MST_test,2024.2.0,59.779616465013575,2026-01-17 16h11.02.568917 +0530,
52,0,53,s,1.1462546000257134,None,53,0,52,215.9238346000202,,,,,,,,,,,,,,,,,,,,,,,,,,,,,,,,,,,,,,,,,,,,,,,,,,215.90785439999308,215.9238346000202,216.40882730000885,216.41170560003957,216.42566780000925,216.42566780000925,216.42566780000925,217.58016320003662,Objects\010a.jpg,mid,s,1.1462546000257134,None,,,,,,,,,00041,001,2026-01-17_16h10.49.006,MST_test,2024.2.0,59.779616465013575,2026-01-17 16h11.02.568917 +0530,
53,0,54,n,1.2737146000145003,None,54,0,53,217.59648360003484,,,,,,,,,,,,,,,,,,,,,,,,,,,,,,,,,,,,,,,,,,,,,,,,,,217.580291100021,217.59648360003484,218.08160520001547,218.08469859999605,218.09819680004148,218.09819680004148,218.09819680004148,219.38678250001976,Objects\053b.jpg,mid,n,1.2737146000145003,None,,,,,,,,,00041,001,2026-01-17_16h10.49.006,MST_test,2024.2.0,59.779616465013575,2026-01-17 16h11.02.568917 +0530,
54,0,55,o,1.1957982000312768,None,55,0,54,219.4026827000198,,,,,,,,,,,,,,,,,,,,,,,,,,,,,,,,,,,,,,,,,,,,,,,,,,219.38687600003323,219.4026827000198,219.8876494000433,219.89380600000732,219.90447740000673,219.90447740000673,219.90447740000673,221.1091869000229,Objects\296a.jpg,pre,o,1.1957982000312768,None,,,,,,,,,00041,001,2026-01-17_16h10.49.006,MST_test,2024.2.0,59.779616465013575,2026-01-17 16h11.02.568917 +0530,
55,0,56,o,0.9213907000375912,None,56,0,55,221.12526380002964,,,,,,,,,,,,,,,,,,,,,,,,,,,,,,,,,,,,,,,,,,,,,,,,,,221.10929100000067,221.12526380002964,221.6104892999865,221.6172682000324,221.62698739999905,221.62698739999905,221.62698739999905,222.56484140001703,Objects\335a.jpg,post,o,0.9213907000375912,None,,,,,,,,,00041,001,2026-01-17_16h10.49.006,MST_test,2024.2.0,59.779616465013575,2026-01-17 16h11.02.568917 +0530,
56,0,57,s,1.3054328000289388,None,57,0,56,222.58046920003835,,,,,,,,,,,,,,,,,,,,,,,,,,,,,,,,,,,,,,,,,,,,,,,,,,222.56494100001873,222.58046920003835,223.06558799999766,223.0746335000149,223.0989139000303,223.0989139000303,223.0989139000303,224.4208021000377,Foils\093b.jpg,none,s,1.3054328000289388,None,,,,,,,,,00041,001,2026-01-17_16h10.49.006,MST_test,2024.2.0,59.779616465013575,2026-01-17 16h11.02.568917 +0530,
57,0,58,s,1.425326300028246,None,58,0,57,224.43697670003166,,,,,,,,,,,,,,,,,,,,,,,,,,,,,,,,,,,,,,,,,,,,,,,,,,224.4208951999899,224.43697670003166,224.92193670000415,224.9314939000178,224.95555280003464,224.95555280003464,224.95555280003464,226.39441529999021,Objects\064b.jpg,mid,s,1.425326300028246,None,,,,,,,,,00041,001,2026-01-17_16h10.49.006,MST_test,2024.2.0,59.779616465013575,2026-01-17 16h11.02.568917 +0530,
58,0,59,o,0.884362599987071,None,59,0,58,226.41051040001912,,,,,,,,,,,,,,,,,,,,,,,,,,,,,,,,,,,,,,,,,,,,,,,,,,226.3945154999965,226.41051040001912,226.89562710002065,226.89814890001435,226.9121544000227,226.9121544000227,226.9121544000227,227.79929130000528,Objects\223a.jpg,post,o,0.884362599987071,None,,,,,,,,,00041,001,2026-01-17_16h10.49.006,MST_test,2024.2.0,59.779616465013575,2026-01-17 16h11.02.568917 +0530,
59,0,60,s,1.0544945999863558,None,60,0,59,227.81548610003665,,,,,,,,,,,,,,,,,,,,,,,,,,,,,,,,,,,,,,,,,,,,,,,,,,227.79945540003246,227.81548610003665,228.300628099998,228.30428109999048,228.31732090003788,228.31732090003788,228.31732090003788,229.38826030003838,Objects\183a.jpg,pre,s,1.0544945999863558,None,,,,,,,,,00041,001,2026-01-17_16h10.49.006,MST_test,2024.2.0,59.779616465013575,2026-01-17 16h11.02.568917 +0530,
60,0,61,s,1.033587499987334,None,61,0,60,229.40425479999976,,,,,,,,,,,,,,,,,,,,,,,,,,,,,,,,,,,,,,,,,,,,,,,,,,229.3883608999895,229.40425479999976,229.88946550001856,229.8991133000236,229.92269760003546,229.92269760003546,229.92269760003546,230.96038890001364,Objects\003b.jpg,post,s,1.033587499987334,None,,,,,,,,,00041,001,2026-01-17_16h10.49.006,MST_test,2024.2.0,59.779616465013575,2026-01-17 16h11.02.568917 +0530,
61,0,62,n,1.3180828000186011,None,62,0,61,230.97655210003722,,,,,,,,,,,,,,,,,,,,,,,,,,,,,,,,,,,,,,,,,,,,,,,,,,230.96048000000883,230.97655210003722,231.46150870004203,231.47500040003797,231.4949947000132,231.4949947000132,231.4949947000132,232.81664640002418,Objects\354b.jpg,mid,n,1.3180828000186011,None,,,,,,,,,00041,001,2026-01-17_16h10.49.006,MST_test,2024.2.0,59.779616465013575,2026-01-17 16h11.02.568917 +0530,
62,0,63,s,0.9007710000150837,None,63,0,62,232.83305549999932,,,,,,,,,,,,,,,,,,,,,,,,,,,,,,,,,,,,,,,,,,,,,,,,,,232.81674410001142,232.83305549999932,233.3182274000137,233.332215500006,233.35162349999882,233.35162349999882,233.35162349999882,234.2553334000404,Objects\373b.jpg,pre,s,0.9007710000150837,None,,,,,,,,,00041,001,2026-01-17_16h10.49.006,MST_test,2024.2.0,59.779616465013575,2026-01-17 16h11.02.568917 +0530,
63,0,64,s,1.0623170000035316,None,64,0,63,234.27131710003596,,,,,,,,,,,,,,,,,,,,,,,,,,,,,,,,,,,,,,,,,,,,,,,,,,234.2554242000333,234.27131710003596,234.75667989999056,234.77139140001964,234.7897538000252,234.7897538000252,234.7897538000252,235.86096870002802,Objects\061b.jpg,pre,s,1.0623170000035316,None,,,,,,,,,00041,001,2026-01-17_16h10.49.006,MST_test,2024.2.0,59.779616465013575,2026-01-17 16h11.02.568917 +0530,
64,0,65,o,1.569640800007619,None,65,0,64,235.87705240002833,,,,,,,,,,,,,,,,,,,,,,,,,,,,,,,,,,,,,,,,,,,,,,,,,,235.8610611000331,235.87705240002833,236.36217720003333,236.36895580001874,236.37874439998996,236.37874439998996,236.37874439998996,237.95182140002726,Objects\286a.jpg,mid,o,1.569640800007619,None,,,,,,,,,00041,001,2026-01-17_16h10.49.006,MST_test,2024.2.0,59.779616465013575,2026-01-17 16h11.02.568917 +0530,
65,0,66,n,1.7506180999916978,None,66,0,65,237.96758019999834,,,,,,,,,,,,,,,,,,,,,,,,,,,,,,,,,,,,,,,,,,,,,,,,,,237.95191500004148,237.96758019999834,238.45278160000453,238.4672964999918,238.48602710000705,238.48602710000705,238.48602710000705,240.24292290001176,Foils\082a.jpg,none,n,1.7506180999916978,None,,,,,,,,,00041,001,2026-01-17_16h10.49.006,MST_test,2024.2.0,59.779616465013575,2026-01-17 16h11.02.568917 +0530,
66,0,67,s,1.3399425000534393,None,67,0,66,240.2589444000041,,,,,,,,,,,,,,,,,,,,,,,,,,,,,,,,,,,,,,,,,,,,,,,,,,240.24301610002294,240.2589444000041,240.7442382000154,240.7535585000296,240.7774933000328,240.7774933000328,240.7774933000328,242.13293070002692,Objects\169b.jpg,mid,s,1.3399425000534393,None,,,,,,,,,00041,001,2026-01-17_16h10.49.006,MST_test,2024.2.0,59.779616465013575,2026-01-17 16h11.02.568917 +0530,
67,0,68,s,1.8736152000492439,None,68,0,67,242.14887800003635,,,,,,,,,,,,,,,,,,,,,,,,,,,,,,,,,,,,,,,,,,,,,,,,,,242.1330234000343,242.14887800003635,242.63425970001845,242.6373617000063,242.6505800000159,242.6505800000159,242.6505800000159,244.54107189999195,Objects\136a.jpg,post,s,1.8736152000492439,None,,,,,,,,,00041,001,2026-01-17_16h10.49.006,MST_test,2024.2.0,59.779616465013575,2026-01-17 16h11.02.568917 +0530,
68,0,69,o,0.9216234000050463,None,69,0,68,244.55733310000505,,,,,,,,,,,,,,,,,,,,,,,,,,,,,,,,,,,,,,,,,,,,,,,,,,244.54116560000693,244.55733310000505,245.04333170002792,245.0461951000034,245.0591645000386,245.0591645000386,245.0591645000386,245.99623670004075,Objects\018a.jpg,post,o,0.9216234000050463,None,,,,,,,,,00041,001,2026-01-17_16h10.49.006,MST_test,2024.2.0,59.779616465013575,2026-01-17 16h11.02.568917 +0530,
69,0,70,o,1.1471954000298865,None,70,0,69,246.01252670004033,,,,,,,,,,,,,,,,,,,,,,,,,,,,,,,,,,,,,,,,,,,,,,,,,,245.99633160000667,246.01252670004033,246.49750420002965,246.50058380002156,246.51412820001133,246.51412820001133,246.51412820001133,247.6689902000362,Foils\057a.jpg,none,o,1.1471954000298865,None,,,,,,,,,00041,001,2026-01-17_16h10.49.006,MST_test,2024.2.0,59.779616465013575,2026-01-17 16h11.02.568917 +0530,
70,0,71,n,0.9777838999871165,None,71,0,70,247.6850623000064,,,,,,,,,,,,,,,,,,,,,,,,,,,,,,,,,,,,,,,,,,,,,,,,,,247.66907980001997,247.6850623000064,248.1703237000038,248.1751735000289,248.18665029999102,248.18665029999102,248.18665029999102,249.1742193000391,Foils\f5.jpg,none,n,0.9777838999871165,None,,,,,,,,,00041,001,2026-01-17_16h10.49.006,MST_test,2024.2.0,59.779616465013575,2026-01-17 16h11.02.568917 +0530,
71,0,72,n,0.7118277999688871,None,72,0,71,249.19022220000625,,,,,,,,,,,,,,,,,,,,,,,,,,,,,,,,,,,,,,,,,,,,,,,,,,249.17430980002973,249.19022220000625,249.6754079000093,249.68391339998925,249.6919390000403,249.6919390000403,249.6919390000403,250.4119702000171,Foils\113a.jpg,none,n,0.7118277999688871,None,,,,,,,,,00041,001,2026-01-17_16h10.49.006,MST_test,2024.2.0,59.779616465013575,2026-01-17 16h11.02.568917 +0530,
72,0,73,n,0.650326699949801,None,73,0,72,250.42787040001713,,,,,,,,,,,,,,,,,,,,,,,,,,,,,,,,,,,,,,,,,,,,,,,,,,250.41206210001837,250.42787040001713,250.91326420003315,250.9188601000351,250.92958820000058,250.92958820000058,250.92958820000058,251.58252320002066,Foils\f7.jpg,none,n,0.650326699949801,None,,,,,,,,,00041,001,2026-01-17_16h10.49.006,MST_test,2024.2.0,59.779616465013575,2026-01-17 16h11.02.568917 +0530,
73,0,74,n,0.8792717999895103,None,74,0,73,251.5987137000193,,,,,,,,,,,,,,,,,,,,,,,,,,,,,,,,,,,,,,,,,,,,,,,,,,251.5826206000056,251.5987137000193,252.08396130002802,252.0895925000077,252.10034870001255,252.10034870001255,252.10034870001255,252.98752329999115,Objects\208a.jpg,mid,n,0.8792717999895103,None,,,,,,,,,00041,001,2026-01-17_16h10.49.006,MST_test,2024.2.0,59.779616465013575,2026-01-17 16h11.02.568917 +0530,
74,0,75,s,1.2179984000395052,None,75,0,74,253.00355299998773,,,,,,,,,,,,,,,,,,,,,,,,,,,,,,,,,,,,,,,,,,,,,,,,,,252.98761690000538,253.00355299998773,253.4890706000151,253.50600210000994,253.52200870000524,253.52200870000524,253.52200870000524,254.74359020002885,Objects\100b.jpg,post,s,1.2179984000395052,None,,,,,,,,,00041,001,2026-01-17_16h10.49.006,MST_test,2024.2.0,59.779616465013575,2026-01-17 16h11.02.568917 +0530,
75,0,76,n,1.2065865999902599,None,76,0,75,254.75972600001842,,,,,,,,,,,,,,,,,,,,,,,,,,,,,,,,,,,,,,,,,,,,,,,,,,254.74368750001304,254.75972600001842,255.2449336000136,255.2481209000107,255.26142440002877,255.26142440002877,255.26142440002877,256.4834266999969,Foils\090a.jpg,none,n,1.2065865999902599,None,,,,,,,,,00041,001,2026-01-17_16h10.49.006,MST_test,2024.2.0,59.779616465013575,2026-01-17 16h11.02.568917 +0530,
76,0,77,o,1.051665899984073,None,77,0,76,256.4994260999956,,,,,,,,,,,,,,,,,,,,,,,,,,,,,,,,,,,,,,,,,,,,,,,,,,256.4835272000055,256.4994260999956,256.98434130003443,256.99061919999076,257.0008383000386,257.0008383000386,257.0008383000386,258.05578210001113,Objects\224a.jpg,pre,o,1.051665899984073,None,,,,,,,,,00041,001,2026-01-17_16h10.49.006,MST_test,2024.2.0,59.779616465013575,2026-01-17 16h11.02.568917 +0530,
77,0,78,o,1.3511143999639899,None,78,0,77,258.07142260001274,,,,,,,,,,,,,,,,,,,,,,,,,,,,,,,,,,,,,,,,,,,,,,,,,,258.0558776000398,258.07142260001274,258.5571418000036,258.5640192000428,258.57307169999694,258.57307169999694,258.57307169999694,259.92842350003775,Objects\035a.jpg,mid,o,1.3511143999639899,None,,,,,,,,,00041,001,2026-01-17_16h10.49.006,MST_test,2024.2.0,59.779616465013575,2026-01-17 16h11.02.568917 +0530,
78,0,79,n,1.3729368000058457,None,79,0,78,259.9445369000314,,,,,,,,,,,,,,,,,,,,,,,,,,,,,,,,,,,,,,,,,,,,,,,,,,259.9285152000375,259.9445369000314,260.42974089999916,260.4406813000096,260.4629739000229,260.4629739000229,260.4629739000229,261.85176910000155,Objects\308b.jpg,pre,n,1.3729368000058457,None,,,,,,,,,00041,001,2026-01-17_16h10.49.006,MST_test,2024.2.0,59.779616465013575,2026-01-17 16h11.02.568917 +0530,
79,0,80,o,1.4099236999754794,None,80,0,79,261.8679406000301,,,,,,,,,,,,,,,,,,,,,,,,,,,,,,,,,,,,,,,,,,,,,,,,,,261.8518698000116,261.8679406000301,262.3532144000055,262.36267210001824,262.38638560002437,262.38638560002437,262.38638560002437,263.80877210001927,Objects\046b.jpg,pre,o,1.4099236999754794,None,,,,,,,,,00041,001,2026-01-17_16h10.49.006,MST_test,2024.2.0,59.779616465013575,2026-01-17 16h11.02.568917 +0530,
80,0,81,s,1.4539299000171013,None,81,0,80,263.8249121000408,,,,,,,,,,,,,,,,,,,,,,,,,,,,,,,,,,,,,,,,,,,,,,,,,,263.80886059999466,263.8249121000408,264.3098662000266,264.312891700014,264.3267731000087,264.3267731000087,264.3267731000087,265.7823511000024,Objects\355b.jpg,mid,s,1.4539299000171013,None,,,,,,,,,00041,001,2026-01-17_16h10.49.006,MST_test,2024.2.0,59.779616465013575,2026-01-17 16h11.02.568917 +0530,
81,0,82,s,1.2393274999922141,None,82,0,81,265.79849270003615,,,,,,,,,,,,,,,,,,,,,,,,,,,,,,,,,,,,,,,,,,,,,,,,,,265.7824419999961,265.79849270003615,266.2841530999867,266.2926383999875,266.3170480999979,266.3170480999979,266.3170480999979,267.571801699989,Objects\237a.jpg,post,s,1.2393274999922141,None,,,,,,,,,00041,001,2026-01-17_16h10.49.006,MST_test,2024.2.0,59.779616465013575,2026-01-17 16h11.02.568917 +0530,
82,0,83,s,1.2908611999591812,None,83,0,82,267.5880943000084,,,,,,,,,,,,,,,,,,,,,,,,,,,,,,,,,,,,,,,,,,,,,,,,,,267.57189140003175,267.5880943000084,268.0731631999952,268.08888500003377,268.10653560003266,268.10653560003266,268.10653560003266,269.4115498000174,Objects\153b.jpg,pre,s,1.2908611999591812,None,,,,,,,,,00041,001,2026-01-17_16h10.49.006,MST_test,2024.2.0,59.779616465013575,2026-01-17 16h11.02.568917 +0530,
83,0,84,n,1.4984562999452464,None,84,0,83,269.4277760999976,,,,,,,,,,,,,,,,,,,,,,,,,,,,,,,,,,,,,,,,,,,,,,,,,,269.41184429998975,269.4277760999976,269.91298690001713,269.9158237000229,269.92945630004397,269.92945630004397,269.92945630004397,271.4354342999868,Foils\081a.jpg,none,n,1.4984562999452464,None,,,,,,,,,00041,001,2026-01-17_16h10.49.006,MST_test,2024.2.0,59.779616465013575,2026-01-17 16h11.02.568917 +0530,
84,0,85,s,1.114064099965617,None,85,0,84,271.45170010003494,,,,,,,,,,,,,,,,,,,,,,,,,,,,,,,,,,,,,,,,,,,,,,,,,,271.43552500003716,271.45170010003494,271.93676539999433,271.95126719999826,271.97004690003814,271.97004690003814,271.97004690003814,273.0915431000176,Objects\280b.jpg,mid,s,1.114064099965617,None,,,,,,,,,00041,001,2026-01-17_16h10.49.006,MST_test,2024.2.0,59.779616465013575,2026-01-17 16h11.02.568917 +0530,
85,0,86,s,1.0185243000159971,None,86,0,85,273.10753040004056,,,,,,,,,,,,,,,,,,,,,,,,,,,,,,,,,,,,,,,,,,,,,,,,,,273.09163530002115,273.10753040004056,273.5923870000406,273.6087025000015,273.6258489000029,273.6258489000029,273.6258489000029,274.64693960000295,Objects\345b.jpg,post,s,1.0185243000159971,None,,,,,,,,,00041,001,2026-01-17_16h10.49.006,MST_test,2024.2.0,59.779616465013575,2026-01-17 16h11.02.568917 +0530,
86,0,87,s,1.4713242999860086,None,87,0,86,274.66286580002634,,,,,,,,,,,,,,,,,,,,,,,,,,,,,,,,,,,,,,,,,,,,,,,,,,274.6470336000202,274.66286580002634,275.147841900005,275.1503280000179,275.1645849000197,275.1645849000197,275.1645849000197,276.6370279000257,Objects\026a.jpg,mid,s,1.4713242999860086,None,,,,,,,,,00041,001,2026-01-17_16h10.49.006,MST_test,2024.2.0,59.779616465013575,2026-01-17 16h11.02.568917 +0530,
87,0,88,n,1.4177236999967135,None,88,0,87,276.6532686999999,,,,,,,,,,,,,,,,,,,,,,,,,,,,,,,,,,,,,,,,,,,,,,,,,,276.6371244000038,276.6532686999999,277.1381422000122,277.14120569999795,277.1550731000025,277.1550731000025,277.1550731000025,278.5769507000223,Foils\050a.jpg,none,n,1.4177236999967135,None,,,,,,,,,00041,001,2026-01-17_16h10.49.006,MST_test,2024.2.0,59.779616465013575,2026-01-17 16h11.02.568917 +0530,
88,0,89,n,0.9166935999528505,None,89,0,88,278.5932864000206,,,,,,,,,,,,,,,,,,,,,,,,,,,,,,,,,,,,,,,,,,,,,,,,,,278.5770591000328,278.5932864000206,279.0782690999913,279.0830419000122,279.0950041000033,279.0950041000033,279.0950041000033,280.01551900000777,Foils\f6.jpg,none,n,0.9166935999528505,None,,,,,,,,,00041,001,2026-01-17_16h10.49.006,MST_test,2024.2.0,59.779616465013575,2026-01-17 16h11.02.568917 +0530,
89,0,90,o,1.2310718999942765,None,90,0,89,280.0316632000031,,,,,,,,,,,,,,,,,,,,,,,,,,,,,,,,,,,,,,,,,,,,,,,,,,280.0156131000258,280.0316632000031,280.5167693000403,280.5237330000382,280.53320010000607,280.53320010000607,280.53320010000607,281.7716728000087,Objects\222a.jpg,mid,o,1.2310718999942765,None,,,,,,,,,00041,001,2026-01-17_16h10.49.006,MST_test,2024.2.0,59.779616465013575,2026-01-17 16h11.02.568917 +0530,
90,0,91,s,2.058009599975776,None,91,0,90,281.78778270003386,,,,,,,,,,,,,,,,,,,,,,,,,,,,,,,,,,,,,,,,,,,,,,,,,,281.77176239999244,281.78778270003386,282.2728047000128,282.2789900000207,282.28974520001793,282.28974520001793,282.28974520001793,284.36401130002923,Objects\377a.jpg,mid,s,2.058009599975776,None,,,,,,,,,00041,001,2026-01-17_16h10.49.006,MST_test,2024.2.0,59.779616465013575,2026-01-17 16h11.02.568917 +0530,
91,0,92,n,1.321821200021077,None,92,0,91,284.3802199999918,,,,,,,,,,,,,,,,,,,,,,,,,,,,,,,,,,,,,,,,,,,,,,,,,,284.36410130001605,284.3802199999918,284.8662892000284,284.8753657999914,284.8986098000314,284.8986098000314,284.8986098000314,286.2372863999917,Objects\016b.jpg,post,n,1.321821200021077,None,,,,,,,,,00041,001,2026-01-17_16h10.49.006,MST_test,2024.2.0,59.779616465013575,2026-01-17 16h11.02.568917 +0530,
92,0,93,s,1.5763901000027545,None,93,0,92,286.25344870000845,,,,,,,,,,,,,,,,,,,,,,,,,,,,,,,,,,,,,,,,,,,,,,,,,,286.23737740004435,286.25344870000845,286.7385834000306,286.7531089000404,286.77188840002054,286.77188840002054,286.77188840002054,288.361472700024,Objects\195b.jpg,mid,s,1.5763901000027545,None,,,,,,,,,00041,001,2026-01-17_16h10.49.006,MST_test,2024.2.0,59.779616465013575,2026-01-17 16h11.02.568917 +0530,
93,0,94,s,1.1575074000284076,None,94,0,93,288.37799100001575,,,,,,,,,,,,,,,,,,,,,,,,,,,,,,,,,,,,,,,,,,,,,,,,,,288.3616226000013,288.37799100001575,288.8625309999916,288.8712958000251,288.87897750001866,288.87897750001866,288.87897750001866,290.0504618000123,Objects\279a.jpg,pre,s,1.1575074000284076,None,,,,,,,,,00041,001,2026-01-17_16h10.49.006,MST_test,2024.2.0,59.779616465013575,2026-01-17 16h11.02.568917 +0530,
94,0,95,s,0.932783099997323,None,95,0,94,290.0666712000384,,,,,,,,,,,,,,,,,,,,,,,,,,,,,,,,,,,,,,,,,,,,,,,,,,290.05061159998877,290.0666712000384,290.5519120999961,290.55918330000713,290.5678493999876,290.5678493999876,290.5678493999876,291.50568609999027,Objects\218a.jpg,mid,s,0.932783099997323,None,,,,,,,,,00041,001,2026-01-17_16h10.49.006,MST_test,2024.2.0,59.779616465013575,2026-01-17 16h11.02.568917 +0530,
95,0,96,s,1.2672351999790408,None,96,0,95,291.5219886000268,,,,,,,,,,,,,,,,,,,,,,,,,,,,,,,,,,,,,,,,,,,,,,,,,,291.50581370003056,291.5219886000268,292.0068694000365,292.0217597000301,292.04044860001886,292.04044860001886,292.04044860001886,293.3123582000262,Objects\228b.jpg,mid,s,1.2672351999790408,None,,,,,,,,,00041,001,2026-01-17_16h10.49.006,MST_test,2024.2.0,59.779616465013575,2026-01-17 16h11.02.568917 +0530,
96,0,97,s,1.165379700018093,None,97,0,96,293.32823380001355,,,,,,,,,,,,,,,,,,,,,,,,,,,,,,,,,,,,,,,,,,,,,,,,,,293.3124573000241,293.32823380001355,293.8131813000073,293.8278929000371,293.8467851000023,293.8467851000023,293.8467851000023,295.0180671000271,Objects\199b.jpg,mid,s,1.165379700018093,None,,,,,,,,,00041,001,2026-01-17_16h10.49.006,MST_test,2024.2.0,59.779616465013575,2026-01-17 16h11.02.568917 +0530,
97,0,98,s,1.3239903000066988,None,98,0,97,295.03410829999484,,,,,,,,,,,,,,,,,,,,,,,,,,,,,,,,,,,,,,,,,,,,,,,,,,295.01819380000234,295.03410829999484,295.5192728000111,295.53538070002105,295.55251020001015,295.55251020001015,295.55251020001015,296.89124220004305,Objects\269b.jpg,pre,s,1.3239903000066988,None,,,,,,,,,00041,001,2026-01-17_16h10.49.006,MST_test,2024.2.0,59.779616465013575,2026-01-17 16h11.02.568917 +0530,
98,0,99,n,1.3636092999950051,None,99,0,98,296.9074172000401,,,,,,,,,,,,,,,,,,,,,,,,,,,,,,,,,,,,,,,,,,,,,,,,,,296.8913414000417,296.9074172000401,297.3924205999938,297.3983280000393,297.40913550002733,297.40913550002733,297.40913550002733,298.78120279998984,Objects\368b.jpg,mid,n,1.3636092999950051,None,,,,,,,,,00041,001,2026-01-17_16h10.49.006,MST_test,2024.2.0,59.779616465013575,2026-01-17 16h11.02.568917 +0530,
99,0,100,s,2.360930900031235,None,100,0,99,298.79727460001595,,,,,,,,,,,,,,,,,,,,,,,,,,,,,,,,,,,,,,,,,,,,,,,,,,298.7813005000353,298.79727460001595,299.282451600011,299.29042149998713,299.2990984999924,299.2990984999924,299.2990984999924,301.67467720003333,Objects\380a.jpg,pre,s,2.360930900031235,None,,,,,,,,,00041,001,2026-01-17_16h10.49.006,MST_test,2024.2.0,59.779616465013575,2026-01-17 16h11.02.568917 +0530,
100,0,101,n,1.699426700011827,None,101,0,100,301.6907369000255,,,,,,,,,,,,,,,,,,,,,,,,,,,,,,,,,,,,,,,,,,,,,,,,,,301.6747718999977,301.6907369000255,302.1759336999967,302.18486450001365,302.20916460000444,302.20916460000444,302.20916460000444,303.915868400014,Objects\252b.jpg,post,n,1.699426700011827,None,,,,,,,,,00041,001,2026-01-17_16h10.49.006,MST_test,2024.2.0,59.779616465013575,2026-01-17 16h11.02.568917 +0530,
101,0,102,o,1.1704446999938227,None,102,0,101,303.93203250004444,,,,,,,,,,,,,,,,,,,,,,,,,,,,,,,,,,,,,,,,,,,,,,,,,,303.9159631000366,303.93203250004444,304.4170625000261,304.4200167999952,304.4338499000296,304.4338499000296,304.4338499000296,305.60524579999037,Objects\117b.jpg,post,o,1.1704446999938227,None,,,,,,,,,00041,001,2026-01-17_16h10.49.006,MST_test,2024.2.0,59.779616465013575,2026-01-17 16h11.02.568917 +0530,
102,0,103,n,1.0416325999540277,None,103,0,102,305.6211536999908,,,,,,,,,,,,,,,,,,,,,,,,,,,,,,,,,,,,,,,,,,,,,,,,,,305.6053363000392,305.6211536999908,306.10636999999406,306.1096097000409,306.12286770000355,306.12286770000355,306.12286770000355,307.1772622000426,Foils\034a.jpg,none,n,1.0416325999540277,None,,,,,,,,,00041,001,2026-01-17_16h10.49.006,MST_test,2024.2.0,59.779616465013575,2026-01-17 16h11.02.568917 +0530,
103,0,104,o,0.7568689999752678,None,104,0,103,307.19332100002794,,,,,,,,,,,,,,,,,,,,,,,,,,,,,,,,,,,,,,,,,,,,,,,,,,307.17735290003475,307.19332100002794,307.6785458000377,307.68158999999287,307.6950371999992,307.6950371999992,307.6950371999992,308.46513780002715,Foils\026a.jpg,none,o,0.7568689999752678,None,,,,,,,,,00041,001,2026-01-17_16h10.49.006,MST_test,2024.2.0,59.779616465013575,2026-01-17 16h11.02.568917 +0530,
104,0,105,o,1.0294930000090972,None,105,0,104,308.48127899999963,,,,,,,,,,,,,,,,,,,,,,,,,,,,,,,,,,,,,,,,,,,,,,,,,,308.46523070003605,308.48127899999963,308.96639310003957,308.97355669998797,308.98298239998985,308.98298239998985,308.98298239998985,310.0207369000418,Objects\346a.jpg,mid,o,1.0294930000090972,None,,,,,,,,,00041,001,2026-01-17_16h10.49.006,MST_test,2024.2.0,59.779616465013575,2026-01-17 16h11.02.568917 +0530,
105,0,106,o,3.5296912000048906,None,106,0,105,310.03660890000174,,,,,,,,,,,,,,,,,,,,,,,,,,,,,,,,,,,,,,,,,,,,,,,,,,310.02082710003015,310.03660890000174,310.5218285000301,310.52965040004347,310.53805830003694,310.53805830003694,310.53805830003694,314.068921099999,Objects\115a.jpg,pre,o,3.5296912000048906,None,,,,,,,,,00041,001,2026-01-17_16h10.49.006,MST_test,2024.2.0,59.779616465013575,2026-01-17 16h11.02.568917 +0530,
106,0,107,o,4.778885799983982,None,107,0,106,314.0843034000136,,,,,,,,,,,,,,,,,,,,,,,,,,,,,,,,,,,,,,,,,,,,,,,,,,314.069015200017,314.0843034000136,314.5693239000393,314.57769689999986,314.58534260001034,314.58534260001034,314.58534260001034,319.3700218999875,Objects\358a.jpg,mid,o,4.778885799983982,None,,,,,,,,,00041,001,2026-01-17_16h10.49.006,MST_test,2024.2.0,59.779616465013575,2026-01-17 16h11.02.568917 +0530,
107,0,108,n,3.1804734999896027,None,108,0,107,319.38603890000377,,,,,,,,,,,,,,,,,,,,,,,,,,,,,,,,,,,,,,,,,,,,,,,,,,319.37012209999375,319.38603890000377,319.8712104000151,319.87926240003435,319.88792950002244,319.88792950002244,319.88792950002244,323.0830361000262,Objects\260a.jpg,pre,n,3.1804734999896027,None,,,,,,,,,00041,001,2026-01-17_16h10.49.006,MST_test,2024.2.0,59.779616465013575,2026-01-17 16h11.02.568917 +0530,
108,0,109,n,1.1172809000127017,None,109,0,108,323.0991408000118,,,,,,,,,,,,,,,,,,,,,,,,,,,,,,,,,,,,,,,,,,,,,,,,,,323.0831326000043,323.0991408000118,323.5843101000064,323.59286269999575,323.6001654000138,323.6001654000138,323.6001654000138,324.72208670002874,Objects\204a.jpg,post,n,1.1172809000127017,None,,,,,,,,,00041,001,2026-01-17_16h10.49.006,MST_test,2024.2.0,59.779616465013575,2026-01-17 16h11.02.568917 +0530,
109,0,110,n,2.4205963000422344,None,110,0,109,324.7381004000199,,,,,,,,,,,,,,,,,,,,,,,,,,,,,,,,,,,,,,,,,,,,,,,,,,324.7221828000038,324.7381004000199,325.2232997000101,325.22679420001805,325.23981050000293,325.23981050000293,325.23981050000293,327.6658462000196,Objects\282a.jpg,pre,n,2.4205963000422344,None,,,,,,,,,00041,001,2026-01-17_16h10.49.006,MST_test,2024.2.0,59.779616465013575,2026-01-17 16h11.02.568917 +0530,
110,0,111,n,0.6297739999718033,None,111,0,110,327.6818701000302,,,,,,,,,,,,,,,,,,,,,,,,,,,,,,,,,,,,,,,,,,,,,,,,,,327.66593660000945,327.6818701000302,328.1669540000148,328.17053210001905,328.1834552999935,328.1834552999935,328.1834552999935,328.81971420004265,Foils\105a.jpg,none,n,0.6297739999718033,None,,,,,,,,,00041,001,2026-01-17_16h10.49.006,MST_test,2024.2.0,59.779616465013575,2026-01-17 16h11.02.568917 +0530,
111,0,112,n,0.6505126000265591,None,112,0,111,328.8358922000043,,,,,,,,,,,,,,,,,,,,,,,,,,,,,,,,,,,,,,,,,,,,,,,,,,328.81981070002075,328.8358922000043,329.3210189000238,329.3272283000406,329.3376081000315,329.3376081000315,329.3376081000315,329.9904752000002,Objects\231a.jpg,pre,n,0.6505126000265591,None,,,,,,,,,00041,001,2026-01-17_16h10.49.006,MST_test,2024.2.0,59.779616465013575,2026-01-17 16h11.02.568917 +0530,
112,0,113,s,1.232014299952425,None,113,0,112,330.0066630000365,,,,,,,,,,,,,,,,,,,,,,,,,,,,,,,,,,,,,,,,,,,,,,,,,,329.99057339999126,330.0066630000365,330.4916185000329,330.4994207000127,330.50836139998864,330.50836139998864,330.50836139998864,331.7467408000375,Objects\171a.jpg,pre,s,1.232014299952425,None,,,,,,,,,00041,001,2026-01-17_16h10.49.006,MST_test,2024.2.0,59.779616465013575,2026-01-17 16h11.02.568917 +0530,
113,0,114,o,1.955829700047616,None,114,0,113,331.7626950000413,,,,,,,,,,,,,,,,,,,,,,,,,,,,,,,,,,,,,,,,,,,,,,,,,,331.7468334000441,331.7626950000413,332.2479092000285,332.2543267000001,332.26440470002126,332.26440470002126,332.26440470002126,334.2220729000401,Objects\242b.jpg,pre,o,1.955829700047616,None,,,,,,,,,00041,001,2026-01-17_16h10.49.006,MST_test,2024.2.0,59.779616465013575,2026-01-17 16h11.02.568917 +0530,
114,0,115,s,2.2882099999696948,None,115,0,114,334.23804700002074,,,,,,,,,,,,,,,,,,,,,,,,,,,,,,,,,,,,,,,,,,,,,,,,,,334.22216480004136,334.23804700002074,334.72325740003726,334.7405012000236,334.75647760002175,334.75647760002175,334.75647760002175,337.0486014999915,Objects\152b.jpg,pre,s,2.2882099999696948,None,,,,,,,,,00041,001,2026-01-17_16h10.49.006,MST_test,2024.2.0,59.779616465013575,2026-01-17 16h11.02.568917 +0530,
115,0,116,s,1.9417240000329912,None,116,0,115,337.06487760000164,,,,,,,,,,,,,,,,,,,,,,,,,,,,,,,,,,,,,,,,,,,,,,,,,,337.0486965000164,337.06487760000164,337.5496891000075,337.55261600000085,337.56642270000884,337.56642270000884,337.56642270000884,339.5237539000227,Objects\088a.jpg,mid,s,1.9417240000329912,None,,,,,,,,,00041,001,2026-01-17_16h10.49.006,MST_test,2024.2.0,59.779616465013575,2026-01-17 16h11.02.568917 +0530,
116,0,117,n,1.2010402000159957,None,117,0,116,339.5400481999968,,,,,,,,,,,,,,,,,,,,,,,,,,,,,,,,,,,,,,,,,,,,,,,,,,339.52384770003846,339.5400481999968,340.0251609000261,340.0354241000023,340.05927980004344,340.05927980004344,340.05927980004344,341.26394520001486,Foils\010a.jpg,none,n,1.2010402000159957,None,,,,,,,,,00041,001,2026-01-17_16h10.49.006,MST_test,2024.2.0,59.779616465013575,2026-01-17 16h11.02.568917 +0530,
117,0,118,s,1.3825539000099525,None,118,0,117,341.2795163000119,,,,,,,,,,,,,,,,,,,,,,,,,,,,,,,,,,,,,,,,,,,,,,,,,,341.26404969999567,341.2795163000119,341.7647022000165,341.7676602000138,341.78106690000277,341.78106690000277,341.78106690000277,343.1707955999882,Objects\101b.jpg,mid,s,1.3825539000099525,None,,,,,,,,,00041,001,2026-01-17_16h10.49.006,MST_test,2024.2.0,59.779616465013575,2026-01-17 16h11.02.568917 +0530,
118,0,119,n,2.363823299994692,None,119,0,118,343.1865321000223,,,,,,,,,,,,,,,,,,,,,,,,,,,,,,,,,,,,,,,,,,,,,,,,,,343.1708975000074,343.1865321000223,343.67170200002147,343.6801198000321,343.70521250000456,343.70521250000456,343.70521250000456,346.0801899000071,Objects\235a.jpg,post,n,2.363823299994692,None,,,,,,,,,00041,001,2026-01-17_16h10.49.006,MST_test,2024.2.0,59.779616465013575,2026-01-17 16h11.02.568917 +0530,
119,0,120,n,0.7429724999819882,None,120,0,119,346.09654800000135,,,,,,,,,,,,,,,,,,,,,,,,,,,,,,,,,,,,,,,,,,,,,,,,,,346.08028420002665,346.09654800000135,346.5818840000429,346.5887476000353,346.5977527000359,346.5977527000359,346.5977527000359,347.35145110002486,Objects\275a.jpg,post,n,0.7429724999819882,None,,,,,,,,,00041,001,2026-01-17_16h10.49.006,MST_test,2024.2.0,59.779616465013575,2026-01-17 16h11.02.568917 +0530,
120,0,121,o,1.4551815000013448,None,121,0,120,347.3674547999981,,,,,,,,,,,,,,,,,,,,,,,,,,,,,,,,,,,,,,,,,,,,,,,,,,347.3515482000075,347.3674547999981,347.8525542000425,347.8611434000195,347.8687857000041,347.8687857000041,347.8687857000041,349.32612149999477,Objects\158a.jpg,post,o,1.4551815000013448,None,,,,,,,,,00041,001,2026-01-17_16h10.49.006,MST_test,2024.2.0,59.779616465013575,2026-01-17 16h11.02.568917 +0530,
121,0,122,n,1.2814768999814987,None,122,0,121,349.3413161000353,,,,,,,,,,,,,,,,,,,,,,,,,,,,,,,,,,,,,,,,,,,,,,,,,,349.3262190000387,349.3413161000353,349.8263866000343,349.8293249999988,349.8426165000419,349.8426165000419,349.8426165000419,351.1313732000417,Objects\334a.jpg,mid,n,1.2814768999814987,None,349.8426165000419,,,,,,,,00041,001,2026-01-17_16h10.49.006,MST_test,2024.2.0,59.779616465013575,2026-01-17 16h11.02.568917 +0530,
122,0,123,s,1.1226512999855913,None,123,0,122,351.1472414000309,,,,,,,,,,,,,,,,,,,,,,,,,,,,,,,,,,,,,,,,,,,,,,,,,,351.13146240002243,351.1472414000309,351.6324492000276,351.63545780000277,351.6489586000098,351.6489586000098,351.6489586000098,352.7869648000342,Objects\159a.jpg,pre,s,1.1226512999855913,None,,,,,,,,,00041,001,2026-01-17_16h10.49.006,MST_test,2024.2.0,59.779616465013575,2026-01-17 16h11.02.568917 +0530,
123,0,124,s,1.6505575999617577,None,124,0,123,352.8030330000329,,,,,,,,,,,,,,,,,,,,,,,,,,,,,,,,,,,,,,,,,,,,,,,,,,352.7870620000176,352.8030330000329,353.28825330000836,353.298245700018,353.3216173000401,353.3216173000401,353.3216173000401,354.97788140003104,Objects\150b.jpg,pre,s,1.6505575999617577,None,,,,,,,,,00041,001,2026-01-17_16h10.49.006,MST_test,2024.2.0,59.779616465013575,2026-01-17 16h11.02.568917 +0530,
124,0,125,s,1.0840200000093319,None,125,0,124,354.9941650000401,,,,,,,,,,,,,,,,,,,,,,,,,,,,,,,,,,,,,,,,,,,,,,,,,,354.9779723000247,354.9941650000401,355.4796638000407,355.48223750002217,355.49576479999814,355.49576479999814,355.49576479999814,356.583611100039,Objects\313a.jpg,post,s,1.0840200000093319,None,,,,,,,,,00041,001,2026-01-17_16h10.49.006,MST_test,2024.2.0,59.779616465013575,2026-01-17 16h11.02.568917 +0530,
125,0,126,n,1.1740594999864697,None,126,0,125,356.5996734999935,,,,,,,,,,,,,,,,,,,,,,,,,,,,,,,,,,,,,,,,,,,,,,,,,,356.58370200003264,356.5996734999935,357.0850657999981,357.09531669999706,357.1181142000132,357.1181142000132,357.1181142000132,358.3061594000319,Objects\295b.jpg,pre,n,1.1740594999864697,None,,,,,,,,,00041,001,2026-01-17_16h10.49.006,MST_test,2024.2.0,59.779616465013575,2026-01-17 16h11.02.568917 +0530,
126,0,127,n,0.8532410000334494,None,127,0,126,358.3223719000234,,,,,,,,,,,,,,,,,,,,,,,,,,,,,,,,,,,,,,,,,,,,,,,,,,358.3062588000321,358.3223719000234,358.80790180002805,358.8106647999957,358.8240807999973,358.8240807999973,358.8240807999973,359.6777892000391,Foils\018a.jpg,none,n,0.8532410000334494,None,,,,,,,,,00041,001,2026-01-17_16h10.49.006,MST_test,2024.2.0,59.779616465013575,2026-01-17 16h11.02.568917 +0530,
127,0,128,n,0.6968412999995053,None,128,0,127,359.69391390000237,,,,,,,,,,,,,,,,,,,,,,,,,,,,,,,,,,,,,,,,,,,,,,,,,,359.6778842000058,359.69391390000237,360.1790415000287,360.188306200027,360.2123018000275,360.2123018000275,360.2123018000275,360.9152798000141,Objects\122b.jpg,mid,n,0.6968412999995053,None,,,,,,,,,00041,001,2026-01-17_16h10.49.006,MST_test,2024.2.0,59.779616465013575,2026-01-17 16h11.02.568917 +0530,
128,0,129,n,0.6344974000239745,None,129,0,128,360.93162320001284,,,,,,,,,,,,,,,,,,,,,,,,,,,,,,,,,,,,,,,,,,,,,,,,,,360.91537639999297,360.93162320001284,361.41724030004116,361.427450600022,361.45006719999947,361.45006719999947,361.45006719999947,362.0862553000334,Objects\065b.jpg,pre,n,0.6344974000239745,None,,,,,,,,,00041,001,2026-01-17_16h10.49.006,MST_test,2024.2.0,59.779616465013575,2026-01-17 16h11.02.568917 +0530,
129,0,130,n,0.6243017999804579,None,130,0,129,362.10248060000595,,,,,,,,,,,,,,,,,,,,,,,,,,,,,,,,,,,,,,,,,,,,,,,,,,362.0863522000145,362.10248060000595,362.58775470004184,362.59944910003105,362.6208893000148,362.6208893000148,362.6208893000148,363.25681470002746,Objects\367b.jpg,post,n,0.6243017999804579,None,,,,,,,,,00041,001,2026-01-17_16h10.49.006,MST_test,2024.2.0,59.779616465013575,2026-01-17 16h11.02.568917 +0530,
130,0,131,o,1.4041502999607474,None,131,0,130,363.27332640002714,,,,,,,,,,,,,,,,,,,,,,,,,,,,,,,,,,,,,,,,,,,,,,,,,,363.25690969999414,363.27332640002714,363.75814769999124,363.7731299000443,363.7917582000373,363.7917582000373,363.7917582000373,365.1971331000095,Objects\124b.jpg,mid,o,1.4041502999607474,None,,,,,,,,,00041,001,2026-01-17_16h10.49.006,MST_test,2024.2.0,59.779616465013575,2026-01-17 16h11.02.568917 +0530,
131,0,132,s,2.0649554999545217,None,132,0,131,365.2131858000066,,,,,,,,,,,,,,,,,,,,,,,,,,,,,,,,,,,,,,,,,,,,,,,,,,365.1972292000428,365.2131858000066,365.6985452999943,365.70777109998744,365.73162050003884,365.73162050003884,365.73162050003884,367.8061129000271,Objects\160b.jpg,mid,s,2.0649554999545217,None,,,,,,,,,00041,001,2026-01-17_16h10.49.006,MST_test,2024.2.0,59.779616465013575,2026-01-17 16h11.02.568917 +0530,
132,0,133,n,0.8711309999926016,None,133,0,132,367.8225882000406,,,,,,,,,,,,,,,,,,,,,,,,,,,,,,,,,,,,,,,,,,,,,,,,,,367.8062084999983,367.8225882000406,368.30769270000746,368.3169768000371,368.34137580002425,368.34137580002425,368.34137580002425,369.22811580001144,Foils\098a.jpg,none,n,0.8711309999926016,None,,,,,,,,,00041,001,2026-01-17_16h10.49.006,MST_test,2024.2.0,59.779616465013575,2026-01-17 16h11.02.568917 +0530,
133,0,134,n,1.1609794999822043,None,134,0,133,369.24454380001407,,,,,,,,,,,,,,,,,,,,,,,,,,,,,,,,,,,,,,,,,,,,,,,,,,369.2282078000135,369.24454380001407,369.7294791000313,369.73855800001184,369.76301380002405,369.76301380002405,369.76301380002405,370.9344718999928,Objects\083b.jpg,pre,n,1.1609794999822043,None,,,,,,,,,00041,001,2026-01-17_16h10.49.006,MST_test,2024.2.0,59.779616465013575,2026-01-17 16h11.02.568917 +0530,
134,0,135,n,0.9528656000038609,None,135,0,134,370.95021520002047,,,,,,,,,,,,,,,,,,,,,,,,,,,,,,,,,,,,,,,,,,,,,,,,,,370.9345678000245,370.95021520002047,371.4353192000417,371.4383065000293,371.4520803000196,371.4520803000196,371.4520803000196,372.4061193999951,Foils\017a.jpg,none,n,0.9528656000038609,None,,,,,,,,,00041,001,2026-01-17_16h10.49.006,MST_test,2024.2.0,59.779616465013575,2026-01-17 16h11.02.568917 +0530,
135,0,136,s,1.0469731999910437,None,136,0,135,372.4222814000095,,,,,,,,,,,,,,,,,,,,,,,,,,,,,,,,,,,,,,,,,,,,,,,,,,372.40621129999636,372.4222814000095,372.9071427999879,372.9160066000186,372.9406308000325,372.9406308000325,372.9406308000325,373.9949137000367,Objects\332b.jpg,mid,s,1.0469731999910437,None,,,,,,,,,00041,001,2026-01-17_16h10.49.006,MST_test,2024.2.0,59.779616465013575,2026-01-17 16h11.02.568917 +0530,
136,0,137,n,1.146863600006327,None,137,0,136,374.0110694000032,,,,,,,,,,,,,,,,,,,,,,,,,,,,,,,,,,,,,,,,,,,,,,,,,,373.9950089000049,374.0110694000032,374.49601550004445,374.5054640999879,374.52952260000166,374.52952260000166,374.52952260000166,375.683921799995,Foils\033a.jpg,none,n,1.146863600006327,None,,,,,,,,,00041,001,2026-01-17_16h10.49.006,MST_test,2024.2.0,59.779616465013575,2026-01-17 16h11.02.568917 +0530,
137,0,138,s,1.4331047000014223,None,138,0,137,375.7003104999894,,,,,,,,,,,,,,,,,,,,,,,,,,,,,,,,,,,,,,,,,,,,,,,,,,375.68402879999485,375.7003104999894,376.18533310003113,376.2013621000224,376.2187797999941,376.2187797999941,376.2187797999941,377.65744520002045,Objects\287b.jpg,pre,s,1.4331047000014223,None,,,,,,,,,00041,001,2026-01-17_16h10.49.006,MST_test,2024.2.0,59.779616465013575,2026-01-17 16h11.02.568917 +0530,
138,0,139,n,0.8371933999587782,None,139,0,138,377.6734740000102,,,,,,,,,,,,,,,,,,,,,,,,,,,,,,,,,,,,,,,,,,,,,,,,,,377.65754710003966,377.6734740000102,378.1587270000018,378.166278699995,378.17473540001083,378.17473540001083,378.17473540001083,379.02887810004177,Objects\233a.jpg,post,n,0.8371933999587782,None,,,,,,,,,00041,001,2026-01-17_16h10.49.006,MST_test,2024.2.0,59.779616465013575,2026-01-17 16h11.02.568917 +0530,
139,0,140,n,1.34517980000237,None,140,0,139,379.0450792000047,,,,,,,,,,,,,,,,,,,,,,,,,,,,,,,,,,,,,,,,,,,,,,,,,,379.0289727000054,379.0450792000047,379.53025740000885,379.5369875000324,379.5469344999874,379.5469344999874,379.5469344999874,380.90202949999366,Objects\194a.jpg,pre,n,1.34517980000237,None,,,,,,,,,00041,001,2026-01-17_16h10.49.006,MST_test,2024.2.0,59.779616465013575,2026-01-17 16h11.02.568917 +0530,
140,0,141,n,0.8716684999526478,None,141,0,140,380.9181502000429,,,,,,,,,,,,,,,,,,,,,,,,,,,,,,,,,,,,,,,,,,,,,,,,,,380.902136699995,380.9181502000429,381.40337000001455,381.41142469999613,381.43658859998686,381.43658859998686,381.43658859998686,382.3236767000053,Objects\118a.jpg,pre,n,0.8716684999526478,None,,,,,,,,,00041,001,2026-01-17_16h10.49.006,MST_test,2024.2.0,59.779616465013575,2026-01-17 16h11.02.568917 +0530,
141,0,142,n,0.946337700006552,None,142,0,141,382.3399265999906,,,,,,,,,,,,,,,,,,,,,,,,,,,,,,,,,,,,,,,,,,,,,,,,,,382.3237664999906,382.3399265999906,382.82504860003246,382.83082550001564,382.8419946000213,382.8419946000213,382.8419946000213,383.79552250000415,Objects\227a.jpg,mid,n,0.946337700006552,None,,,,,,,,,00041,001,2026-01-17_16h10.49.006,MST_test,2024.2.0,59.779616465013575,2026-01-17 16h11.02.568917 +0530,
142,0,143,n,0.7699386000167578,None,143,0,142,383.8117559000384,,,,,,,,,,,,,,,,,,,,,,,,,,,,,,,,,,,,,,,,,,,,,,,,,,383.79561620001914,383.8117559000384,384.2968194000423,384.30667000001995,384.33019810001133,384.33019810001133,384.33019810001133,385.1167987000081,Objects\182b.jpg,mid,n,0.7699386000167578,None,,,,,,,,,00041,001,2026-01-17_16h10.49.006,MST_test,2024.2.0,59.779616465013575,2026-01-17 16h11.02.568917 +0530,
143,0,144,n,2.001250999979675,None,144,0,143,385.13291720004054,,,,,,,,,,,,,,,,,,,,,,,,,,,,,,,,,,,,,,,,,,,,,,,,,,385.11689010000555,385.13291720004054,385.6181156000239,385.6271335000056,385.6513651999994,385.6513651999994,385.6513651999994,387.65918980003335,Objects\201b.jpg,post,n,2.001250999979675,None,,,,,,,,,00041,001,2026-01-17_16h10.49.006,MST_test,2024.2.0,59.779616465013575,2026-01-17 16h11.02.568917 +0530,
144,0,145,n,1.9478362000081688,None,145,0,144,387.675286600017,,,,,,,,,,,,,,,,,,,,,,,,,,,,,,,,,,,,,,,,,,,,,,,,,,387.65928319998784,387.675286600017,388.1603211000329,388.17374800000107,388.19370410003467,388.19370410003467,388.19370410003467,390.151053700014,Objects\344b.jpg,post,n,1.9478362000081688,None,,,,,,,,,00041,001,2026-01-17_16h10.49.006,MST_test,2024.2.0,59.779616465013575,2026-01-17 16h11.02.568917 +0530,
145,0,146,n,1.3676482999580912,None,146,0,145,390.16721570002846,,,,,,,,,,,,,,,,,,,,,,,,,,,,,,,,,,,,,,,,,,,,,,,,,,390.15114979998907,390.16721570002846,390.6524149000179,390.66078430000925,390.6689367000363,390.6689367000363,390.6689367000363,392.0411360000144,Objects\036a.jpg,mid,n,1.3676482999580912,None,,,,,,,,,00041,001,2026-01-17_16h10.49.006,MST_test,2024.2.0,59.779616465013575,2026-01-17 16h11.02.568917 +0530,
146,0,147,n,3.349034800019581,None,147,0,146,392.0572791000013,,,,,,,,,,,,,,,,,,,,,,,,,,,,,,,,,,,,,,,,,,,,,,,,,,392.04123020003317,392.0572791000013,392.5422593000112,392.5453801000258,392.5590007000137,392.5590007000137,392.5590007000137,395.9212427000166,Foils\106a.jpg,none,n,3.349034800019581,None,,,,,,,,,00041,001,2026-01-17_16h10.49.006,MST_test,2024.2.0,59.779616465013575,2026-01-17 16h11.02.568917 +0530,
147,0,148,n,0.7651975000044331,None,148,0,147,395.9375391000067,,,,,,,,,,,,,,,,,,,,,,,,,,,,,,,,,,,,,,,,,,,,,,,,,,395.921333300008,395.9375391000067,396.4226261000149,396.4262160999933,396.4393563999911,396.4393563999911,396.4393563999911,397.2092441000277,Foils\086a.jpg,none,n,0.7651975000044331,None,,,,,,,,,00041,001,2026-01-17_16h10.49.006,MST_test,2024.2.0,59.779616465013575,2026-01-17 16h11.02.568917 +0530,
148,0,149,o,1.156095299986191,None,149,0,148,397.2252533000428,,,,,,,,,,,,,,,,,,,,,,,,,,,,,,,,,,,,,,,,,,,,,,,,,,397.20933560002595,397.2252533000428,397.71049830003176,397.71998320001876,397.7436992000439,397.7436992000439,397.7436992000439,398.91539040004136,Objects\127b.jpg,pre,o,1.156095299986191,None,,,,,,,,,00041,001,2026-01-17_16h10.49.006,MST_test,2024.2.0,59.779616465013575,2026-01-17 16h11.02.568917 +0530,
149,0,150,s,0.9942484000348486,None,150,0,149,398.93135510000866,,,,,,,,,,,,,,,,,,,,,,,,,,,,,,,,,,,,,,,,,,,,,,,,,,398.9154844000004,398.93135510000866,399.416351700027,399.42632600001525,399.44987350003794,399.44987350003794,399.44987350003794,400.4539807999972,Objects\261b.jpg,post,s,0.9942484000348486,None,,,,,,,,,00041,001,2026-01-17_16h10.49.006,MST_test,2024.2.0,59.779616465013575,2026-01-17 16h11.02.568917 +0530,
,,,,,,,,,,,,,,,,,,,,,,,,,,,,,,,,,,,,,,,,,,,,,,,,,,,,,,,,,,,,,,,,,,,,,,,,,400.45404260000214,400.4699493999942,400.4699493999942,405.9902877000277,space,5.5101469999644905,None,00041,001,2026-01-17_16h10.49.006,MST_test,2024.2.0,59.779616465013575,2026-01-17 16h11.02.568917 +0530,
