thisN,thisTrialN,thisRepN,key_resp_3.keys,key_resp_3.rt,key_resp_3.duration,trials.thisRepN,trials.thisTrialN,trials.thisN,thisRow.t,notes,intro_page.started,text.started,key_resp.started,intro_page.stopped,key_resp.keys,key_resp.rt,key_resp.duration,instructions.started,text_2.started,key_resp_2.started,instructions.stopped,key_resp_2.keys,key_resp_2.rt,key_resp_2.duration,demo1.started,image_1.started,image_2.started,text_7.started,key_resp_6.started,text_9.started,demo1.stopped,key_resp_6.keys,key_resp_6.rt,key_resp_6.duration,demo3.started,image_5.started,image_6.started,text_11.started,text_12.started,key_resp_8.started,demo3.stopped,key_resp_8.keys,key_resp_8.rt,key_resp_8.duration,demo_conclusion.started,text_13.started,key_resp_9.started,demo_conclusion.stopped,key_resp_9.keys,key_resp_9.rt,key_resp_9.duration,start_test.started,text_6.started,key_resp_5.started,start_test.stopped,key_resp_5.keys,key_resp_5.rt,key_resp_5.duration,ISI.started,text_4.started,text_4.stopped,ISI.stopped,routine_1.started,image.started,text_3.started,key_resp_3.started,routine_1.stopped,image_path,position_of_stimuli,trials.key_resp_3.keys,trials.key_resp_3.rt,trials.key_resp_3.duration,End_page.started,text_5.started,key_resp_4.started,participant,session,date,expName,psychopyVersion,frameRate,expStart,
,,,,,,,,,,,0.0018577999871922657,0.0047439999907510355,0.0047439999907510355,10.276544499996817,space,10.256492800006527,None,,,,,,,,,,,,,,,,,,,,,,,,,,,,,,,,,,,,,,,,,,,,,,,,,,,,,,,,,,,00044,001,2026-01-17_18h25.01.445,MST_test,2024.2.0,59.86303337856009,2026-01-17 18h25.27.110676 +0530,
,,,,,,,,,,,,,,,,,,10.276604200000293,10.291981399990618,10.291981399990618,23.85518400000001,space,13.560459100001026,None,,,,,,,,,,,,,,,,,,,,,,,,,,,,,,,,,,,,,,,,,,,,,,,,,,,,00044,001,2026-01-17_18h25.01.445,MST_test,2024.2.0,59.86303337856009,2026-01-17 18h25.27.110676 +0530,
,,,,,,,,,,,,,,,,,,,,,,,,,23.85521609999705,23.89066369998909,23.89066369998909,23.89066369998909,23.89066369998909,23.89066369998909,30.17269719998876,space,6.274078400005237,None,,,,,,,,,,,,,,,,,,,,,,,,,,,,,,,,,,,,,,,,,,00044,001,2026-01-17_18h25.01.445,MST_test,2024.2.0,59.86303337856009,2026-01-17 18h25.27.110676 +0530,
,,,,,,,,,,,,,,,,,,,,,,,,,,,,,,,,,,,30.172817399987252,30.188020199988387,30.188020199988387,30.188020199988387,30.188020199988387,30.188020199988387,33.28967719999491,space,3.0965684999973746,None,,,,,,,,,,,,,,,,,,,,,,,,,,,,,,,,00044,001,2026-01-17_18h25.01.445,MST_test,2024.2.0,59.86303337856009,2026-01-17 18h25.27.110676 +0530,
,,,,,,,,,,,,,,,,,,,,,,,,,,,,,,,,,,,,,,,,,,,,,33.28985939999984,33.30424409999978,33.30424409999978,49.2060216999962,space,15.884341299999505,None,,,,,,,,,,,,,,,,,,,,,,,,,00044,001,2026-01-17_18h25.01.445,MST_test,2024.2.0,59.86303337856009,2026-01-17 18h25.27.110676 +0530,
,,,,,,,,,,,,,,,,,,,,,,,,,,,,,,,,,,,,,,,,,,,,,,,,,,,,49.2061238999886,49.235808199999155,49.235808199999155,107.3891675999912,space,58.136229800002184,None,,,,,,,,,,,,,,,,,,00044,001,2026-01-17_18h25.01.445,MST_test,2024.2.0,59.86303337856009,2026-01-17 18h25.27.110676 +0530,
0,0,1,n,5.278564799999003,None,1,0,0,107.40404969999508,,,,,,,,,,,,,,,,,,,,,,,,,,,,,,,,,,,,,,,,,,,,,,,,,,107.39591419999488,107.40404969999508,107.9093828999903,107.88927269999112,107.90524309998727,107.9093828999903,107.9093828999903,107.9093828999903,113.19032899999002,Foils\074a.jpg,none,n,5.278564799999003,None,,,,00044,001,2026-01-17_18h25.01.445,MST_test,2024.2.0,59.86303337856009,2026-01-17 18h25.27.110676 +0530,
1,0,2,s,4.807591200005845,None,2,0,1,113.20497759999125,,,,,,,,,,,,,,,,,,,,,,,,,,,,,,,,,,,,,,,,,,,,,,,,,,113.19063610000012,113.20497759999125,113.75744589998794,113.68857479999133,113.7538288999931,113.75744589998794,113.75744589998794,113.75744589998794,118.57366859998729,Objects\072b.jpg,pre,s,4.807591200005845,None,,,,00044,001,2026-01-17_18h25.01.445,MST_test,2024.2.0,59.86303337856009,2026-01-17 18h25.27.110676 +0530,
2,0,3,n,3.892100400000345,None,3,0,2,118.5878464999987,,,,,,,,,,,,,,,,,,,,,,,,,,,,,,,,,,,,,,,,,,,,,,,,,,118.57395559998986,118.5878464999987,119.08792119999998,119.07205089999479,119.0783703999914,119.08792119999998,119.08792119999998,119.08792119999998,122.99036889999115,Foils\017a.jpg,none,n,3.892100400000345,None,,,,00044,001,2026-01-17_18h25.01.445,MST_test,2024.2.0,59.86303337856009,2026-01-17 18h25.27.110676 +0530,
3,0,4,o,1.8285883999924408,None,4,0,3,123.00456839999242,,,,,,,,,,,,,,,,,,,,,,,,,,,,,,,,,,,,,,,,,,,,,,,,,,122.99065629999677,123.00456839999242,123.50459229999979,123.4886964999896,123.49752979999175,123.50459229999979,123.50459229999979,123.50459229999979,125.34025939999265,Objects\276a.jpg,mid,o,1.8285883999924408,None,,,,00044,001,2026-01-17_18h25.01.445,MST_test,2024.2.0,59.86303337856009,2026-01-17 18h25.27.110676 +0530,
4,0,5,s,4.815639500011457,None,5,0,4,125.3541600999888,,,,,,,,,,,,,,,,,,,,,,,,,,,,,,,,,,,,,,,,,,,,,,,,,,125.34055539999099,125.3541600999888,125.87015059999248,125.8387209999928,125.86676169998827,125.87015059999248,125.87015059999248,125.87015059999248,130.68945049999456,Objects\211b.jpg,post,s,4.815639500011457,None,,,,00044,001,2026-01-17_18h25.01.445,MST_test,2024.2.0,59.86303337856009,2026-01-17 18h25.27.110676 +0530,
5,0,6,n,2.447971300003701,None,6,0,5,130.70407159999013,,,,,,,,,,,,,,,,,,,,,,,,,,,,,,,,,,,,,,,,,,,,,,,,,,130.6899088999926,130.70407159999013,131.23837249999633,131.18896329999552,131.23525279999012,131.23837249999633,131.23837249999633,131.23837249999633,133.68963649999932,Objects\067b.jpg,pre,n,2.447971300003701,None,,,,00044,001,2026-01-17_18h25.01.445,MST_test,2024.2.0,59.86303337856009,2026-01-17 18h25.27.110676 +0530,
6,0,7,s,3.628739099993254,None,7,0,6,133.7041817999998,,,,,,,,,,,,,,,,,,,,,,,,,,,,,,,,,,,,,,,,,,,,,,,,,,133.68990339999436,133.7041817999998,134.24917369999457,134.18854569998803,134.24564969999483,134.24917369999457,134.24917369999457,134.24917369999457,137.88946429999487,Objects\326b.jpg,post,s,3.628739099993254,None,,,,00044,001,2026-01-17_18h25.01.445,MST_test,2024.2.0,59.86303337856009,2026-01-17 18h25.27.110676 +0530,
7,0,8,o,1.28347070000018,None,8,0,7,137.9046340999921,,,,,,,,,,,,,,,,,,,,,,,,,,,,,,,,,,,,,,,,,,,,,,,,,,137.88985949999187,137.9046340999921,138.44155869999668,138.38885419999133,138.43882049999957,138.44155869999668,138.44155869999668,138.44155869999668,139.7393114999868,Objects\054b.jpg,post,o,1.28347070000018,None,,,,00044,001,2026-01-17_18h25.01.445,MST_test,2024.2.0,59.86303337856009,2026-01-17 18h25.27.110676 +0530,
8,0,9,o,3.7833173999970313,None,9,0,8,139.75443489999452,,,,,,,,,,,,,,,,,,,,,,,,,,,,,,,,,,,,,,,,,,,,,,,,,,139.7396955999866,139.75443489999452,140.2847752999951,140.23887719999766,140.2811398999911,140.2847752999951,140.2847752999951,140.2847752999951,144.07307099999161,Objects\333b.jpg,mid,o,3.7833173999970313,None,,,,00044,001,2026-01-17_18h25.01.445,MST_test,2024.2.0,59.86303337856009,2026-01-17 18h25.27.110676 +0530,
9,0,10,s,4.7985221999988426,None,10,0,9,144.08747359999688,,,,,,,,,,,,,,,,,,,,,,,,,,,,,,,,,,,,,,,,,,,,,,,,,,144.0734778999904,144.08747359999688,144.6226644999988,144.5720113999996,144.6190490000008,144.6226644999988,144.6226644999988,144.6226644999988,149.42318229998637,Objects\184b.jpg,mid,s,4.7985221999988426,None,,,,00044,001,2026-01-17_18h25.01.445,MST_test,2024.2.0,59.86303337856009,2026-01-17 18h25.27.110676 +0530,
10,0,11,o,3.1228142000036314,None,11,0,10,149.43741569999838,,,,,,,,,,,,,,,,,,,,,,,,,,,,,,,,,,,,,,,,,,,,,,,,,,149.42350349998742,149.43741569999838,149.93779399999767,149.9217886999977,149.92832429999544,149.93779399999767,149.93779399999767,149.93779399999767,153.07253729998774,Objects\095a.jpg,post,o,3.1228142000036314,None,,,,00044,001,2026-01-17_18h25.01.445,MST_test,2024.2.0,59.86303337856009,2026-01-17 18h25.27.110676 +0530,
11,0,12,n,2.329822999992757,None,12,0,11,153.08760489999258,,,,,,,,,,,,,,,,,,,,,,,,,,,,,,,,,,,,,,,,,,,,,,,,,,153.07267099998717,153.08760489999258,153.58796679999796,153.57204049998836,153.57983769998827,153.58796679999796,153.58796679999796,153.58796679999796,155.92307969999092,Foils\098a.jpg,none,n,2.329822999992757,None,,,,00044,001,2026-01-17_18h25.01.445,MST_test,2024.2.0,59.86303337856009,2026-01-17 18h25.27.110676 +0530,
12,0,13,s,4.047310400012066,None,13,0,12,155.93759169999976,,,,,,,,,,,,,,,,,,,,,,,,,,,,,,,,,,,,,,,,,,,,,,,,,,155.92336029998842,155.93759169999976,156.43803569999,156.42181999998866,156.42789149998862,156.43803569999,156.43803569999,156.43803569999,160.48953159998928,Objects\338a.jpg,pre,s,4.047310400012066,None,,,,00044,001,2026-01-17_18h25.01.445,MST_test,2024.2.0,59.86303337856009,2026-01-17 18h25.27.110676 +0530,
13,0,14,o,0.9676304000022355,None,14,0,13,160.50408709999465,,,,,,,,,,,,,,,,,,,,,,,,,,,,,,,,,,,,,,,,,,,,,,,,,,160.48981549999735,160.50408709999465,161.00447919999715,160.98913849999371,161.0003238999925,161.00447919999715,161.00447919999715,161.00447919999715,161.99018579999392,Objects\013a.jpg,mid,o,0.9676304000022355,None,,,,00044,001,2026-01-17_18h25.01.445,MST_test,2024.2.0,59.86303337856009,2026-01-17 18h25.27.110676 +0530,
14,0,15,o,1.188315200008219,None,15,0,14,162.0042056999955,,,,,,,,,,,,,,,,,,,,,,,,,,,,,,,,,,,,,,,,,,,,,,,,,,161.99047119999886,162.0042056999955,162.5045880999969,162.48868209999637,162.49697269999888,162.5045880999969,162.5045880999969,162.5045880999969,163.70630130000063,Objects\272a.jpg,mid,o,1.188315200008219,None,,,,00044,001,2026-01-17_18h25.01.445,MST_test,2024.2.0,59.86303337856009,2026-01-17 18h25.27.110676 +0530,
15,0,16,o,1.4404391999996733,None,16,0,15,163.72102669999003,,,,,,,,,,,,,,,,,,,,,,,,,,,,,,,,,,,,,,,,,,,,,,,,,,163.7066455999884,163.72102669999003,164.22100969999155,164.20530909999798,164.21236859999772,164.22100969999155,164.22100969999155,164.22100969999155,165.67318889999297,Objects\343a.jpg,post,o,1.4404391999996733,None,,,,00044,001,2026-01-17_18h25.01.445,MST_test,2024.2.0,59.86303337856009,2026-01-17 18h25.27.110676 +0530,
16,0,17,o,1.2082594000094105,None,17,0,16,165.68743749998976,,,,,,,,,,,,,,,,,,,,,,,,,,,,,,,,,,,,,,,,,,,,,,,,,,165.67358859999513,165.68743749998976,166.18831529999443,166.172015499993,166.1779869999882,166.18831529999443,166.18831529999443,166.18831529999443,167.40654959999665,Objects\208a.jpg,pre,o,1.2082594000094105,None,,,,00044,001,2026-01-17_18h25.01.445,MST_test,2024.2.0,59.86303337856009,2026-01-17 18h25.27.110676 +0530,
17,0,18,s,1.315989000009722,None,18,0,17,167.4207131999865,,,,,,,,,,,,,,,,,,,,,,,,,,,,,,,,,,,,,,,,,,,,,,,,,,167.4068671999994,167.4207131999865,167.95205569999234,167.90524679998634,167.94843009999022,167.95205569999234,167.95205569999234,167.95205569999234,169.27275039999222,Objects\367b.jpg,mid,s,1.315989000009722,None,,,,00044,001,2026-01-17_18h25.01.445,MST_test,2024.2.0,59.86303337856009,2026-01-17 18h25.27.110676 +0530,
18,0,19,o,1.3925505999941379,None,19,0,18,169.287971999991,,,,,,,,,,,,,,,,,,,,,,,,,,,,,,,,,,,,,,,,,,,,,,,,,,169.2731219999987,169.287971999991,169.78793649999716,169.77181299999938,169.78103459998965,169.78793649999716,169.78793649999716,169.78793649999716,171.18957789998967,Objects\192a.jpg,pre,o,1.3925505999941379,None,,,,00044,001,2026-01-17_18h25.01.445,MST_test,2024.2.0,59.86303337856009,2026-01-17 18h25.27.110676 +0530,
19,0,20,o,1.0419105000037234,None,20,0,19,171.2045044999977,,,,,,,,,,,,,,,,,,,,,,,,,,,,,,,,,,,,,,,,,,,,,,,,,,171.18983999999182,171.2045044999977,171.72999069999787,171.68854959998862,171.72738449998724,171.72999069999787,171.72999069999787,171.72999069999787,172.7897026999999,Objects\003b.jpg,mid,o,1.0419105000037234,None,,,,00044,001,2026-01-17_18h25.01.445,MST_test,2024.2.0,59.86303337856009,2026-01-17 18h25.27.110676 +0530,
20,0,21,n,1.443588499998441,None,21,0,20,172.8041763999936,,,,,,,,,,,,,,,,,,,,,,,,,,,,,,,,,,,,,,,,,,,,,,,,,,172.79009289998794,172.8041763999936,173.30461019999348,173.28870520000055,173.29387529999076,173.30461019999348,173.30461019999348,173.30461019999348,174.7560560999991,Foils\106a.jpg,none,n,1.443588499998441,None,,,,00044,001,2026-01-17_18h25.01.445,MST_test,2024.2.0,59.86303337856009,2026-01-17 18h25.27.110676 +0530,
21,0,22,o,3.6237880999979097,None,22,0,21,174.77093319999403,,,,,,,,,,,,,,,,,,,,,,,,,,,,,,,,,,,,,,,,,,,,,,,,,,174.75627410000016,174.77093319999403,175.30092879998847,175.25578919998952,175.29743569999118,175.30092879998847,175.30092879998847,175.30092879998847,178.93994459998794,Objects\297b.jpg,post,o,3.6237880999979097,None,,,,00044,001,2026-01-17_18h25.01.445,MST_test,2024.2.0,59.86303337856009,2026-01-17 18h25.27.110676 +0530,
22,0,23,s,3.241090299998177,None,23,0,22,178.95485089998692,,,,,,,,,,,,,,,,,,,,,,,,,,,,,,,,,,,,,,,,,,,,,,,,,,178.94022789999144,178.95485089998692,179.5155737999885,179.4385118999926,179.51294299999427,179.5155737999885,179.5155737999885,179.5155737999885,182.77275219999137,Objects\361b.jpg,post,s,3.241090299998177,None,,,,00044,001,2026-01-17_18h25.01.445,MST_test,2024.2.0,59.86303337856009,2026-01-17 18h25.27.110676 +0530,
23,0,24,s,3.7649470000033034,None,24,0,23,182.78809979998914,,,,,,,,,,,,,,,,,,,,,,,,,,,,,,,,,,,,,,,,,,,,,,,,,,182.77306490000046,182.78809979998914,183.28785459999926,183.2720827999874,183.2774572999915,183.28785459999926,183.28785459999926,183.28785459999926,187.05611579999095,Objects\083b.jpg,post,s,3.7649470000033034,None,,,,00044,001,2026-01-17_18h25.01.445,MST_test,2024.2.0,59.86303337856009,2026-01-17 18h25.27.110676 +0530,
24,0,25,o,1.1545956000045408,None,25,0,24,187.0708566999965,,,,,,,,,,,,,,,,,,,,,,,,,,,,,,,,,,,,,,,,,,,,,,,,,,187.05642189999344,187.0708566999965,187.60126499999024,187.5554800999962,187.5977450999926,187.60126499999024,187.60126499999024,187.60126499999024,188.77267769999162,Objects\309b.jpg,post,o,1.1545956000045408,None,,,,00044,001,2026-01-17_18h25.01.445,MST_test,2024.2.0,59.86303337856009,2026-01-17 18h25.27.110676 +0530,
25,0,26,o,2.5360233999963384,None,26,0,25,188.7879455999937,,,,,,,,,,,,,,,,,,,,,,,,,,,,,,,,,,,,,,,,,,,,,,,,,,188.7729188999947,188.7879455999937,189.32454439999128,189.2717694999883,189.32164509998984,189.32454439999128,189.32454439999128,189.32454439999128,191.8727569999901,Objects\038b.jpg,post,o,2.5360233999963384,None,,,,00044,001,2026-01-17_18h25.01.445,MST_test,2024.2.0,59.86303337856009,2026-01-17 18h25.27.110676 +0530,
26,0,27,o,1.15068419999443,None,27,0,26,191.8879634999903,,,,,,,,,,,,,,,,,,,,,,,,,,,,,,,,,,,,,,,,,,,,,,,,,,191.87307649999275,191.8879634999903,192.43060569999216,192.37182969998685,192.42805719999888,192.43060569999216,192.43060569999216,192.43060569999216,193.58973989999504,Objects\196b.jpg,mid,o,1.15068419999443,None,,,,00044,001,2026-01-17_18h25.01.445,MST_test,2024.2.0,59.86303337856009,2026-01-17 18h25.27.110676 +0530,
27,0,28,n,1.5918122000002768,None,28,0,27,193.60438710000017,,,,,,,,,,,,,,,,,,,,,,,,,,,,,,,,,,,,,,,,,,,,,,,,,,193.59016309998697,193.60438710000017,194.12471819999337,194.08876919999602,194.1218697000004,194.12471819999337,194.12471819999337,194.12471819999337,195.722689599992,Foils\020b.jpg,none,n,1.5918122000002768,None,,,,00044,001,2026-01-17_18h25.01.445,MST_test,2024.2.0,59.86303337856009,2026-01-17 18h25.27.110676 +0530,
28,0,29,n,5.734466699999757,None,29,0,28,195.73730090000026,,,,,,,,,,,,,,,,,,,,,,,,,,,,,,,,,,,,,,,,,,,,,,,,,,195.72299339999154,195.73730090000026,196.25358239999332,196.22183409999707,196.25063809999847,196.25358239999332,196.25358239999332,196.25358239999332,201.99006509999163,Objects\376b.jpg,mid,n,5.734466699999757,None,,,,00044,001,2026-01-17_18h25.01.445,MST_test,2024.2.0,59.86303337856009,2026-01-17 18h25.27.110676 +0530,
29,0,30,n,1.2126838000112912,None,30,0,29,202.00422979998984,,,,,,,,,,,,,,,,,,,,,,,,,,,,,,,,,,,,,,,,,,,,,,,,,,201.99044359999243,202.00422979998984,202.50444109999808,202.48903989999963,202.49732029999723,202.50444109999808,202.50444109999808,202.50444109999808,203.72323649999453,Foils\010a.jpg,none,n,1.2126838000112912,None,,,,00044,001,2026-01-17_18h25.01.445,MST_test,2024.2.0,59.86303337856009,2026-01-17 18h25.27.110676 +0530,
30,0,31,n,1.7272903000121005,None,31,0,30,203.7374892999942,,,,,,,,,,,,,,,,,,,,,,,,,,,,,,,,,,,,,,,,,,,,,,,,,,203.7235542999988,203.7374892999942,204.23771979998855,204.2220360999927,204.2277589999867,204.23771979998855,204.23771979998855,204.23771979998855,205.97282899999118,Foils\009a.jpg,none,n,1.7272903000121005,None,,,,00044,001,2026-01-17_18h25.01.445,MST_test,2024.2.0,59.86303337856009,2026-01-17 18h25.27.110676 +0530,
31,0,32,s,1.8615457999985665,None,32,0,31,205.9875589999865,,,,,,,,,,,,,,,,,,,,,,,,,,,,,,,,,,,,,,,,,,,,,,,,,,205.97305659999256,205.9875589999865,206.48774810000032,206.47186579999106,206.4796922999958,206.48774810000032,206.48774810000032,206.48774810000032,208.35722359998908,Objects\028a.jpg,post,s,1.8615457999985665,None,,,,00044,001,2026-01-17_18h25.01.445,MST_test,2024.2.0,59.86303337856009,2026-01-17 18h25.27.110676 +0530,
32,0,33,s,1.693721200004802,None,33,0,32,208.37100099999225,,,,,,,,,,,,,,,,,,,,,,,,,,,,,,,,,,,,,,,,,,,,,,,,,,208.3576122999948,208.37100099999225,208.88699709999491,208.855270199987,208.88413359998958,208.88699709999491,208.88699709999491,208.88699709999491,210.58975069998996,Objects\293b.jpg,mid,s,1.693721200004802,None,,,,00044,001,2026-01-17_18h25.01.445,MST_test,2024.2.0,59.86303337856009,2026-01-17 18h25.27.110676 +0530,
33,0,34,o,1.7800661999935983,None,34,0,33,210.60421939998923,,,,,,,,,,,,,,,,,,,,,,,,,,,,,,,,,,,,,,,,,,,,,,,,,,210.59000929999456,210.60421939998923,211.10477179998998,211.0884578999976,211.09663289999298,211.10477179998998,211.10477179998998,211.10477179998998,212.88906359999964,Objects\087a.jpg,mid,o,1.7800661999935983,None,,,,00044,001,2026-01-17_18h25.01.445,MST_test,2024.2.0,59.86303337856009,2026-01-17 18h25.27.110676 +0530,
34,0,35,n,12.263586400003987,None,35,0,34,212.9041744999995,,,,,,,,,,,,,,,,,,,,,,,,,,,,,,,,,,,,,,,,,,,,,,,,,,212.8893459999963,212.9041744999995,213.4048105999973,213.38842469999508,213.39364619999833,213.4048105999973,213.4048105999973,213.4048105999973,225.67278569999326,Foils\f6.jpg,none,n,12.263586400003987,None,,,,00044,001,2026-01-17_18h25.01.445,MST_test,2024.2.0,59.86303337856009,2026-01-17 18h25.27.110676 +0530,
35,0,36,s,3.233374100003857,None,36,0,35,225.6873928999994,,,,,,,,,,,,,,,,,,,,,,,,,,,,,,,,,,,,,,,,,,,,,,,,,,225.67322089998925,225.6873928999994,226.18773320000037,226.17201319999003,226.18239649999305,226.18773320000037,226.18773320000037,226.18773320000037,229.4236322999932,Objects\113a.jpg,mid,s,3.233374100003857,None,,,,00044,001,2026-01-17_18h25.01.445,MST_test,2024.2.0,59.86303337856009,2026-01-17 18h25.27.110676 +0530,
36,0,37,o,0.9948836000112351,None,37,0,36,229.43761169999198,,,,,,,,,,,,,,,,,,,,,,,,,,,,,,,,,,,,,,,,,,,,,,,,,,229.42386819999956,229.43761169999198,229.93787469998642,229.9218261999922,229.92979349999223,229.93787469998642,229.93787469998642,229.93787469998642,230.9399551999959,Objects\215a.jpg,pre,o,0.9948836000112351,None,,,,00044,001,2026-01-17_18h25.01.445,MST_test,2024.2.0,59.86303337856009,2026-01-17 18h25.27.110676 +0530,
37,0,38,o,0.8946206999971764,None,38,0,37,230.95482879999327,,,,,,,,,,,,,,,,,,,,,,,,,,,,,,,,,,,,,,,,,,,,,,,,,,230.94027419999475,230.95482879999327,231.45450729998993,231.43854869999632,231.44666129999678,231.45450729998993,231.45450729998993,231.45450729998993,232.35632149998855,Objects\001b.jpg,mid,o,0.8946206999971764,None,,,,00044,001,2026-01-17_18h25.01.445,MST_test,2024.2.0,59.86303337856009,2026-01-17 18h25.27.110676 +0530,
38,0,39,o,0.7417444999882719,None,39,0,38,232.3707992999989,,,,,,,,,,,,,,,,,,,,,,,,,,,,,,,,,,,,,,,,,,,,,,,,,,232.35671689998708,232.3707992999989,232.8713546999934,232.85521559999324,232.86278339999262,232.8713546999934,232.8713546999934,232.8713546999934,233.62332069998956,Objects\321a.jpg,mid,o,0.7417444999882719,None,,,,00044,001,2026-01-17_18h25.01.445,MST_test,2024.2.0,59.86303337856009,2026-01-17 18h25.27.110676 +0530,
39,0,40,n,5.486073699998087,None,40,0,39,233.6373739999981,,,,,,,,,,,,,,,,,,,,,,,,,,,,,,,,,,,,,,,,,,,,,,,,,,233.62365379999392,233.6373739999981,234.18283899998642,234.12195039998915,234.17979689998901,234.18283899998642,234.18283899998642,234.18283899998642,239.67320699999982,Foils\105a.jpg,none,n,5.486073699998087,None,,,,00044,001,2026-01-17_18h25.01.445,MST_test,2024.2.0,59.86303337856009,2026-01-17 18h25.27.110676 +0530,
40,0,41,n,1.4297245000052499,None,41,0,40,239.68756539998867,,,,,,,,,,,,,,,,,,,,,,,,,,,,,,,,,,,,,,,,,,,,,,,,,,239.67358160000003,239.68756539998867,240.2302498999925,240.17240739999397,240.22731209998892,240.2302498999925,240.2302498999925,240.2302498999925,241.67258980000042,Objects\205b.jpg,pre,n,1.4297245000052499,None,,,,00044,001,2026-01-17_18h25.01.445,MST_test,2024.2.0,59.86303337856009,2026-01-17 18h25.27.110676 +0530,
41,0,42,o,1.1047077999974135,None,42,0,41,241.68764859999646,,,,,,,,,,,,,,,,,,,,,,,,,,,,,,,,,,,,,,,,,,,,,,,,,,241.67287779999606,241.68764859999646,242.18802059999143,242.17175639999914,242.17933379999886,242.18802059999143,242.18802059999143,242.18802059999143,243.30581109999912,Objects\363a.jpg,post,o,1.1047077999974135,None,,,,00044,001,2026-01-17_18h25.01.445,MST_test,2024.2.0,59.86303337856009,2026-01-17 18h25.27.110676 +0530,
42,0,43,o,0.9605214999901364,None,43,0,42,243.32087659998797,,,,,,,,,,,,,,,,,,,,,,,,,,,,,,,,,,,,,,,,,,,,,,,,,,243.30603799999517,243.32087659998797,243.8208905999927,243.80503269999463,243.81454769999254,243.8208905999927,243.8208905999927,243.8208905999927,244.7891826999985,Objects\359a.jpg,mid,o,0.9605214999901364,None,,,,00044,001,2026-01-17_18h25.01.445,MST_test,2024.2.0,59.86303337856009,2026-01-17 18h25.27.110676 +0530,
43,0,44,o,0.9959075999940978,None,44,0,43,244.8042820999981,,,,,,,,,,,,,,,,,,,,,,,,,,,,,,,,,,,,,,,,,,,,,,,,,,244.78943509999954,244.8042820999981,245.3047077999945,245.288556399988,245.29724879999412,245.3047077999945,245.3047077999945,245.3047077999945,246.30647199999657,Objects\130b.jpg,mid,o,0.9959075999940978,None,,,,00044,001,2026-01-17_18h25.01.445,MST_test,2024.2.0,59.86303337856009,2026-01-17 18h25.27.110676 +0530,
44,0,45,o,1.2410380000073928,None,45,0,44,246.32068140000047,,,,,,,,,,,,,,,,,,,,,,,,,,,,,,,,,,,,,,,,,,,,,,,,,,246.30675309999788,246.32068140000047,246.8589653999952,246.80532149999635,246.85589529998833,246.8589653999952,246.8589653999952,246.8589653999952,248.10623819999455,Objects\096b.jpg,mid,o,1.2410380000073928,None,,,,00044,001,2026-01-17_18h25.01.445,MST_test,2024.2.0,59.86303337856009,2026-01-17 18h25.27.110676 +0530,
45,0,46,s,2.9831929999927524,None,46,0,45,248.12085529998876,,,,,,,,,,,,,,,,,,,,,,,,,,,,,,,,,,,,,,,,,,,,,,,,,,248.10653289999755,248.12085529998876,248.62175659999775,248.60553229998914,248.61133609998797,248.62175659999775,248.62175659999775,248.62175659999775,251.6074435999908,Foils\066a.jpg,none,s,2.9831929999927524,None,,,,00044,001,2026-01-17_18h25.01.445,MST_test,2024.2.0,59.86303337856009,2026-01-17 18h25.27.110676 +0530,
46,0,47,s,2.1792836999957217,None,47,0,46,251.62092729999858,,,,,,,,,,,,,,,,,,,,,,,,,,,,,,,,,,,,,,,,,,,,,,,,,,251.60785519999627,251.62092729999858,252.12100339999597,252.10514529999637,252.11085069998808,252.12100339999597,252.12100339999597,252.12100339999597,254.30646479999996,Objects\088a.jpg,mid,s,2.1792836999957217,None,,,,00044,001,2026-01-17_18h25.01.445,MST_test,2024.2.0,59.86303337856009,2026-01-17 18h25.27.110676 +0530,
47,0,48,o,1.1029618000029586,None,48,0,47,254.32110979998833,,,,,,,,,,,,,,,,,,,,,,,,,,,,,,,,,,,,,,,,,,,,,,,,,,254.30680929998925,254.32110979998833,254.82176189999154,254.80530939999153,254.81280739999784,254.82176189999154,254.82176189999154,254.82176189999154,255.9400947999966,Objects\030a.jpg,post,o,1.1029618000029586,None,,,,00044,001,2026-01-17_18h25.01.445,MST_test,2024.2.0,59.86303337856009,2026-01-17 18h25.27.110676 +0530,
48,0,49,n,3.5503519999911077,None,49,0,48,255.95413719999488,,,,,,,,,,,,,,,,,,,,,,,,,,,,,,,,,,,,,,,,,,,,,,,,,,255.94042210000043,255.95413719999488,256.45450300000084,256.43862799998897,256.4448848999891,256.45450300000084,256.45450300000084,256.45450300000084,260.0067839999974,Foils\065a.jpg,none,n,3.5503519999911077,None,,,,00044,001,2026-01-17_18h25.01.445,MST_test,2024.2.0,59.86303337856009,2026-01-17 18h25.27.110676 +0530,
49,0,50,n,1.1474518000031821,None,50,0,49,260.02152849998674,,,,,,,,,,,,,,,,,,,,,,,,,,,,,,,,,,,,,,,,,,,,,,,,,,260.0070580999891,260.02152849998674,260.5211119999876,260.5053646999877,260.5117459999892,260.5211119999876,260.5211119999876,260.5211119999876,261.6724519999989,Foils\086a.jpg,none,n,1.1474518000031821,None,,,,00044,001,2026-01-17_18h25.01.445,MST_test,2024.2.0,59.86303337856009,2026-01-17 18h25.27.110676 +0530,
50,0,51,o,2.152078300001449,None,51,0,50,261.68759089999367,,,,,,,,,,,,,,,,,,,,,,,,,,,,,,,,,,,,,,,,,,,,,,,,,,261.67269889998715,261.68759089999367,262.18785629999184,262.17209969999385,262.17784369998844,262.18785629999184,262.18785629999184,262.18785629999184,264.3562600999867,Objects\098a.jpg,pre,o,2.152078300001449,None,,,,00044,001,2026-01-17_18h25.01.445,MST_test,2024.2.0,59.86303337856009,2026-01-17 18h25.27.110676 +0530,
51,0,52,n,2.9552358999935677,None,52,0,51,264.3715792999865,,,,,,,,,,,,,,,,,,,,,,,,,,,,,,,,,,,,,,,,,,,,,,,,,,264.35662759999104,264.3715792999865,264.89026449999074,264.85519619999104,264.8874744999921,264.89026449999074,264.89026449999074,264.89026449999074,267.85656989998824,Objects\301b.jpg,pre,n,2.9552358999935677,None,,,,00044,001,2026-01-17_18h25.01.445,MST_test,2024.2.0,59.86303337856009,2026-01-17 18h25.27.110676 +0530,
52,0,53,s,1.8441638999938732,None,53,0,52,267.87099759999546,,,,,,,,,,,,,,,,,,,,,,,,,,,,,,,,,,,,,,,,,,,,,,,,,,267.85692729998846,267.87099759999546,268.40100659999007,268.3551337999961,268.3963334,268.40100659999007,268.40100659999007,268.40100659999007,270.2564117999864,Objects\261b.jpg,pre,s,1.8441638999938732,None,,,,00044,001,2026-01-17_18h25.01.445,MST_test,2024.2.0,59.86303337856009,2026-01-17 18h25.27.110676 +0530,
53,0,54,s,1.5140941999998176,None,54,0,53,270.27094509999733,,,,,,,,,,,,,,,,,,,,,,,,,,,,,,,,,,,,,,,,,,,,,,,,,,270.25679139999556,270.27094509999733,270.77114439998695,270.75547469999583,270.76124300000083,270.77114439998695,270.77114439998695,270.77114439998695,272.2902238999959,Objects\005a.jpg,mid,s,1.5140941999998176,None,,,,00044,001,2026-01-17_18h25.01.445,MST_test,2024.2.0,59.86303337856009,2026-01-17 18h25.27.110676 +0530,
54,0,55,s,3.656484500010265,None,55,0,54,272.30424749999656,,,,,,,,,,,,,,,,,,,,,,,,,,,,,,,,,,,,,,,,,,,,,,,,,,272.29056059999857,272.30424749999656,272.8044232999964,272.7886099999887,272.7934180999873,272.8044232999964,272.8044232999964,272.8044232999964,276.47312539999257,Objects\175a.jpg,mid,s,3.656484500010265,None,,,,00044,001,2026-01-17_18h25.01.445,MST_test,2024.2.0,59.86303337856009,2026-01-17 18h25.27.110676 +0530,
55,0,56,n,1.577508599992143,None,56,0,55,276.4876198999991,,,,,,,,,,,,,,,,,,,,,,,,,,,,,,,,,,,,,,,,,,,,,,,,,,276.4733874999947,276.4876198999991,276.9876838999917,276.9717934999935,276.97984409998753,276.9876838999917,276.9876838999917,276.9876838999917,278.5729915999982,Foils\121a.jpg,none,n,1.577508599992143,None,,,,00044,001,2026-01-17_18h25.01.445,MST_test,2024.2.0,59.86303337856009,2026-01-17 18h25.27.110676 +0530,
56,0,57,s,7.065763000005973,None,57,0,56,278.5876047999918,,,,,,,,,,,,,,,,,,,,,,,,,,,,,,,,,,,,,,,,,,,,,,,,,,278.57325069999206,278.5876047999918,279.1309055999882,279.0718502999953,279.12644629999704,279.1309055999882,279.1309055999882,279.1309055999882,286.20627239999885,Objects\254b.jpg,pre,s,7.065763000005973,None,,,,00044,001,2026-01-17_18h25.01.445,MST_test,2024.2.0,59.86303337856009,2026-01-17 18h25.27.110676 +0530,
57,0,58,o,1.0831942999939201,None,58,0,57,286.22163419998833,,,,,,,,,,,,,,,,,,,,,,,,,,,,,,,,,,,,,,,,,,,,,,,,,,286.20669009999256,286.22163419998833,286.72127559999353,286.70507549999456,286.7103195999953,286.72127559999353,286.72127559999353,286.72127559999353,287.80686219999916,Objects\280b.jpg,post,o,1.0831942999939201,None,,,,00044,001,2026-01-17_18h25.01.445,MST_test,2024.2.0,59.86303337856009,2026-01-17 18h25.27.110676 +0530,
58,0,59,n,2.3680154000030598,None,59,0,58,287.82090259999677,,,,,,,,,,,,,,,,,,,,,,,,,,,,,,,,,,,,,,,,,,,,,,,,,,287.80722999999125,287.82090259999677,288.34857529999863,288.305148799991,288.3455741999933,288.34857529999863,288.34857529999863,288.34857529999863,290.72316369999317,Objects\064b.jpg,post,n,2.3680154000030598,None,,,,00044,001,2026-01-17_18h25.01.445,MST_test,2024.2.0,59.86303337856009,2026-01-17 18h25.27.110676 +0530,
59,0,60,n,1.8532382999983383,None,60,0,59,290.73753639998904,,,,,,,,,,,,,,,,,,,,,,,,,,,,,,,,,,,,,,,,,,,,,,,,,,290.7235073999909,290.73753639998904,291.27928729999985,291.22297949998756,291.2767080999911,291.27928729999985,291.27928729999985,291.27928729999985,293.1394941999897,Objects\158b.jpg,pre,n,1.8532382999983383,None,,,,00044,001,2026-01-17_18h25.01.445,MST_test,2024.2.0,59.86303337856009,2026-01-17 18h25.27.110676 +0530,
60,0,61,s,1.327801300009014,None,61,0,60,293.1543520999985,,,,,,,,,,,,,,,,,,,,,,,,,,,,,,,,,,,,,,,,,,,,,,,,,,293.13991259998875,293.1543520999985,293.70094509999035,293.6387745999964,293.69721939999727,293.70094509999035,293.70094509999035,293.70094509999035,295.0389903999894,Objects\244b.jpg,pre,s,1.327801300009014,None,,,,00044,001,2026-01-17_18h25.01.445,MST_test,2024.2.0,59.86303337856009,2026-01-17 18h25.27.110676 +0530,
61,0,62,o,1.2816931999986991,None,62,0,61,295.05416409998725,,,,,,,,,,,,,,,,,,,,,,,,,,,,,,,,,,,,,,,,,,,,,,,,,,295.0392252999882,295.05416409998725,295.55470739999146,295.5391230999958,295.5452030999877,295.55470739999146,295.55470739999146,295.55470739999146,296.8392141999939,Objects\380a.jpg,post,o,1.2816931999986991,None,,,,00044,001,2026-01-17_18h25.01.445,MST_test,2024.2.0,59.86303337856009,2026-01-17 18h25.27.110676 +0530,
62,0,63,o,1.3136345999955665,None,63,0,62,296.85434469999745,,,,,,,,,,,,,,,,,,,,,,,,,,,,,,,,,,,,,,,,,,,,,,,,,,296.8394425999868,296.85434469999745,297.3544866999873,297.33845939999446,297.34634489999735,297.3544866999873,297.3544866999873,297.3544866999873,298.6732343999902,Objects\084a.jpg,mid,o,1.3136345999955665,None,,,,00044,001,2026-01-17_18h25.01.445,MST_test,2024.2.0,59.86303337856009,2026-01-17 18h25.27.110676 +0530,
63,0,64,o,0.7916187999944668,None,64,0,63,298.6875733999914,,,,,,,,,,,,,,,,,,,,,,,,,,,,,,,,,,,,,,,,,,,,,,,,,,298.6735187999875,298.6875733999914,299.1882326999912,299.17215129999386,299.1783269000007,299.1882326999912,299.1882326999912,299.1882326999912,299.99023679998936,Objects\346a.jpg,post,o,0.7916187999944668,None,,,,00044,001,2026-01-17_18h25.01.445,MST_test,2024.2.0,59.86303337856009,2026-01-17 18h25.27.110676 +0530,
64,0,65,o,2.331171199999517,None,65,0,64,300.0042960999999,,,,,,,,,,,,,,,,,,,,,,,,,,,,,,,,,,,,,,,,,,,,,,,,,,299.9905188999983,300.0042960999999,300.50490319999517,300.48901900000055,300.49505599999975,300.50490319999517,300.50490319999517,300.50490319999517,302.83927050000057,Objects\032a.jpg,post,o,2.331171199999517,None,,,,00044,001,2026-01-17_18h25.01.445,MST_test,2024.2.0,59.86303337856009,2026-01-17 18h25.27.110676 +0530,
65,0,66,o,0.9527407999994466,None,66,0,65,302.8541351999884,,,,,,,,,,,,,,,,,,,,,,,,,,,,,,,,,,,,,,,,,,,,,,,,,,302.8395032999979,302.8541351999884,303.3550963999878,303.3385552999971,303.34655079999357,303.3550963999878,303.3550963999878,303.3550963999878,304.32279249999556,Objects\337a.jpg,post,o,0.9527407999994466,None,,,,00044,001,2026-01-17_18h25.01.445,MST_test,2024.2.0,59.86303337856009,2026-01-17 18h25.27.110676 +0530,
66,0,67,o,2.2551036999939242,None,67,0,66,304.3375279999891,,,,,,,,,,,,,,,,,,,,,,,,,,,,,,,,,,,,,,,,,,,,,,,,,,304.3231539999979,304.3375279999891,304.8378326999955,304.8221612999914,304.8303545999952,304.8378326999955,304.8378326999955,304.8378326999955,307.1064550999872,Objects\161b.jpg,mid,o,2.2551036999939242,None,,,,00044,001,2026-01-17_18h25.01.445,MST_test,2024.2.0,59.86303337856009,2026-01-17 18h25.27.110676 +0530,
67,0,68,n,1.7508651000098325,None,68,0,67,307.12085079999815,,,,,,,,,,,,,,,,,,,,,,,,,,,,,,,,,,,,,,,,,,,,,,,,,,307.1068137999973,307.12085079999815,307.6210946999927,307.6053302999935,307.61282939999364,307.6210946999927,307.6210946999927,307.6210946999927,309.38914639998984,Foils\058a.jpg,none,n,1.7508651000098325,None,,,,00044,001,2026-01-17_18h25.01.445,MST_test,2024.2.0,59.86303337856009,2026-01-17 18h25.27.110676 +0530,
68,0,69,o,0.9855595999979414,None,69,0,68,309.4042597999942,,,,,,,,,,,,,,,,,,,,,,,,,,,,,,,,,,,,,,,,,,,,,,,,,,309.389491199996,309.4042597999942,309.9462031000003,309.8892572999903,309.94335049999063,309.9462031000003,309.9462031000003,309.9462031000003,310.93961619999027,Objects\218b.jpg,pre,o,0.9855595999979414,None,,,,00044,001,2026-01-17_18h25.01.445,MST_test,2024.2.0,59.86303337856009,2026-01-17 18h25.27.110676 +0530,
69,0,70,s,1.6858817000029376,None,70,0,69,310.9541753999947,,,,,,,,,,,,,,,,,,,,,,,,,,,,,,,,,,,,,,,,,,,,,,,,,,310.9399735999905,310.9541753999947,311.45447099999,311.4389005999983,311.4469114999956,311.45447099999,311.45447099999,311.45447099999,313.1563083999936,Objects\127b.jpg,pre,s,1.6858817000029376,None,,,,00044,001,2026-01-17_18h25.01.445,MST_test,2024.2.0,59.86303337856009,2026-01-17 18h25.27.110676 +0530,
70,0,71,s,1.0589613999909488,None,71,0,70,313.17126939998707,,,,,,,,,,,,,,,,,,,,,,,,,,,,,,,,,,,,,,,,,,,,,,,,,,313.1566058999888,313.17126939998707,313.7134475999919,313.6557754999958,313.710471399987,313.7134475999919,313.7134475999919,313.7134475999919,314.7894191999949,Objects\110b.jpg,post,s,1.0589613999909488,None,,,,00044,001,2026-01-17_18h25.01.445,MST_test,2024.2.0,59.86303337856009,2026-01-17 18h25.27.110676 +0530,
71,0,72,n,2.4917331999895396,None,72,0,71,314.80440209999506,,,,,,,,,,,,,,,,,,,,,,,,,,,,,,,,,,,,,,,,,,,,,,,,,,314.7896991999878,314.80440209999506,315.30433469999116,315.28886919999786,315.29668429998856,315.30433469999116,315.30433469999116,315.30433469999116,317.8060151999962,Foils\026a.jpg,none,n,2.4917331999895396,None,,,,00044,001,2026-01-17_18h25.01.445,MST_test,2024.2.0,59.86303337856009,2026-01-17 18h25.27.110676 +0530,
72,0,73,s,1.2305984999984503,None,73,0,72,317.8209465999971,,,,,,,,,,,,,,,,,,,,,,,,,,,,,,,,,,,,,,,,,,,,,,,,,,317.80635309999343,317.8209465999971,318.3657491999911,318.3051850999909,318.36292239998875,318.3657491999911,318.3657491999911,318.3657491999911,319.60666979999223,Objects\109b.jpg,mid,s,1.2305984999984503,None,,,,00044,001,2026-01-17_18h25.01.445,MST_test,2024.2.0,59.86303337856009,2026-01-17 18h25.27.110676 +0530,
73,0,74,s,2.419479800009867,None,74,0,73,319.62087969999993,,,,,,,,,,,,,,,,,,,,,,,,,,,,,,,,,,,,,,,,,,,,,,,,,,319.6070168999868,319.62087969999993,320.15368429999216,320.10527219998767,320.1509412999876,320.15368429999216,320.15368429999216,320.15368429999216,322.5898412999959,Objects\347b.jpg,mid,s,2.419479800009867,None,,,,00044,001,2026-01-17_18h25.01.445,MST_test,2024.2.0,59.86303337856009,2026-01-17 18h25.27.110676 +0530,
74,0,75,o,2.66816519999702,None,75,0,74,322.60476459999336,,,,,,,,,,,,,,,,,,,,,,,,,,,,,,,,,,,,,,,,,,,,,,,,,,322.59022600000026,322.60476459999336,323.1045470999961,323.08853259999887,323.09552099999564,323.1045470999961,323.1045470999961,323.1045470999961,325.78949459998694,Objects\264a.jpg,pre,o,2.66816519999702,None,,,,00044,001,2026-01-17_18h25.01.445,MST_test,2024.2.0,59.86303337856009,2026-01-17 18h25.27.110676 +0530,
75,0,76,o,1.3717947000113782,None,76,0,75,325.80415959999664,,,,,,,,,,,,,,,,,,,,,,,,,,,,,,,,,,,,,,,,,,,,,,,,,,325.78981009998824,325.80415959999664,326.30465919998824,326.2885733999865,326.29766669998935,326.30465919998824,326.30465919998824,326.30465919998824,327.68932289999793,Objects\190a.jpg,post,o,1.3717947000113782,None,,,,00044,001,2026-01-17_18h25.01.445,MST_test,2024.2.0,59.86303337856009,2026-01-17 18h25.27.110676 +0530,
76,0,77,o,6.043398800000432,None,77,0,76,327.7041177999927,,,,,,,,,,,,,,,,,,,,,,,,,,,,,,,,,,,,,,,,,,,,,,,,,,327.6897272999922,327.7041177999927,328.22517309999967,328.18865939999523,328.22220609999204,328.22517309999967,328.22517309999967,328.22517309999967,334.272664899996,Objects\356b.jpg,post,o,6.043398800000432,None,,,,00044,001,2026-01-17_18h25.01.445,MST_test,2024.2.0,59.86303337856009,2026-01-17 18h25.27.110676 +0530,
77,0,78,o,1.0010021000052802,None,78,0,77,334.28754969999136,,,,,,,,,,,,,,,,,,,,,,,,,,,,,,,,,,,,,,,,,,,,,,,,,,334.27292209998996,334.28754969999136,334.81184279998706,334.7720249999984,334.8092844999919,334.81184279998706,334.81184279998706,334.81184279998706,335.82292579999194,Objects\040b.jpg,mid,o,1.0010021000052802,None,,,,00044,001,2026-01-17_18h25.01.445,MST_test,2024.2.0,59.86303337856009,2026-01-17 18h25.27.110676 +0530,
78,0,79,n,1.486090400008834,None,79,0,78,335.8375295000005,,,,,,,,,,,,,,,,,,,,,,,,,,,,,,,,,,,,,,,,,,,,,,,,,,335.8232433999947,335.8375295000005,336.4386885999993,336.3221835000004,336.4359698999906,336.4386885999993,336.4386885999993,336.4386885999993,337.9393735999911,Objects\159b.jpg,mid,n,1.486090400008834,None,,,,00044,001,2026-01-17_18h25.01.445,MST_test,2024.2.0,59.86303337856009,2026-01-17 18h25.27.110676 +0530,
79,0,80,s,2.8773898999934318,None,80,0,79,337.954336099996,,,,,,,,,,,,,,,,,,,,,,,,,,,,,,,,,,,,,,,,,,,,,,,,,,337.9396919999999,337.954336099996,338.4545794999867,338.4385037999891,338.44717149999633,338.4545794999867,338.4545794999867,338.4545794999867,341.3404678999941,Objects\296a.jpg,post,s,2.8773898999934318,None,,,,00044,001,2026-01-17_18h25.01.445,MST_test,2024.2.0,59.86303337856009,2026-01-17 18h25.27.110676 +0530,
80,0,81,n,1.3652366000023903,None,81,0,80,341.354471499988,,,,,,,,,,,,,,,,,,,,,,,,,,,,,,,,,,,,,,,,,,,,,,,,,,341.3407692999899,341.354471499988,341.85493329999736,341.83861399999296,341.84465590000036,341.85493329999736,341.85493329999736,341.85493329999736,343.22312450000027,Foils\082a.jpg,none,n,1.3652366000023903,None,,,,00044,001,2026-01-17_18h25.01.445,MST_test,2024.2.0,59.86303337856009,2026-01-17 18h25.27.110676 +0530,
81,0,82,s,1.1777367000031518,None,82,0,81,343.23744939999597,,,,,,,,,,,,,,,,,,,,,,,,,,,,,,,,,,,,,,,,,,,,,,,,,,343.2234148999996,343.23744939999597,343.7385274999979,343.72186049999436,343.7295426999917,343.7385274999979,343.7385274999979,343.7385274999979,344.9224007999874,Objects\079b.jpg,mid,s,1.1777367000031518,None,,,,00044,001,2026-01-17_18h25.01.445,MST_test,2024.2.0,59.86303337856009,2026-01-17 18h25.27.110676 +0530,
82,0,83,s,2.0230378999985987,None,83,0,82,344.93740889999026,,,,,,,,,,,,,,,,,,,,,,,,,,,,,,,,,,,,,,,,,,,,,,,,,,344.92272709999816,344.93740889999026,345.4376309999934,345.4219427999924,345.42805309999676,345.4376309999934,345.4376309999934,345.4376309999934,347.4728958999913,Objects\062a.jpg,mid,s,2.0230378999985987,None,,,,00044,001,2026-01-17_18h25.01.445,MST_test,2024.2.0,59.86303337856009,2026-01-17 18h25.27.110676 +0530,
83,0,84,o,1.488024599995697,None,84,0,83,347.4875447999948,,,,,,,,,,,,,,,,,,,,,,,,,,,,,,,,,,,,,,,,,,,,,,,,,,347.47314019998885,347.4875447999948,347.9877550999954,347.9718845999887,347.9790892999881,347.9877550999954,347.9877550999954,347.9877550999954,349.4896178999916,Objects\179a.jpg,post,o,1.488024599995697,None,,,,00044,001,2026-01-17_18h25.01.445,MST_test,2024.2.0,59.86303337856009,2026-01-17 18h25.27.110676 +0530,
84,0,85,n,1.3438361000007717,None,85,0,84,349.5045243999921,,,,,,,,,,,,,,,,,,,,,,,,,,,,,,,,,,,,,,,,,,,,,,,,,,349.4899083999917,349.5045243999921,350.00521299999673,349.98855059999914,349.9955707999907,350.00521299999673,350.00521299999673,350.00521299999673,351.35591379999823,Foils\033a.jpg,none,n,1.3438361000007717,None,,,,00044,001,2026-01-17_18h25.01.445,MST_test,2024.2.0,59.86303337856009,2026-01-17 18h25.27.110676 +0530,
85,0,86,o,1.476882699993439,None,86,0,85,351.3707887999917,,,,,,,,,,,,,,,,,,,,,,,,,,,,,,,,,,,,,,,,,,,,,,,,,,351.35613909999665,351.3707887999917,351.8713545999926,351.8555531999882,351.8622417999868,351.8713545999926,351.8713545999926,351.8713545999926,353.35604839998996,Objects\281a.jpg,mid,o,1.476882699993439,None,,,,00044,001,2026-01-17_18h25.01.445,MST_test,2024.2.0,59.86303337856009,2026-01-17 18h25.27.110676 +0530,
86,0,87,s,1.286067200009711,None,87,0,86,353.3708534999896,,,,,,,,,,,,,,,,,,,,,,,,,,,,,,,,,,,,,,,,,,,,,,,,,,353.3564366999926,353.3708534999896,353.9185933999979,353.85525389999384,353.9143134999904,353.9185933999979,353.9185933999979,353.9185933999979,355.20664649999526,Objects\164b.jpg,pre,s,1.286067200009711,None,,,,00044,001,2026-01-17_18h25.01.445,MST_test,2024.2.0,59.86303337856009,2026-01-17 18h25.27.110676 +0530,
87,0,88,s,5.779244399993331,None,88,0,87,355.22089649998816,,,,,,,,,,,,,,,,,,,,,,,,,,,,,,,,,,,,,,,,,,,,,,,,,,355.20692439998675,355.22089649998816,355.72131699998863,355.7054385999945,355.7103528000007,355.72131699998863,355.72131699998863,355.72131699998863,361.50628609998967,Objects\292a.jpg,post,s,5.779244399993331,None,,,,00044,001,2026-01-17_18h25.01.445,MST_test,2024.2.0,59.86303337856009,2026-01-17 18h25.27.110676 +0530,
88,0,89,o,0.9673412999982247,None,89,0,88,361.5207769999979,,,,,,,,,,,,,,,,,,,,,,,,,,,,,,,,,,,,,,,,,,,,,,,,,,361.50669379999454,361.5207769999979,362.0214973999973,362.00527709999005,362.0138479999878,362.0214973999973,362.0214973999973,362.0214973999973,363.0061199999909,Objects\097a.jpg,pre,o,0.9673412999982247,None,,,,00044,001,2026-01-17_18h25.01.445,MST_test,2024.2.0,59.86303337856009,2026-01-17 18h25.27.110676 +0530,
89,0,90,n,1.4754189000086626,None,90,0,89,363.0211361999973,,,,,,,,,,,,,,,,,,,,,,,,,,,,,,,,,,,,,,,,,,,,,,,,,,363.0064752999897,363.0211361999973,363.5210580999992,363.50510629999917,363.5126958999899,363.5210580999992,363.5210580999992,363.5210580999992,365.0063208999927,Foils\097a.jpg,none,n,1.4754189000086626,None,,,,00044,001,2026-01-17_18h25.01.445,MST_test,2024.2.0,59.86303337856009,2026-01-17 18h25.27.110676 +0530,
90,0,91,s,2.699639300000854,None,91,0,90,365.02081409998937,,,,,,,,,,,,,,,,,,,,,,,,,,,,,,,,,,,,,,,,,,,,,,,,,,365.00667239999166,365.02081409998937,365.5211382999987,365.5051822999958,365.5115933999914,365.5211382999987,365.5211382999987,365.5211382999987,368.2229976999952,Foils\042a.jpg,none,s,2.699639300000854,None,,,,00044,001,2026-01-17_18h25.01.445,MST_test,2024.2.0,59.86303337856009,2026-01-17 18h25.27.110676 +0530,
91,0,92,n,2.1939410000049975,None,92,0,91,368.2381719999976,,,,,,,,,,,,,,,,,,,,,,,,,,,,,,,,,,,,,,,,,,,,,,,,,,368.223393399996,368.2381719999976,368.73777609999524,368.7218628999981,368.7295308999892,368.73777609999524,368.73777609999524,368.73777609999524,370.9393554999988,Objects\135a.jpg,pre,n,2.1939410000049975,None,,,,00044,001,2026-01-17_18h25.01.445,MST_test,2024.2.0,59.86303337856009,2026-01-17 18h25.27.110676 +0530,
92,0,93,n,1.0396104999963427,None,93,0,92,370.9544459999888,,,,,,,,,,,,,,,,,,,,,,,,,,,,,,,,,,,,,,,,,,,,,,,,,,370.9396207999962,370.9544459999888,371.4926167999947,371.43860799999675,371.4892966999905,371.4926167999947,371.4926167999947,371.4926167999947,372.53927829999884,Objects\228b.jpg,pre,n,1.0396104999963427,None,,,,00044,001,2026-01-17_18h25.01.445,MST_test,2024.2.0,59.86303337856009,2026-01-17 18h25.27.110676 +0530,
93,0,94,n,1.18117809999967,None,94,0,93,372.5545459999994,,,,,,,,,,,,,,,,,,,,,,,,,,,,,,,,,,,,,,,,,,,,,,,,,,372.5395367999881,372.5545459999994,373.05512889999954,373.03892249999626,373.04762449998816,373.05512889999954,373.05512889999954,373.05512889999954,374.24007639999036,Objects\252a.jpg,post,n,1.18117809999967,None,,,,00044,001,2026-01-17_18h25.01.445,MST_test,2024.2.0,59.86303337856009,2026-01-17 18h25.27.110676 +0530,
94,0,95,n,1.4823962999944342,None,95,0,94,374.2543871999951,,,,,,,,,,,,,,,,,,,,,,,,,,,,,,,,,,,,,,,,,,,,,,,,,,374.2403426999954,374.2543871999951,374.7544840999908,374.73873129999265,374.74409119998745,374.7544840999908,374.7544840999908,374.7544840999908,376.2397729999939,Objects\122a.jpg,post,n,1.4823962999944342,None,,,,00044,001,2026-01-17_18h25.01.445,MST_test,2024.2.0,59.86303337856009,2026-01-17 18h25.27.110676 +0530,
95,0,96,s,2.8826529000070877,None,96,0,95,376.254199899995,,,,,,,,,,,,,,,,,,,,,,,,,,,,,,,,,,,,,,,,,,,,,,,,,,376.2400134999916,376.254199899995,376.75419729998976,376.7374987999938,376.74056709998695,376.75419729998976,376.75419729998976,376.75419729998976,379.64048859999457,Objects\328a.jpg,post,s,2.8826529000070877,None,,,,00044,001,2026-01-17_18h25.01.445,MST_test,2024.2.0,59.86303337856009,2026-01-17 18h25.27.110676 +0530,
96,0,97,s,0.9393573000124888,None,97,0,96,379.6542107999994,,,,,,,,,,,,,,,,,,,,,,,,,,,,,,,,,,,,,,,,,,,,,,,,,,379.64088269999775,379.6542107999994,380.1931986999989,380.13854960000026,380.1904968999879,380.1931986999989,380.1931986999989,380.1931986999989,381.139743599997,Objects\305b.jpg,pre,s,0.9393573000124888,None,,,,00044,001,2026-01-17_18h25.01.445,MST_test,2024.2.0,59.86303337856009,2026-01-17 18h25.27.110676 +0530,
97,0,98,s,2.5414557000040077,None,98,0,97,381.15420529998664,,,,,,,,,,,,,,,,,,,,,,,,,,,,,,,,,,,,,,,,,,,,,,,,,,381.1401612999907,381.15420529998664,381.65511879998667,381.63846170000033,381.6462926999957,381.65511879998667,381.65511879998667,381.65511879998667,384.20645610000065,Objects\374a.jpg,mid,s,2.5414557000040077,None,,,,00044,001,2026-01-17_18h25.01.445,MST_test,2024.2.0,59.86303337856009,2026-01-17 18h25.27.110676 +0530,
98,0,99,o,0.866679099999601,None,99,0,98,384.2208635999996,,,,,,,,,,,,,,,,,,,,,,,,,,,,,,,,,,,,,,,,,,,,,,,,,,384.20683629999985,384.2208635999996,384.7214654999989,384.7059420999867,384.7115696999972,384.7214654999989,384.7214654999989,384.7214654999989,385.5901812999946,Objects\027a.jpg,mid,o,0.866679099999601,None,,,,00044,001,2026-01-17_18h25.01.445,MST_test,2024.2.0,59.86303337856009,2026-01-17 18h25.27.110676 +0530,
99,0,100,o,1.2916291000001365,None,100,0,99,385.60417989999405,,,,,,,,,,,,,,,,,,,,,,,,,,,,,,,,,,,,,,,,,,,,,,,,,,385.59056159999454,385.60417989999405,386.10460299999977,386.08845859998837,386.096380899995,386.10460299999977,386.10460299999977,386.10460299999977,387.4063165999978,Objects\035a.jpg,post,o,1.2916291000001365,None,,,,00044,001,2026-01-17_18h25.01.445,MST_test,2024.2.0,59.86303337856009,2026-01-17 18h25.27.110676 +0530,
100,0,101,s,8.66658789999201,None,101,0,100,387.420821599997,,,,,,,,,,,,,,,,,,,,,,,,,,,,,,,,,,,,,,,,,,,,,,,,,,387.4066352999944,387.420821599997,387.9211328999954,387.9053615999874,387.9111707999982,387.9211328999954,387.9211328999954,387.9211328999954,396.59046589999343,Foils\034a.jpg,none,s,8.66658789999201,None,,,,00044,001,2026-01-17_18h25.01.445,MST_test,2024.2.0,59.86303337856009,2026-01-17 18h25.27.110676 +0530,
101,0,102,n,2.2049870000046212,None,102,0,101,396.6052736999991,,,,,,,,,,,,,,,,,,,,,,,,,,,,,,,,,,,,,,,,,,,,,,,,,,396.59088209999027,396.6052736999991,,397.10553639999125,397.1481019999919,397.1510929999931,397.1510929999931,397.1510929999931,399.37272439998924,Objects\108b.jpg,pre,n,2.2049870000046212,None,,,,00044,001,2026-01-17_18h25.01.445,MST_test,2024.2.0,59.86303337856009,2026-01-17 18h25.27.110676 +0530,
102,0,103,n,2.037006400001701,None,103,0,102,399.38757559999067,,,,,,,,,,,,,,,,,,,,,,,,,,,,,,,,,,,,,,,,,,,,,,,,,,399.37306709999393,399.38757559999067,399.8873939999903,399.87115439999616,399.87424089999695,399.8873939999903,399.8873939999903,399.8873939999903,401.9398804999946,Foils\049a.jpg,none,n,2.037006400001701,None,,,,00044,001,2026-01-17_18h25.01.445,MST_test,2024.2.0,59.86303337856009,2026-01-17 18h25.27.110676 +0530,
103,0,104,o,1.4624454000004334,None,104,0,103,401.95424139998795,,,,,,,,,,,,,,,,,,,,,,,,,,,,,,,,,,,,,,,,,,,,,,,,,,401.9401695999986,401.95424139998795,402.4545698999864,402.4387197999895,402.4475817999919,402.4545698999864,402.4545698999864,402.4545698999864,403.92243919998873,Objects\233a.jpg,mid,o,1.4624454000004334,None,,,,00044,001,2026-01-17_18h25.01.445,MST_test,2024.2.0,59.86303337856009,2026-01-17 18h25.27.110676 +0530,
104,0,105,n,1.3739466999977594,None,105,0,104,403.9374803999963,,,,,,,,,,,,,,,,,,,,,,,,,,,,,,,,,,,,,,,,,,,,,,,,,,403.92270329999155,403.9374803999963,404.4377931999916,404.4224375999911,404.4297358999902,404.4377931999916,404.4377931999916,404.4377931999916,405.82292739998957,Foils\f7.jpg,none,n,1.3739466999977594,None,,,,00044,001,2026-01-17_18h25.01.445,MST_test,2024.2.0,59.86303337856009,2026-01-17 18h25.27.110676 +0530,
105,0,106,o,2.930792500003008,None,106,0,105,405.83762679999927,,,,,,,,,,,,,,,,,,,,,,,,,,,,,,,,,,,,,,,,,,,,,,,,,,405.8231880999956,405.83762679999927,406.3373358999961,406.3220486999926,406.3317313000007,406.3373358999961,406.3373358999961,406.3373358999961,409.27319669999997,Objects\002a.jpg,pre,o,2.930792500003008,None,,,,00044,001,2026-01-17_18h25.01.445,MST_test,2024.2.0,59.86303337856009,2026-01-17 18h25.27.110676 +0530,
106,0,107,s,0.8966369999980088,None,107,0,106,409.2878131999896,,,,,,,,,,,,,,,,,,,,,,,,,,,,,,,,,,,,,,,,,,,,,,,,,,409.2736068999948,409.2878131999896,409.7876586999919,409.77188629999,409.7793893999915,409.7876586999919,409.7876586999919,409.7876586999919,410.6899185999937,Objects\116a.jpg,pre,s,0.8966369999980088,None,,,,00044,001,2026-01-17_18h25.01.445,MST_test,2024.2.0,59.86303337856009,2026-01-17 18h25.27.110676 +0530,
107,0,108,s,2.0081860999925993,None,108,0,107,410.70448449999094,,,,,,,,,,,,,,,,,,,,,,,,,,,,,,,,,,,,,,,,,,,,,,,,,,410.6902846999874,410.70448449999094,411.2602920999925,411.1885016999877,411.2574314999947,411.2602920999925,411.2602920999925,411.2602920999925,413.2725569999893,Objects\378b.jpg,post,s,2.0081860999925993,None,,,,00044,001,2026-01-17_18h25.01.445,MST_test,2024.2.0,59.86303337856009,2026-01-17 18h25.27.110676 +0530,
108,0,109,s,3.167828899997403,None,109,0,108,413.2874687000003,,,,,,,,,,,,,,,,,,,,,,,,,,,,,,,,,,,,,,,,,,,,,,,,,,413.27289069999824,413.2874687000003,413.78784199999063,413.7719248999929,413.7792686999892,413.78784199999063,413.78784199999063,413.78784199999063,416.9727309999871,Foils\050a.jpg,none,s,3.167828899997403,None,,,,00044,001,2026-01-17_18h25.01.445,MST_test,2024.2.0,59.86303337856009,2026-01-17 18h25.27.110676 +0530,
109,0,110,s,1.2445957000018097,None,110,0,109,416.98775190000015,,,,,,,,,,,,,,,,,,,,,,,,,,,,,,,,,,,,,,,,,,,,,,,,,,416.973015399999,416.98775190000015,417.4881800999865,417.4721847999899,417.479131199987,417.4881800999865,417.4881800999865,417.4881800999865,418.7396451999957,Objects\322b.jpg,pre,s,1.2445957000018097,None,,,,00044,001,2026-01-17_18h25.01.445,MST_test,2024.2.0,59.86303337856009,2026-01-17 18h25.27.110676 +0530,
110,0,111,n,1.6047798000072362,None,111,0,110,418.7545366999984,,,,,,,,,,,,,,,,,,,,,,,,,,,,,,,,,,,,,,,,,,,,,,,,,,418.7401271999988,418.7545366999984,419.25482469999406,419.2385525999998,419.2457912999962,419.25482469999406,419.25482469999406,419.25482469999406,420.87258219999785,Foils\073a.jpg,none,n,1.6047798000072362,None,,,,00044,001,2026-01-17_18h25.01.445,MST_test,2024.2.0,59.86303337856009,2026-01-17 18h25.27.110676 +0530,
111,0,112,o,1.559766500009573,None,112,0,111,420.8875371999893,,,,,,,,,,,,,,,,,,,,,,,,,,,,,,,,,,,,,,,,,,,,,,,,,,420.87281559999974,420.8875371999893,421.387917199987,421.3718327999959,421.3814907999913,421.387917199987,421.387917199987,421.387917199987,422.9563264999888,Objects\260a.jpg,post,o,1.559766500009573,None,,,,00044,001,2026-01-17_18h25.01.445,MST_test,2024.2.0,59.86303337856009,2026-01-17 18h25.27.110676 +0530,
112,0,113,o,0.949689799992484,None,113,0,112,422.97076959999686,,,,,,,,,,,,,,,,,,,,,,,,,,,,,,,,,,,,,,,,,,,,,,,,,,422.9566228999902,422.97076959999686,423.4710672999936,423.45533169999544,423.4617157999892,423.4710672999936,423.4710672999936,423.4710672999936,424.42357549999724,Objects\341a.jpg,pre,o,0.949689799992484,None,,,,00044,001,2026-01-17_18h25.01.445,MST_test,2024.2.0,59.86303337856009,2026-01-17 18h25.27.110676 +0530,
113,0,114,o,1.2743049999990035,None,114,0,113,424.43759869999485,,,,,,,,,,,,,,,,,,,,,,,,,,,,,,,,,,,,,,,,,,,,,,,,,,424.42400749999797,424.43759869999485,424.9380683999916,424.9221002999984,424.9283340999973,424.9380683999916,424.9380683999916,424.9380683999916,426.2229501999973,Objects\287a.jpg,pre,o,1.2743049999990035,None,,,,00044,001,2026-01-17_18h25.01.445,MST_test,2024.2.0,59.86303337856009,2026-01-17 18h25.27.110676 +0530,
114,0,115,n,4.579421500005992,None,115,0,114,426.2374545999919,,,,,,,,,,,,,,,,,,,,,,,,,,,,,,,,,,,,,,,,,,,,,,,,,,426.2232812000002,426.2374545999919,426.82498959999066,426.72202749999997,426.8214475999994,426.82498959999066,426.82498959999066,426.82498959999066,431.4076714999974,Objects\104b.jpg,post,n,4.579421500005992,None,,,,00044,001,2026-01-17_18h25.01.445,MST_test,2024.2.0,59.86303337856009,2026-01-17 18h25.27.110676 +0530,
115,0,116,n,0.9514747000066563,None,116,0,115,431.42123939999146,,,,,,,,,,,,,,,,,,,,,,,,,,,,,,,,,,,,,,,,,,,,,,,,,,431.4080995999975,431.42123939999146,431.96478739999293,431.90531779998855,431.96151359999203,431.96478739999293,431.96478739999293,431.96478739999293,432.9228127999959,Objects\131b.jpg,mid,n,0.9514747000066563,None,,,,00044,001,2026-01-17_18h25.01.445,MST_test,2024.2.0,59.86303337856009,2026-01-17 18h25.27.110676 +0530,
116,0,117,o,1.334256699992693,None,117,0,116,432.9376107999997,,,,,,,,,,,,,,,,,,,,,,,,,,,,,,,,,,,,,,,,,,,,,,,,,,432.92305709999346,432.9376107999997,433.4699823999981,433.4219233999902,433.4657060999889,433.4699823999981,433.4699823999981,433.4699823999981,434.8069095999963,Objects\266b.jpg,mid,o,1.334256699992693,None,,,,00044,001,2026-01-17_18h25.01.445,MST_test,2024.2.0,59.86303337856009,2026-01-17 18h25.27.110676 +0530,
117,0,118,o,3.4737951999995857,None,118,0,117,434.8208358999982,,,,,,,,,,,,,,,,,,,,,,,,,,,,,,,,,,,,,,,,,,,,,,,,,,434.8072411999892,434.8208358999982,435.3394833999919,435.3058403999894,435.335963599995,435.3394833999919,435.3394833999919,435.3394833999919,438.82283269999607,Objects\143b.jpg,pre,o,3.4737951999995857,None,,,,00044,001,2026-01-17_18h25.01.445,MST_test,2024.2.0,59.86303337856009,2026-01-17 18h25.27.110676 +0530,
118,0,119,n,7.658288999999058,None,119,0,118,438.83774069999345,,,,,,,,,,,,,,,,,,,,,,,,,,,,,,,,,,,,,,,,,,,,,,,,,,438.82313809999323,438.83774069999345,439.3699845999945,439.32200689999445,439.36691099999007,439.3699845999945,439.3699845999945,439.3699845999945,447.03953949999413,Objects\258b.jpg,pre,n,7.658288999999058,None,,,,00044,001,2026-01-17_18h25.01.445,MST_test,2024.2.0,59.86303337856009,2026-01-17 18h25.27.110676 +0530,
119,0,120,o,1.1369703999953344,None,120,0,119,447.05420539999614,,,,,,,,,,,,,,,,,,,,,,,,,,,,,,,,,,,,,,,,,,,,,,,,,,447.03988889999164,447.05420539999614,447.5547903999977,447.5387050999998,447.54652439999336,447.5547903999977,447.5547903999977,447.5547903999977,448.706477499989,Objects\241a.jpg,mid,o,1.1369703999953344,None,,,,00044,001,2026-01-17_18h25.01.445,MST_test,2024.2.0,59.86303337856009,2026-01-17 18h25.27.110676 +0530,
120,0,121,n,2.3282938999909675,None,121,0,120,448.7213766999921,,,,,,,,,,,,,,,,,,,,,,,,,,,,,,,,,,,,,,,,,,,,,,,,,,448.70689349999884,448.7213766999921,449.2212700999953,449.2055185999925,449.2122643999901,449.2212700999953,449.2212700999953,449.2212700999953,451.5565319999878,Foils\093b.jpg,none,n,2.3282938999909675,None,,,,00044,001,2026-01-17_18h25.01.445,MST_test,2024.2.0,59.86303337856009,2026-01-17 18h25.27.110676 +0530,
121,0,122,n,3.485299499996472,None,122,0,121,451.57081029999244,,,,,,,,,,,,,,,,,,,,,,,,,,,,,,,,,,,,,,,,,,,,,,,,,,451.55683139999746,451.57081029999244,452.0713812999893,452.0560221999913,452.0634354999929,452.0713812999893,452.0713812999893,452.0713812999893,455.57413709998946,Foils\101b.jpg,none,n,3.485299499996472,None,,,,00044,001,2026-01-17_18h25.01.445,MST_test,2024.2.0,59.86303337856009,2026-01-17 18h25.27.110676 +0530,
122,0,123,o,0.964143499993952,None,123,0,122,455.5874116999912,,,,,,,,,,,,,,,,,,,,,,,,,,,,,,,,,,,,,,,,,,,,,,,,,,455.57448809999914,455.5874116999912,456.08780699998897,456.071904299999,456.07751439999265,456.08780699998897,456.08780699998897,456.08780699998897,457.0562932999892,Objects\037a.jpg,post,o,0.964143499993952,None,,,,00044,001,2026-01-17_18h25.01.445,MST_test,2024.2.0,59.86303337856009,2026-01-17 18h25.27.110676 +0530,
123,0,124,s,2.9522237999917706,None,124,0,123,457.0708145999961,,,,,,,,,,,,,,,,,,,,,,,,,,,,,,,,,,,,,,,,,,,,,,,,,,457.0566542999877,457.0708145999961,457.57164369999373,457.5552897999878,457.5621054999938,457.57164369999373,457.57164369999373,457.57164369999373,460.5395261999947,Objects\042a.jpg,pre,s,2.9522237999917706,None,,,,00044,001,2026-01-17_18h25.01.445,MST_test,2024.2.0,59.86303337856009,2026-01-17 18h25.27.110676 +0530,
124,0,125,o,1.0148296999977902,None,125,0,124,460.5541916999937,,,,,,,,,,,,,,,,,,,,,,,,,,,,,,,,,,,,,,,,,,,,,,,,,,460.5397615999973,460.5541916999937,461.05437499999243,461.0394459999952,461.0475470999954,461.05437499999243,461.05437499999243,461.05437499999243,462.0726266999991,Objects\146b.jpg,pre,o,1.0148296999977902,None,,,,00044,001,2026-01-17_18h25.01.445,MST_test,2024.2.0,59.86303337856009,2026-01-17 18h25.27.110676 +0530,
125,0,126,o,1.0207178999989992,None,126,0,125,462.08741519998875,,,,,,,,,,,,,,,,,,,,,,,,,,,,,,,,,,,,,,,,,,,,,,,,,,462.07292799999414,462.08741519998875,462.6399626999919,462.57204569999885,462.63748099999793,462.6399626999919,462.6399626999919,462.6399626999919,463.67279149999376,Objects\070b.jpg,mid,o,1.0207178999989992,None,,,,00044,001,2026-01-17_18h25.01.445,MST_test,2024.2.0,59.86303337856009,2026-01-17 18h25.27.110676 +0530,
126,0,127,o,2.297024400002556,None,127,0,126,463.68757009999536,,,,,,,,,,,,,,,,,,,,,,,,,,,,,,,,,,,,,,,,,,,,,,,,,,463.6730488999892,463.68757009999536,464.18776099999377,464.1721816999925,464.17776179999055,464.18776099999377,464.18776099999377,464.18776099999377,466.4897437999898,Objects\279a.jpg,mid,o,2.297024400002556,None,,,,00044,001,2026-01-17_18h25.01.445,MST_test,2024.2.0,59.86303337856009,2026-01-17 18h25.27.110676 +0530,
127,0,128,o,0.9185323999990942,None,128,0,127,466.5045659999887,,,,,,,,,,,,,,,,,,,,,,,,,,,,,,,,,,,,,,,,,,,,,,,,,,466.4901594999974,466.5045659999887,467.0057036999933,466.98863919998985,466.9953112999938,467.0057036999933,467.0057036999933,467.0057036999933,467.9405238999898,Objects\382a.jpg,pre,o,0.9185323999990942,None,,,,00044,001,2026-01-17_18h25.01.445,MST_test,2024.2.0,59.86303337856009,2026-01-17 18h25.27.110676 +0530,
128,0,129,o,2.693160099996021,None,129,0,128,467.9542061999964,,,,,,,,,,,,,,,,,,,,,,,,,,,,,,,,,,,,,,,,,,,,,,,,,,467.94091559998924,467.9542061999964,468.45498450000014,468.43860609999683,468.44801059999736,468.45498450000014,468.45498450000014,468.45498450000014,471.1561584999872,Objects\197a.jpg,mid,o,2.693160099996021,None,,,,00044,001,2026-01-17_18h25.01.445,MST_test,2024.2.0,59.86303337856009,2026-01-17 18h25.27.110676 +0530,
129,0,130,n,1.7978423000022303,None,130,0,129,471.1709497999982,,,,,,,,,,,,,,,,,,,,,,,,,,,,,,,,,,,,,,,,,,,,,,,,,,471.15662509998947,471.1709497999982,471.6712504999887,471.6554283999867,471.66325069998857,471.6712504999887,471.6712504999887,471.6712504999887,473.4725943999947,Objects\059a.jpg,pre,n,1.7978423000022303,None,,,,00044,001,2026-01-17_18h25.01.445,MST_test,2024.2.0,59.86303337856009,2026-01-17 18h25.27.110676 +0530,
130,0,131,o,0.9361127000011038,None,131,0,130,473.48752739999327,,,,,,,,,,,,,,,,,,,,,,,,,,,,,,,,,,,,,,,,,,,,,,,,,,473.47299719999137,473.48752739999327,474.02048389999254,473.97210309999355,473.97917269999743,474.02048389999254,474.02048389999254,474.02048389999254,474.97251379999216,Objects\153a.jpg,pre,o,0.9361127000011038,None,,,,00044,001,2026-01-17_18h25.01.445,MST_test,2024.2.0,59.86303337856009,2026-01-17 18h25.27.110676 +0530,
131,0,132,n,1.132391599996481,None,132,0,131,474.9877613999997,,,,,,,,,,,,,,,,,,,,,,,,,,,,,,,,,,,,,,,,,,,,,,,,,,474.97275589998753,474.9877613999997,475.48767259999295,475.47200399999565,475.4805590999895,475.48767259999295,475.48767259999295,475.48767259999295,476.62320719999843,Foils\002a.jpg,none,n,1.132391599996481,None,,,,00044,001,2026-01-17_18h25.01.445,MST_test,2024.2.0,59.86303337856009,2026-01-17 18h25.27.110676 +0530,
132,0,133,o,1.8825837000040337,None,133,0,132,476.6375757999922,,,,,,,,,,,,,,,,,,,,,,,,,,,,,,,,,,,,,,,,,,,,,,,,,,476.62345809998806,476.6375757999922,477.13802790000045,477.1219068999926,477.1294271999941,477.13802790000045,477.13802790000045,477.13802790000045,479.02288489999773,Objects\316a.jpg,mid,o,1.8825837000040337,None,,,,00044,001,2026-01-17_18h25.01.445,MST_test,2024.2.0,59.86303337856009,2026-01-17 18h25.27.110676 +0530,
133,0,134,o,0.8257659999944735,None,134,0,133,479.03754049999407,,,,,,,,,,,,,,,,,,,,,,,,,,,,,,,,,,,,,,,,,,,,,,,,,,479.02328009999474,479.03754049999407,479.5380107999954,479.52274839999154,479.5311820999923,479.5380107999954,479.5380107999954,479.5380107999954,480.3730721999891,Objects\018a.jpg,post,o,0.8257659999944735,None,,,,00044,001,2026-01-17_18h25.01.445,MST_test,2024.2.0,59.86303337856009,2026-01-17 18h25.27.110676 +0530,
134,0,135,s,4.0683038999995915,None,135,0,134,480.38757319998695,,,,,,,,,,,,,,,,,,,,,,,,,,,,,,,,,,,,,,,,,,,,,,,,,,480.37334510000073,480.38757319998695,480.90432959998725,480.8721602000005,480.90204289999383,480.90432959998725,480.90432959998725,480.90432959998725,484.9890407999919,Objects\212b.jpg,post,s,4.0683038999995915,None,,,,00044,001,2026-01-17_18h25.01.445,MST_test,2024.2.0,59.86303337856009,2026-01-17 18h25.27.110676 +0530,
135,0,136,s,1.4677320000046166,None,136,0,135,485.0042437999946,,,,,,,,,,,,,,,,,,,,,,,,,,,,,,,,,,,,,,,,,,,,,,,,,,484.9892744999961,485.0042437999946,485.5368400999869,485.48851929999364,485.53385799999523,485.5368400999869,485.5368400999869,485.5368400999869,487.0067396999948,Objects\183b.jpg,post,s,1.4677320000046166,None,,,,00044,001,2026-01-17_18h25.01.445,MST_test,2024.2.0,59.86303337856009,2026-01-17 18h25.27.110676 +0530,
136,0,137,o,4.067528300001868,None,137,0,136,487.0208846999885,,,,,,,,,,,,,,,,,,,,,,,,,,,,,,,,,,,,,,,,,,,,,,,,,,487.0069949999888,487.0208846999885,487.5211127999937,487.50549820000015,487.5120164999971,487.5211127999937,487.5211127999937,487.5211127999937,491.60581499998807,Foils\057a.jpg,none,o,4.067528300001868,None,,,,00044,001,2026-01-17_18h25.01.445,MST_test,2024.2.0,59.86303337856009,2026-01-17 18h25.27.110676 +0530,
137,0,138,n,2.1469559999968624,None,138,0,137,491.6209486999869,,,,,,,,,,,,,,,,,,,,,,,,,,,,,,,,,,,,,,,,,,,,,,,,,,491.6060969999962,491.6209486999869,492.1210624999949,492.10518749999756,492.11347439998644,492.1210624999949,492.1210624999949,492.1210624999949,494.2729212999984,Foils\018a.jpg,none,n,2.1469559999968624,None,,,,00044,001,2026-01-17_18h25.01.445,MST_test,2024.2.0,59.86303337856009,2026-01-17 18h25.27.110676 +0530,
138,0,139,n,1.9928568999894196,None,139,0,138,494.28757960000075,,,,,,,,,,,,,,,,,,,,,,,,,,,,,,,,,,,,,,,,,,,,,,,,,,494.2732918999973,494.28757960000075,494.78803609999886,494.7722950999887,494.778539299994,494.78803609999886,494.78803609999886,494.78803609999886,496.78960299999744,Objects\345b.jpg,post,n,1.9928568999894196,None,,,,00044,001,2026-01-17_18h25.01.445,MST_test,2024.2.0,59.86303337856009,2026-01-17 18h25.27.110676 +0530,
139,0,140,o,0.9634213999961503,None,140,0,139,496.80406379999476,,,,,,,,,,,,,,,,,,,,,,,,,,,,,,,,,,,,,,,,,,,,,,,,,,496.7898455999966,496.80406379999476,497.30456399999093,497.2885765999963,497.29855189999216,497.30456399999093,497.30456399999093,497.30456399999093,498.273146099993,Objects\213a.jpg,pre,o,0.9634213999961503,None,,,,00044,001,2026-01-17_18h25.01.445,MST_test,2024.2.0,59.86303337856009,2026-01-17 18h25.27.110676 +0530,
140,0,141,o,1.5396839000022737,None,141,0,140,498.287565599996,,,,,,,,,,,,,,,,,,,,,,,,,,,,,,,,,,,,,,,,,,,,,,,,,,498.2734425999952,498.287565599996,498.8251053999993,498.77190439999686,498.8222156999982,498.8251053999993,498.8251053999993,498.8251053999993,500.3727140999981,Objects\049b.jpg,post,o,1.5396839000022737,None,,,,00044,001,2026-01-17_18h25.01.445,MST_test,2024.2.0,59.86303337856009,2026-01-17 18h25.27.110676 +0530,
141,0,142,o,0.9640020000078948,None,142,0,141,500.38753299998643,,,,,,,,,,,,,,,,,,,,,,,,,,,,,,,,,,,,,,,,,,,,,,,,,,500.37312720000045,500.38753299998643,500.88875089999055,500.87203689999296,500.87784709999687,500.88875089999055,500.88875089999055,500.88875089999055,501.8565996999969,Objects\229a.jpg,pre,o,0.9640020000078948,None,,,,00044,001,2026-01-17_18h25.01.445,MST_test,2024.2.0,59.86303337856009,2026-01-17 18h25.27.110676 +0530,
142,0,143,s,4.016102199995657,None,143,0,142,501.8710910999944,,,,,,,,,,,,,,,,,,,,,,,,,,,,,,,,,,,,,,,,,,,,,,,,,,501.8570075999887,501.8710910999944,502.38799999999173,502.355352899991,502.38479519999237,502.38799999999173,502.38799999999173,502.38799999999173,506.40612119999423,Objects\253b.jpg,mid,s,4.016102199995657,None,,,,00044,001,2026-01-17_18h25.01.445,MST_test,2024.2.0,59.86303337856009,2026-01-17 18h25.27.110676 +0530,
143,0,144,s,3.337531700002728,None,144,0,143,506.42083209998964,,,,,,,,,,,,,,,,,,,,,,,,,,,,,,,,,,,,,,,,,,,,,,,,,,506.4063707999885,506.42083209998964,506.95419639999454,506.9053908999922,506.95120509999106,506.95419639999454,506.95419639999454,506.95419639999454,510.30661939999845,Objects\334b.jpg,post,s,3.337531700002728,None,,,,00044,001,2026-01-17_18h25.01.445,MST_test,2024.2.0,59.86303337856009,2026-01-17 18h25.27.110676 +0530,
144,0,145,s,3.3189702999952715,None,145,0,144,510.3212394999864,,,,,,,,,,,,,,,,,,,,,,,,,,,,,,,,,,,,,,,,,,,,,,,,,,510.30696879999596,510.3212394999864,510.8531396999897,510.8052934999869,510.8506247999903,510.8531396999897,510.8531396999897,510.8531396999897,514.1891987999988,Objects\355b.jpg,pre,s,3.3189702999952715,None,,,,00044,001,2026-01-17_18h25.01.445,MST_test,2024.2.0,59.86303337856009,2026-01-17 18h25.27.110676 +0530,
145,0,146,o,0.8655050000088522,None,146,0,145,514.2040735999908,,,,,,,,,,,,,,,,,,,,,,,,,,,,,,,,,,,,,,,,,,,,,,,,,,514.1894319999992,514.2040735999908,514.7396894999983,514.6887296999921,514.7365651,514.7396894999983,514.7396894999983,514.7396894999983,515.6071190999937,Objects\259b.jpg,pre,o,0.8655050000088522,None,,,,00044,001,2026-01-17_18h25.01.445,MST_test,2024.2.0,59.86303337856009,2026-01-17 18h25.27.110676 +0530,
146,0,147,o,1.3155961000011303,None,147,0,146,515.6209619000001,,,,,,,,,,,,,,,,,,,,,,,,,,,,,,,,,,,,,,,,,,,,,,,,,,515.6073783999891,515.6209619000001,516.1601306999946,516.1055261000001,516.1565169999958,516.1601306999946,516.1601306999946,516.1601306999946,517.4894360999897,Objects\235b.jpg,post,o,1.3155961000011303,None,,,,00044,001,2026-01-17_18h25.01.445,MST_test,2024.2.0,59.86303337856009,2026-01-17 18h25.27.110676 +0530,
147,0,148,n,1.1505230000038864,None,148,0,147,517.5044179999968,,,,,,,,,,,,,,,,,,,,,,,,,,,,,,,,,,,,,,,,,,,,,,,,,,517.489853799998,517.5044179999968,518.03014789999,517.9888646999898,518.0264251999906,518.03014789999,518.03014789999,518.03014789999,519.1899120999879,Foils\f5.jpg,none,n,1.1505230000038864,None,,,,00044,001,2026-01-17_18h25.01.445,MST_test,2024.2.0,59.86303337856009,2026-01-17 18h25.27.110676 +0530,
148,0,149,n,1.067592199993669,None,149,0,148,519.2041861999896,,,,,,,,,,,,,,,,,,,,,,,,,,,,,,,,,,,,,,,,,,,,,,,,,,519.1901682999887,519.2041861999896,519.7045068999869,519.6888417999871,519.698983299997,519.7045068999869,519.7045068999869,519.7045068999869,520.7889708999865,Objects\275a.jpg,pre,n,1.067592199993669,None,,,,00044,001,2026-01-17_18h25.01.445,MST_test,2024.2.0,59.86303337856009,2026-01-17 18h25.27.110676 +0530,
149,0,150,o,1.2673491000023205,None,150,0,149,520.8045834999939,,,,,,,,,,,,,,,,,,,,,,,,,,,,,,,,,,,,,,,,,,,,,,,,,,520.7892076999997,520.8045834999939,521.3047597999976,521.2886679999938,521.2971428999881,521.3047597999976,521.3047597999976,521.3047597999976,522.589215999993,Objects\011a.jpg,pre,o,1.2673491000023205,None,,,,00044,001,2026-01-17_18h25.01.445,MST_test,2024.2.0,59.86303337856009,2026-01-17 18h25.27.110676 +0530,
,,,,,,,,,,,,,,,,,,,,,,,,,,,,,,,,,,,,,,,,,,,,,,,,,,,,,,,,,,,,,,,,,,,,,,,,,522.5893857999909,522.6042164999963,522.6042164999963,,,,,,,,
