Sl_no,image_path,thisN,thisTrialN,thisRepN,key_resp_5.keys,key_resp_7.keys,key_resp_7.rt,key_resp_7.duration,key_resp_5.rt,key_resp_5.duration,key_resp_9.keys,key_resp_8.keys,key_resp_8.rt,key_resp_8.duration,key_resp_9.rt,key_resp_9.duration,practice.thisRepN,practice.thisTrialN,practice.thisN,trials.thisRepN,trials.thisTrialN,trials.thisN,thisRow.t,notes,welcome_page.started,text.started,key_resp.started,welcome_page.stopped,key_resp.keys,key_resp.rt,key_resp.duration,instructions.started,ins.started,key_resp_2.started,instructions.stopped,key_resp_2.keys,key_resp_2.rt,key_resp_2.duration,objects_only_instruction.started,text_3.started,key_resp_3.started,objects_only_instruction.stopped,key_resp_3.keys,key_resp_3.rt,key_resp_3.duration,ISI.started,text_4.started,ISI.stopped,practice_block.started,image.started,key_resp_5.started,text_5.started,practice_block.stopped,practice.key_resp_5.keys,indoor_outdoor.started,text_7.started,key_resp_7.started,indoor_outdoor.stopped,practice.key_resp_7.keys,practice.key_resp_7.rt,practice.key_resp_7.duration,practice.key_resp_5.rt,practice.key_resp_5.duration,practice_to_main.started,text_2.started,key_resp_4.started,practice_to_main.stopped,key_resp_4.keys,key_resp_4.rt,key_resp_4.duration,objects.started,image_2.started,text_9.started,key_resp_9.started,objects.stopped,category,trials.key_resp_9.keys,encoding_task.started,text_8.started,key_resp_8.started,encoding_task.stopped,trials.key_resp_8.keys,trials.key_resp_8.rt,trials.key_resp_8.duration,trials.key_resp_9.rt,trials.key_resp_9.duration,text_4.stopped,end_experiment.started,text_6.started,key_resp_6.started,end_experiment.stopped,key_resp_6.keys,key_resp_6.rt,key_resp_6.duration,list_of_stimuli,encoding_task_accuracy,participant,session,date,expName,psychopyVersion,frameRate,expStart,
,,,,,,,,,,,,,,,,,,,,,,,,,0.011875900032464415,0.02851640002336353,0.02851640002336353,10.43655480002053,space,10.402722800034098,None,,,,,,,,,,,,,,,,,,,,,,,,,,,,,,,,,,,,,,,,,,,,,,,,,,,,,,,,,,,,,,,,,,00047,001,2026-01-18_12h01.27.453,MST_task,2024.2.0,59.702811362365,2026-01-18 12h01.44.192645 +0530,
,,,,,,,,,,,,,,,,,,,,,,,,,,,,,,,,10.436588999989908,10.449594100005925,10.449594100005925,46.092582000012044,space,35.631264200026635,None,,,,,,,,,,,,,,,,,,,,,,,,,,,,,,,,,,,,,,,,,,,,,,,,,,,,,,,,,,,00047,001,2026-01-18_12h01.27.453,MST_task,2024.2.0,59.702811362365,2026-01-18 12h01.44.192645 +0530,
,,,,,,,,,,,,,,,,,,,,,,,,,,,,,,,,,,,,,,,46.09261540003354,46.10815620003268,46.10815620003268,56.32836300000781,space,10.218810199992731,None,,,,,,,,,,,,,,,,,,,,,,,,,,,,,,,,,,,,,,,,,,,,,,,,,,,,00047,001,2026-01-18_12h01.27.453,MST_task,2024.2.0,59.702811362365,2026-01-18 12h01.44.192645 +0530,
10,practice_images/182a.jpg,0,0,1,None,f,1.6860995999886654,None,,,,,,,,,1,0,0,,,,56.36115270003211,,,,,,,,,,,,,,,,,,,,,,,56.341390100016724,56.36115270003211,56.82946380000794,56.844994999992196,56.86287110002013,56.86287110002013,56.86287110002013,59.839905000000726,None,59.84117770002922,59.856709100014996,59.856709100014996,61.54636300000129,f,1.6860995999886654,None,,,,,,,,,,,,,,,,,,,,,,,,,,,,,,,,,,,,00047,001,2026-01-18_12h01.27.453,MST_task,2024.2.0,59.702811362365,2026-01-18 12h01.44.192645 +0530,
9,practice_images/180a.jpg,1,1,1,None,f,0.8837380999466404,None,,,,,,,,,1,1,1,,,,61.56250719999662,,,,,,,,,,,,,,,,,,,,,,,61.54645050002728,61.56250719999662,62.04745680000633,62.055618899990804,62.080978900019545,62.080978900019545,62.080978900019545,65.06176260003122,None,65.06179920001887,65.07500549999531,65.07500549999531,65.96190059999935,f,0.8837380999466404,None,,,,,,,,,,,,,,,,,,,,,,,,,,,,,,,,,,,,00047,001,2026-01-18_12h01.27.453,MST_task,2024.2.0,59.702811362365,2026-01-18 12h01.44.192645 +0530,
1,practice_images/013a.jpg,2,2,1,j,None,,,2.8231224000337534,0.1125200999667868,,,,,,,1,2,2,,,,65.97797370003536,,,,,,,,,,,,,,,,,,,,,,,65.9619887000299,65.97797370003536,66.46296259999508,66.47116840002127,66.47919209999964,66.47919209999964,66.47919209999964,69.47370780003257,j,69.47374640003545,,,69.47375910001574,None,,,2.8231224000337534,0.1125200999667868,,,,,,,,,,,,,,,,,,,,,,,,,,,,,,,,,,00047,001,2026-01-18_12h01.27.453,MST_task,2024.2.0,59.702811362365,2026-01-18 12h01.44.192645 +0530,
6,practice_images/158a.jpg,3,3,1,j,None,,,2.358357299992349,0.11170840001432225,,,,,,,1,3,3,,,,69.49026550003327,,,,,,,,,,,,,,,,,,,,,,,69.47382760001346,69.49026550003327,69.97522969997954,69.98312240000814,69.99202649999643,69.99202649999643,69.99202649999643,72.9857742000022,j,72.9858125000028,,,72.98582430003444,None,,,2.358357299992349,0.11170840001432225,,,,,,,,,,,,,,,,,,,,,,,,,,,,,,,,,,00047,001,2026-01-18_12h01.27.453,MST_task,2024.2.0,59.702811362365,2026-01-18 12h01.44.192645 +0530,
2,practice_images/031a.jpg,4,4,1,f,None,,,2.2474688999936916,0.12694489996647462,,,,,,,1,4,4,,,,73.00257589999819,,,,,,,,,,,,,,,,,,,,,,,72.9858932000352,73.00257589999819,73.48765989998356,73.49579650000669,73.50435420003487,73.50435420003487,73.50435420003487,76.49809270002879,f,76.49814460001653,,,76.4981562999892,None,,,2.2474688999936916,0.12694489996647462,,,,,,,,,,,,,,,,,,,,,,,,,,,,,,,,,,00047,001,2026-01-18_12h01.27.453,MST_task,2024.2.0,59.702811362365,2026-01-18 12h01.44.192645 +0530,
4,practice_images/002b.jpg,5,5,1,None,j,1.7075245999731123,None,,,,,,,,,1,5,5,,,,76.51502729998901,,,,,,,,,,,,,,,,,,,,,,,76.49847520003095,76.51502729998901,76.99982660001842,77.0103554999805,77.01659080001991,77.01659080001991,77.01659080001991,80.01049299997976,None,80.01193239999702,80.02704800001811,80.02704800001811,81.75026529998286,j,1.7075245999731123,None,,,,,,,,,,,,,,,,,,,,,,,,,,,,,,,,,,,,00047,001,2026-01-18_12h01.27.453,MST_task,2024.2.0,59.702811362365,2026-01-18 12h01.44.192645 +0530,
3,practice_images/037a.jpg,6,6,1,None,f,1.2158869000268169,None,,,,,,,,,1,6,6,,,,81.76649549999274,,,,,,,,,,,,,,,,,,,,,,,81.75035390001722,81.76649549999274,82.25170080002863,82.26044789998559,82.26766310003586,82.26766310003586,82.26766310003586,85.26211690000491,None,85.26215199998114,85.27914490003604,85.27914490003604,86.50047460000496,f,1.2158869000268169,None,,,,,,,,,,,,,,,,,,,,,,,,,,,,,,,,,,,,00047,001,2026-01-18_12h01.27.453,MST_task,2024.2.0,59.702811362365,2026-01-18 12h01.44.192645 +0530,
8,practice_images/178a.jpg,7,7,1,None,f,0.15350840002065524,None,,,,,,,,,1,7,7,,,,86.5167012999882,,,,,,,,,,,,,,,,,,,,,,,86.5005634999834,86.5167012999882,87.00154909997946,87.01003060000949,87.01756060001208,87.01756060001208,87.01756060001208,90.01207649998832,None,90.01211330003571,90.02888960001292,90.02888960001292,90.19667530001607,f,0.15350840002065524,None,,,,,,,,,,,,,,,,,,,,,,,,,,,,,,,,,,,,00047,001,2026-01-18_12h01.27.453,MST_task,2024.2.0,59.702811362365,2026-01-18 12h01.44.192645 +0530,
7,practice_images/166a.jpg,8,8,1,None,j,0.9379037999897264,None,,,,,,,,,1,8,8,,,,90.21273810003186,,,,,,,,,,,,,,,,,,,,,,,90.1967623999808,90.21273810003186,90.69795380003052,90.70602719997987,90.71365759999026,90.71365759999026,90.71365759999026,93.70855079998728,None,93.70858710003085,93.72502700000769,93.72502700000769,94.67900260002352,j,0.9379037999897264,None,,,,,,,,,,,,,,,,,,,,,,,,,,,,,,,,,,,,00047,001,2026-01-18_12h01.27.453,MST_task,2024.2.0,59.702811362365,2026-01-18 12h01.44.192645 +0530,
5,practice_images/139a.jpg,9,9,1,None,j,1.127152799977921,None,,,,,,,,,1,9,9,,,,94.69521869998425,,,,,,,,,,,,,,,,,,,,,,,94.67909089999739,94.69521869998425,95.18031560000964,95.18878000002587,95.19630180002423,95.19630180002423,95.19630180002423,98.19085170002654,None,98.1908870000043,98.2075236000237,98.2075236000237,99.34551549999742,j,1.127152799977921,None,,,,,,,,,,,,,,,,,,,,,,,,,,,,,,,,,,,,00047,001,2026-01-18_12h01.27.453,MST_task,2024.2.0,59.702811362365,2026-01-18 12h01.44.192645 +0530,
,,,,,,,,,,,,,,,,,,,,,,,,,,,,,,,,,,,,,,,,,,,,,,,,,,,,,,,,,,,,,,,,99.34558339999057,99.36154290003469,99.36154290003469,107.25664550001966,space,7.893028000020422,None,,,,,,,,,,,,,,,,,,,,,,,,,,,00047,001,2026-01-18_12h01.27.453,MST_task,2024.2.0,59.702811362365,2026-01-18 12h01.44.192645 +0530,
,Objects\160a.jpg,0,0,1,,,,,,,None,j,5.613668900041375,None,,,,,,1,0,0,107.27259790000971,,,,,,,,,,,,,,,,,,,,,,,107.25730920000933,107.27259790000971,107.75768570002401,,,,,,,,,,,,,,,,,,,,,,,107.78059480001684,107.79229260003194,107.79229260003194,107.79229260003194,110.76848080003401,shoe,None,110.76991239999188,110.78490510000847,110.78490510000847,116.40589250001358,j,5.613668900041375,None,,,,,,,,,,,,,00047,001,2026-01-18_12h01.27.453,MST_task,2024.2.0,59.702811362365,2026-01-18 12h01.44.192645 +0530,
,Objects\342a.jpg,1,0,2,,,,,,,None,f,0.7294672999996692,None,,,,,,2,0,1,116.4211969000171,,,,,,,,,,,,,,,,,,,,,,,116.40599110000767,116.4211969000171,116.90651489997981,,,,,,,,,,,,,,,,,,,,,,,116.91569019999588,116.93967580003664,116.93967580003664,116.93967580003664,119.91686529997969,shoe,None,119.91690670000389,119.93359899998177,119.93359899998177,120.67010580003262,f,0.7294672999996692,None,,,,,,,,,,,,,00047,001,2026-01-18_12h01.27.453,MST_task,2024.2.0,59.702811362365,2026-01-18 12h01.44.192645 +0530,
,Objects\373a.jpg,2,0,3,,,,,,,None,j,0.3677695000078529,None,,,,,,3,0,2,120.6861246000044,,,,,,,,,,,,,,,,,,,,,,,120.67019490001258,120.6861246000044,121.17132810002659,,,,,,,,,,,,,,,,,,,,,,,121.18528199999128,121.20550340000773,121.20550340000773,121.20550340000773,124.18174810003256,shoe,None,124.18178779998561,124.19861870002933,124.19861870002933,124.56705900002271,j,0.3677695000078529,None,,,,,,,,,,,,,00047,001,2026-01-18_12h01.27.453,MST_task,2024.2.0,59.702811362365,2026-01-18 12h01.44.192645 +0530,
,Objects\327a.jpg,3,0,4,,,,,,,None,j,0.6388116999878548,None,,,,,,4,0,3,124.5831122000236,,,,,,,,,,,,,,,,,,,,,,,124.56717639998533,124.5831122000236,125.06832710001618,,,,,,,,,,,,,,,,,,,,,,,125.08315860002767,125.10159750003368,125.10159750003368,125.10159750003368,128.07871520001208,shoe,None,128.07876780000515,128.09551439998904,128.09551439998904,128.74827500001993,j,0.6388116999878548,None,,,,,,,,,,,,,00047,001,2026-01-18_12h01.27.453,MST_task,2024.2.0,59.702811362365,2026-01-18 12h01.44.192645 +0530,
,Objects\378a.jpg,4,0,5,,,,,,,None,f,1.0412816999596544,None,,,,,,5,0,4,128.76453879999463,,,,,,,,,,,,,,,,,,,,,,,128.74836650001816,128.76453879999463,129.2494946999941,,,,,,,,,,,,,,,,,,,,,,,129.26523610000731,129.28302520001307,129.28302520001307,129.28302520001307,132.26016880001407,shoe,None,132.2602075000177,132.276830399991,132.276830399991,133.33094780001557,f,1.0412816999596544,None,,,,,,,,,,,,,00047,001,2026-01-18_12h01.27.453,MST_task,2024.2.0,59.702811362365,2026-01-18 12h01.44.192645 +0530,
,Objects\115a.jpg,5,0,6,,,,,,,None,f,0.3074538999935612,None,,,,,,6,0,5,133.3471401000279,,,,,,,,,,,,,,,,,,,,,,,133.3310369999963,133.3471401000279,133.83232739998493,,,,,,,,,,,,,,,,,,,,,,,133.84130540001206,133.8656278999988,133.8656278999988,133.8656278999988,136.84275970002636,shoe,None,136.84281090000877,136.8596529000206,136.8596529000206,137.1777907999931,f,0.3074538999935612,None,,,,,,,,,,,,,00047,001,2026-01-18_12h01.27.453,MST_task,2024.2.0,59.702811362365,2026-01-18 12h01.44.192645 +0530,
,Objects\306a.jpg,6,0,7,,,,,,,None,f,0.8205010000383481,None,,,,,,7,0,6,137.19406479998725,,,,,,,,,,,,,,,,,,,,,,,137.17791700002272,137.19406479998725,137.67918630002532,,,,,,,,,,,,,,,,,,,,,,,137.69462150003528,137.71252290002303,137.71252290002303,137.71252290002303,140.6895477999933,shoe,None,140.68961100000888,140.7063526000129,140.7063526000129,141.54305069998372,f,0.8205010000383481,None,,,,,,,,,,,,,00047,001,2026-01-18_12h01.27.453,MST_task,2024.2.0,59.702811362365,2026-01-18 12h01.44.192645 +0530,
,Objects\124a.jpg,7,0,8,,,,,,,None,f,1.495254700013902,None,,,,,,8,0,7,141.5592235000222,,,,,,,,,,,,,,,,,,,,,,,141.54317950003315,141.5592235000222,142.04443529999116,,,,,,,,,,,,,,,,,,,,,,,142.0607202000101,142.0778236000333,142.0778236000333,142.0778236000333,145.05495510000037,indoor,None,145.0561656000209,145.07151410001097,145.07151410001097,146.57747800002107,f,1.495254700013902,None,,,,,,,,,,,,,00047,001,2026-01-18_12h01.27.453,MST_task,2024.2.0,59.702811362365,2026-01-18 12h01.44.192645 +0530,
,Objects\057a.jpg,8,0,9,,,,,,,None,f,0.7809753000037745,None,,,,,,9,0,8,146.59364360000473,,,,,,,,,,,,,,,,,,,,,,,146.5775680000079,146.59364360000473,147.0787395000225,,,,,,,,,,,,,,,,,,,,,,,147.08824840001762,147.11212489998434,147.11212489998434,147.11212489998434,150.08937070000684,indoor,None,150.08941050001886,150.10581159999128,150.10581159999128,150.89255089999642,f,0.7809753000037745,None,,,,,,,,,,,,,00047,001,2026-01-18_12h01.27.453,MST_task,2024.2.0,59.702811362365,2026-01-18 12h01.44.192645 +0530,
,Objects\322a.jpg,9,0,10,,,,,,,None,j,2.4424240000080317,None,,,,,,10,0,9,150.90864049998345,,,,,,,,,,,,,,,,,,,,,,,150.89264030003687,150.90864049998345,151.39396580000175,,,,,,,,,,,,,,,,,,,,,,,151.40838879998773,151.42711739998776,151.42711739998776,151.42711739998776,154.40426769998157,indoor,None,154.40433370001847,154.42103409999982,154.42103409999982,156.86407180002425,j,2.4424240000080317,None,,,,,,,,,,,,,00047,001,2026-01-18_12h01.27.453,MST_task,2024.2.0,59.702811362365,2026-01-18 12h01.44.192645 +0530,
,Objects\142a.jpg,10,0,11,,,,,,,None,f,0.36653800000203773,None,,,,,,11,0,10,156.88005279999925,,,,,,,,,,,,,,,,,,,,,,,156.864171800029,156.88005279999925,157.36474789999193,,,,,,,,,,,,,,,,,,,,,,,157.37948000000324,157.39805010001874,157.39805010001874,157.39805010001874,160.37517740001203,indoor,None,160.3752316000173,160.3919719000114,160.3919719000114,160.7606478999951,f,0.36653800000203773,None,,,,,,,,,,,,,00047,001,2026-01-18_12h01.27.453,MST_task,2024.2.0,59.702811362365,2026-01-18 12h01.44.192645 +0530,
,Objects\133a.jpg,11,0,12,,,,,,,j,None,,,1.1364065000088885,0.0949728999985382,,,,12,0,11,160.77664599998388,,,,,,,,,,,,,,,,,,,,,,,160.76074009999866,160.77664599998388,161.26173389999894,,,,,,,,,,,,,,,,,,,,,,,161.27118510002038,161.2950137000298,161.2950137000298,161.2950137000298,164.27213370002573,indoor,j,164.2721783000161,,,164.2721903999918,None,,,1.1364065000088885,0.0949728999985382,,,,,,,,,,,00047,001,2026-01-18_12h01.27.453,MST_task,2024.2.0,59.702811362365,2026-01-18 12h01.44.192645 +0530,
,Objects\165a.jpg,12,0,13,,,,,,,None,f,0.13445260003209114,None,,,,,,13,0,12,164.28907230001641,,,,,,,,,,,,,,,,,,,,,,,164.27227339998353,164.28907230001641,164.77398850000463,,,,,,,,,,,,,,,,,,,,,,,164.78276830003597,164.80743729998358,164.80743729998358,164.80743729998358,167.78458999999566,indoor,None,167.78462960000616,167.80111980001675,167.80111980001675,167.9524081000127,f,0.13445260003209114,None,,,,,,,,,,,,,00047,001,2026-01-18_12h01.27.453,MST_task,2024.2.0,59.702811362365,2026-01-18 12h01.44.192645 +0530,
,Objects\284a.jpg,13,0,14,,,,,,,j,None,,,1.0641777999699116,0.1435501000378281,,,,14,0,13,167.96839180000825,,,,,,,,,,,,,,,,,,,,,,,167.95249749999493,167.96839180000825,168.45359190000454,,,,,,,,,,,,,,,,,,,,,,,168.46814060001634,168.48698500002502,168.48698500002502,168.48698500002502,171.46406399999978,indoor,j,171.4641244999948,,,171.46413670002948,None,,,1.0641777999699116,0.1435501000378281,,,,,,,,,,,00047,001,2026-01-18_12h01.27.453,MST_task,2024.2.0,59.702811362365,2026-01-18 12h01.44.192645 +0530,
,Objects\330a.jpg,14,0,15,,,,,,,j,None,,,2.343847799987998,0.14336520002689213,,,,15,0,14,171.4808007000247,,,,,,,,,,,,,,,,,,,,,,,171.46420919999946,171.4808007000247,171.96576059999643,,,,,,,,,,,,,,,,,,,,,,,171.9825285000261,171.99929120001616,171.99929120001616,171.99929120001616,174.97640560002765,shoe,j,174.9778471000027,,,174.97786630003247,None,,,2.343847799987998,0.14336520002689213,,,,,,,,,,,00047,001,2026-01-18_12h01.27.453,MST_task,2024.2.0,59.702811362365,2026-01-18 12h01.44.192645 +0530,
,Objects\321a.jpg,15,0,16,,,,,,,f,None,,,1.7987254000036046,0.16053090000059456,,,,16,0,15,174.99298480001744,,,,,,,,,,,,,,,,,,,,,,,174.97793900000397,174.99298480001744,175.4782520000008,,,,,,,,,,,,,,,,,,,,,,,175.49212950002402,175.51147080003284,175.51147080003284,175.51147080003284,178.48872399999527,shoe,f,178.48904070002027,,,178.48906729998998,None,,,1.7987254000036046,0.16053090000059456,,,,,,,,,,,00047,001,2026-01-18_12h01.27.453,MST_task,2024.2.0,59.702811362365,2026-01-18 12h01.44.192645 +0530,
,Objects\122a.jpg,16,0,17,,,,,,,None,f,0.061048799951095134,None,,,,,,17,0,16,178.50540369999362,,,,,,,,,,,,,,,,,,,,,,,178.48914570000488,178.50540369999362,178.99050020001596,,,,,,,,,,,,,,,,,,,,,,,179.00514120003209,179.02375930000562,179.02375930000562,179.02375930000562,182.00103809998836,shoe,None,182.0010772999958,182.0181089999969,182.0181089999969,182.08504010003526,f,0.061048799951095134,None,,,,,,,,,,,,,00047,001,2026-01-18_12h01.27.453,MST_task,2024.2.0,59.702811362365,2026-01-18 12h01.44.192645 +0530,
,Objects\103a.jpg,17,0,18,,,,,,,j,None,,,1.7144577000290155,0.16041509999195114,,,,18,0,17,182.1013319999911,,,,,,,,,,,,,,,,,,,,,,,182.08512830000836,182.1013319999911,182.58639970002696,,,,,,,,,,,,,,,,,,,,,,,182.59605260001263,182.62032159999944,182.62032159999944,182.62032159999944,185.59688440000173,shoe,j,185.59710690000793,,,185.5971217000042,None,,,1.7144577000290155,0.16041509999195114,,,,,,,,,,,00047,001,2026-01-18_12h01.27.453,MST_task,2024.2.0,59.702811362365,2026-01-18 12h01.44.192645 +0530,
,Objects\235a.jpg,18,0,19,,,,,,,j,None,,,1.9300137999816798,0.14509730000281706,,,,19,0,18,185.61352050001733,,,,,,,,,,,,,,,,,,,,,,,185.59722870000405,185.61352050001733,186.09882720001042,,,,,,,,,,,,,,,,,,,,,,,186.1134008000372,186.13198840001132,186.13198840001132,186.13198840001132,189.1092472000164,shoe,j,189.10930250003003,,,189.1093142000027,None,,,1.9300137999816798,0.14509730000281706,,,,,,,,,,,00047,001,2026-01-18_12h01.27.453,MST_task,2024.2.0,59.702811362365,2026-01-18 12h01.44.192645 +0530,
,Objects\357a.jpg,19,0,20,,,,,,,j,None,,,2.041815400007181,0.1850300999940373,,,,20,0,19,189.1259340000106,,,,,,,,,,,,,,,,,,,,,,,189.10938490001718,189.1259340000106,189.61089180002455,,,,,,,,,,,,,,,,,,,,,,,189.62554879998788,189.64439760003006,189.64439760003006,189.64439760003006,192.62154040002497,shoe,j,192.62185380002484,,,192.62188099999912,None,,,2.041815400007181,0.1850300999940373,,,,,,,,,,,00047,001,2026-01-18_12h01.27.453,MST_task,2024.2.0,59.702811362365,2026-01-18 12h01.44.192645 +0530,
,Objects\016a.jpg,20,0,21,,,,,,,f,None,,,1.5699217999936081,0.19228780001867563,,,,21,0,20,192.63822590000927,,,,,,,,,,,,,,,,,,,,,,,192.62195519998204,192.63822590000927,193.12343229999533,,,,,,,,,,,,,,,,,,,,,,,193.13265869999304,193.15658980002627,193.15658980002627,193.15658980002627,196.13372899999376,shoe,f,196.1337738999864,,,196.133785300015,None,,,1.5699217999936081,0.19228780001867563,,,,,,,,,,,00047,001,2026-01-18_12h01.27.453,MST_task,2024.2.0,59.702811362365,2026-01-18 12h01.44.192645 +0530,
,Objects\338a.jpg,21,0,22,,,,,,,f,None,,,1.8093915999634191,0.16793240001425147,,,,22,0,21,196.15053280000575,,,,,,,,,,,,,,,,,,,,,,,196.13407000002917,196.15053280000575,196.63547590002418,,,,,,,,,,,,,,,,,,,,,,,196.6512024999829,196.66905010002665,196.66905010002665,196.66905010002665,199.64615739998408,indoor,f,199.647652500018,,,199.64766920002876,None,,,1.8093915999634191,0.16793240001425147,,,,,,,,,,,00047,001,2026-01-18_12h01.27.453,MST_task,2024.2.0,59.702811362365,2026-01-18 12h01.44.192645 +0530,
,Objects\293a.jpg,22,0,23,,,,,,,f,None,,,1.7223400000366382,0.15976989996852353,,,,23,0,22,199.66271569998935,,,,,,,,,,,,,,,,,,,,,,,199.6477409999934,199.66271569998935,200.14804910001112,,,,,,,,,,,,,,,,,,,,,,,200.16110000002664,200.18117430002894,200.18117430002894,200.18117430002894,203.15832360001514,indoor,f,203.1583660999895,,,203.15837740001734,None,,,1.7223400000366382,0.15976989996852353,,,,,,,,,,,00047,001,2026-01-18_12h01.27.453,MST_task,2024.2.0,59.702811362365,2026-01-18 12h01.44.192645 +0530,
,Objects\331a.jpg,23,0,24,,,,,,,None,j,0.8713238000054844,None,,,,,,24,0,23,203.175111700024,,,,,,,,,,,,,,,,,,,,,,,203.15873080003075,203.175111700024,203.66010129998904,,,,,,,,,,,,,,,,,,,,,,,203.67420080001466,203.69360779999988,203.69360779999988,203.69360779999988,206.67082830000436,indoor,None,206.6710202000104,206.68732880003517,206.68732880003517,207.57445760001428,j,0.8713238000054844,None,,,,,,,,,,,,,00047,001,2026-01-18_12h01.27.453,MST_task,2024.2.0,59.702811362365,2026-01-18 12h01.44.192645 +0530,
,Objects\350a.jpg,24,0,25,,,,,,,j,None,,,2.417375299963169,0.1597433999995701,,,,25,0,24,207.59059340000385,,,,,,,,,,,,,,,,,,,,,,,207.574548900011,207.59059340000385,208.0758128000307,,,,,,,,,,,,,,,,,,,,,,,208.09092019998934,208.10895660001552,208.10895660001552,208.10895660001552,211.08609170001,indoor,j,211.08614929998294,,,211.08616150001762,None,,,2.417375299963169,0.1597433999995701,,,,,,,,,,,00047,001,2026-01-18_12h01.27.453,MST_task,2024.2.0,59.702811362365,2026-01-18 12h01.44.192645 +0530,
,Objects\147a.jpg,25,0,26,,,,,,,f,None,,,1.5128469999763183,0.12833919998956844,,,,26,0,25,211.102887200017,,,,,,,,,,,,,,,,,,,,,,,211.08623600000283,211.102887200017,211.58785740000894,,,,,,,,,,,,,,,,,,,,,,,211.6033252000343,211.62148460000753,211.62148460000753,211.62148460000753,214.5985273999977,indoor,f,214.59857480000937,,,214.5986111999955,None,,,1.5128469999763183,0.12833919998956844,,,,,,,,,,,00047,001,2026-01-18_12h01.27.453,MST_task,2024.2.0,59.702811362365,2026-01-18 12h01.44.192645 +0530,
,Objects\384a.jpg,26,0,27,,,,,,,f,None,,,1.4171126000001095,0.12804629997117445,,,,27,0,26,214.6152061999892,,,,,,,,,,,,,,,,,,,,,,,214.5986847000313,214.6152061999892,215.10029600001872,,,,,,,,,,,,,,,,,,,,,,,215.11198430001969,215.13356480002403,215.13356480002403,215.13356480002403,218.11074899998493,indoor,f,218.11080650001531,,,218.11081809998723,None,,,1.4171126000001095,0.12804629997117445,,,,,,,,,,,00047,001,2026-01-18_12h01.27.453,MST_task,2024.2.0,59.702811362365,2026-01-18 12h01.44.192645 +0530,
,Objects\276a.jpg,27,0,28,,,,,,,j,None,,,1.3042513000546023,0.13744459999725223,,,,28,0,27,218.12761229998432,,,,,,,,,,,,,,,,,,,,,,,218.11088819999713,218.12761229998432,218.6124634000007,,,,,,,,,,,,,,,,,,,,,,,218.62169290002203,218.64597940002568,218.64597940002568,218.64597940002568,221.62311430001864,indoor,j,221.62317149998853,,,221.6231832000194,None,,,1.3042513000546023,0.13744459999725223,,,,,,,,,,,00047,001,2026-01-18_12h01.27.453,MST_task,2024.2.0,59.702811362365,2026-01-18 12h01.44.192645 +0530,
,Objects\029a.jpg,28,0,29,,,,,,,f,None,,,1.6403348000021651,0.13582949998090044,,,,29,0,28,221.6396681999904,,,,,,,,,,,,,,,,,,,,,,,221.62325220002094,221.6396681999904,222.12500860000728,,,,,,,,,,,,,,,,,,,,,,,222.1359145999886,222.15814459999092,222.15814459999092,222.15814459999092,225.13533030002145,shoe,f,225.13698609999847,,,225.13700530002825,None,,,1.6403348000021651,0.13582949998090044,,,,,,,,,,,00047,001,2026-01-18_12h01.27.453,MST_task,2024.2.0,59.702811362365,2026-01-18 12h01.44.192645 +0530,
,Objects\144a.jpg,29,0,30,,,,,,,j,None,,,1.8955830999766476,0.17698589997598901,,,,30,0,29,225.1520986999967,,,,,,,,,,,,,,,,,,,,,,,225.13713049999205,225.1520986999967,225.63721820001956,,,,,,,,,,,,,,,,,,,,,,,225.64713880000636,225.67062570003327,225.67062570003327,225.67062570003327,228.64758739998797,shoe,j,228.6476313000312,,,228.64764420001302,None,,,1.8955830999766476,0.17698589997598901,225.67062570003327,,,,,,,,,,00047,001,2026-01-18_12h01.27.453,MST_task,2024.2.0,59.702811362365,2026-01-18 12h01.44.192645 +0530,
,Objects\267a.jpg,30,0,31,,,,,,,j,None,,,1.871360499993898,0.13757349998923019,,,,31,0,30,228.66451249999227,,,,,,,,,,,,,,,,,,,,,,,228.64774939999916,228.66451249999227,229.14935810002498,,,,,,,,,,,,,,,,,,,,,,,229.16476250003325,229.18286010000156,229.18286010000156,229.18286010000156,232.16001170000527,shoe,j,232.16032620001351,,,232.16035459999694,None,,,1.871360499993898,0.13757349998923019,,,,,,,,,,,00047,001,2026-01-18_12h01.27.453,MST_task,2024.2.0,59.702811362365,2026-01-18 12h01.44.192645 +0530,
,Objects\024a.jpg,31,0,32,,,,,,,f,None,,,2.679367300006561,0.1605379999964498,,,,32,0,31,232.17657120001968,,,,,,,,,,,,,,,,,,,,,,,232.16046300000744,232.17657120001968,232.6617817999795,,,,,,,,,,,,,,,,,,,,,,,232.67639280000003,232.69516740000108,232.69516740000108,232.69516740000108,235.67218870000215,shoe,f,235.67224430001806,,,235.67225589998998,None,,,2.679367300006561,0.1605379999964498,,,,,,,,,,,00047,001,2026-01-18_12h01.27.453,MST_task,2024.2.0,59.702811362365,2026-01-18 12h01.44.192645 +0530,
,Objects\299a.jpg,32,0,33,,,,,,,j,None,,,2.7347205000114627,0.1680534000042826,,,,33,0,32,235.6890660999925,,,,,,,,,,,,,,,,,,,,,,,235.6726424000226,235.6890660999925,236.17394940002123,,,,,,,,,,,,,,,,,,,,,,,236.18891169998096,236.2074636000325,236.2074636000325,236.2074636000325,239.18462680000812,shoe,j,239.18468260002555,,,239.18469429999823,None,,,2.7347205000114627,0.1680534000042826,,,,,,,,,,,00047,001,2026-01-18_12h01.27.453,MST_task,2024.2.0,59.702811362365,2026-01-18 12h01.44.192645 +0530,
,Objects\355a.jpg,33,0,34,,,,,,,f,None,,,1.5265829000272788,0.15243969997391105,,,,34,0,33,239.20116960001178,,,,,,,,,,,,,,,,,,,,,,,239.18476590001956,239.20116960001178,239.68637260003015,,,,,,,,,,,,,,,,,,,,,,,239.70181020000018,239.71965859999182,239.71965859999182,239.71965859999182,242.69692240003496,shoe,f,242.6969805000117,,,242.69699199998286,None,,,1.5265829000272788,0.15243969997391105,,,,,,,,,,,00047,001,2026-01-18_12h01.27.453,MST_task,2024.2.0,59.702811362365,2026-01-18 12h01.44.192645 +0530,
,Objects\339a.jpg,34,0,35,,,,,,,f,None,,,1.4555887000169605,0.13441469997633249,,,,35,0,34,242.71359689999372,,,,,,,,,,,,,,,,,,,,,,,242.69706159998896,242.71359689999372,243.1986646000296,,,,,,,,,,,,,,,,,,,,,,,243.21334770001704,243.2320647999877,243.2320647999877,243.2320647999877,246.20924450003076,shoe,f,246.209573500033,,,246.20958820002852,None,,,1.4555887000169605,0.13441469997633249,,,,,,,,,,,00047,001,2026-01-18_12h01.27.453,MST_task,2024.2.0,59.702811362365,2026-01-18 12h01.44.192645 +0530,
,Objects\114a.jpg,35,0,36,,,,,,,j,None,,,1.7098382000112906,0.07986539998091757,,,,36,0,35,246.225783700007,,,,,,,,,,,,,,,,,,,,,,,246.20966420002514,246.225783700007,246.71109880000586,,,,,,,,,,,,,,,,,,,,,,,246.72715639998205,246.74426890001632,246.74426890001632,246.74426890001632,249.72139930003323,indoor,j,249.7226546999882,,,249.72267430002103,None,,,1.7098382000112906,0.07986539998091757,,,,,,,,,,,00047,001,2026-01-18_12h01.27.453,MST_task,2024.2.0,59.702811362365,2026-01-18 12h01.44.192645 +0530,
,Objects\137a.jpg,36,0,37,,,,,,,None,j,0.3240436999476515,None,,,,,,37,0,36,249.73819529998582,,,,,,,,,,,,,,,,,,,,,,,249.7227491000085,249.73819529998582,250.2231604999979,,,,,,,,,,,,,,,,,,,,,,,250.23293900000863,250.25668510003015,250.25668510003015,250.25668510003015,253.23397470003692,indoor,None,253.23402099998202,253.2505356000038,253.2505356000038,253.58532700000796,j,0.3240436999476515,None,,,,,,,,,,,,,00047,001,2026-01-18_12h01.27.453,MST_task,2024.2.0,59.702811362365,2026-01-18 12h01.44.192645 +0530,
,Objects\285a.jpg,37,0,38,,,,,,,None,f,0.660066399956122,None,,,,,,38,0,37,253.60187190002762,,,,,,,,,,,,,,,,,,,,,,,253.5854177000001,253.60187190002762,254.08684709999943,,,,,,,,,,,,,,,,,,,,,,,254.09648100001505,254.12041390000377,254.12041390000377,254.12041390000377,257.09734049998224,indoor,None,257.09785220003687,257.1138995999936,257.1138995999936,257.783872400003,f,0.660066399956122,None,,,,,,,,,,,,,00047,001,2026-01-18_12h01.27.453,MST_task,2024.2.0,59.702811362365,2026-01-18 12h01.44.192645 +0530,
,Objects\287a.jpg,38,0,39,,,,,,,None,f,0.35071480000624433,None,,,,,,39,0,38,257.7997630999889,,,,,,,,,,,,,,,,,,,,,,,257.7839638000005,257.7997630999889,258.2848779000342,,,,,,,,,,,,,,,,,,,,,,,258.29878479999024,258.3182346000103,258.3182346000103,258.3182346000103,261.29538820002927,indoor,None,261.29542879998917,261.31194019998657,261.31194019998657,261.6640718000126,f,0.35071480000624433,None,,,,,,,,,,,,,00047,001,2026-01-18_12h01.27.453,MST_task,2024.2.0,59.702811362365,2026-01-18 12h01.44.192645 +0530,
,Objects\245a.jpg,39,0,40,,,,,,,j,None,,,1.6079275999800302,0.15170109999598935,,,,40,0,39,261.67989570001373,,,,,,,,,,,,,,,,,,,,,,,261.6641600999865,261.67989570001373,262.1651052000234,,,,,,,,,,,,,,,,,,,,,,,262.1795940999873,262.19836350000696,262.19836350000696,262.19836350000696,265.1756369000068,indoor,j,265.1756852000253,,,265.1756974000018,None,,,1.6079275999800302,0.15170109999598935,,,,,,,,,,,00047,001,2026-01-18_12h01.27.453,MST_task,2024.2.0,59.702811362365,2026-01-18 12h01.44.192645 +0530,
,Objects\105a.jpg,40,0,41,,,,,,,f,None,,,2.0477736000320874,0.1839794999687001,,,,41,0,40,265.19218389998423,,,,,,,,,,,,,,,,,,,,,,,265.1757680000155,265.19218389998423,265.67738270002883,,,,,,,,,,,,,,,,,,,,,,,265.6869243999827,265.710668899992,265.710668899992,265.710668899992,268.68783539999276,indoor,f,268.68788590002805,,,268.6878977000015,None,,,2.0477736000320874,0.1839794999687001,,,,,,,,,,,00047,001,2026-01-18_12h01.27.453,MST_task,2024.2.0,59.702811362365,2026-01-18 12h01.44.192645 +0530,
,Objects\303a.jpg,41,0,42,,,,,,,j,None,,,1.0780619000433944,0.17617509997216985,,,,42,0,41,268.70460320002167,,,,,,,,,,,,,,,,,,,,,,,268.68796970002586,268.70460320002167,269.1895937999943,,,,,,,,,,,,,,,,,,,,,,,269.2083717000205,269.2239810000174,269.2239810000174,269.2239810000174,272.20025120000355,indoor,j,272.2002989000175,,,272.20031069999095,None,,,1.0780619000433944,0.17617509997216985,,,,,,,,,,,00047,001,2026-01-18_12h01.27.453,MST_task,2024.2.0,59.702811362365,2026-01-18 12h01.44.192645 +0530,
,Objects\045a.jpg,42,0,43,,,,,,,f,None,,,1.487280400004238,0.17624679999426007,,,,43,0,42,272.216912999982,,,,,,,,,,,,,,,,,,,,,,,272.2003836000222,272.216912999982,272.70218110003043,,,,,,,,,,,,,,,,,,,,,,,272.72163879999425,272.73527840001043,272.73527840001043,272.73527840001043,275.7124329000362,shoe,f,275.713938800036,,,275.7139567999984,None,,,1.487280400004238,0.17624679999426007,,,,,,,,,,,00047,001,2026-01-18_12h01.27.453,MST_task,2024.2.0,59.702811362365,2026-01-18 12h01.44.192645 +0530,
,Objects\257a.jpg,43,0,44,,,,,,,j,None,,,2.0616237000213005,0.16817869996884838,,,,44,0,43,275.72921200003475,,,,,,,,,,,,,,,,,,,,,,,275.71408140001586,275.72921200003475,276.2141767999856,,,,,,,,,,,,,,,,,,,,,,,276.22843680001097,276.24848760000896,276.24848760000896,276.24848760000896,279.22483540000394,shoe,j,279.2251394999912,,,279.22516939998604,None,,,2.0616237000213005,0.16817869996884838,,,,,,,,,,,00047,001,2026-01-18_12h01.27.453,MST_task,2024.2.0,59.702811362365,2026-01-18 12h01.44.192645 +0530,
,Objects\240a.jpg,44,0,45,,,,,,,f,None,,,2.638342600024771,0.14432889997260645,,,,45,0,44,279.24154130002717,,,,,,,,,,,,,,,,,,,,,,,279.22524569998495,279.24154130002717,279.7266112000216,,,,,,,,,,,,,,,,,,,,,,,279.743895600026,279.7598650000291,279.7598650000291,279.7598650000291,282.7370260999887,shoe,f,282.7370820000069,,,282.73709330003476,None,,,2.638342600024771,0.14432889997260645,,,,,,,,,,,00047,001,2026-01-18_12h01.27.453,MST_task,2024.2.0,59.702811362365,2026-01-18 12h01.44.192645 +0530,
,Objects\149a.jpg,45,0,46,,,,,,,j,None,,,2.293823699990753,0.15266839996911585,,,,46,0,45,282.75381369999377,,,,,,,,,,,,,,,,,,,,,,,282.73716289998265,282.75381369999377,283.2387754000374,,,,,,,,,,,,,,,,,,,,,,,283.25416900002165,283.2722957000369,283.2722957000369,283.2722957000369,286.2494350000052,shoe,j,286.249633600004,,,286.24966410000343,None,,,2.293823699990753,0.15266839996911585,,,,,,,,,,,00047,001,2026-01-18_12h01.27.453,MST_task,2024.2.0,59.702811362365,2026-01-18 12h01.44.192645 +0530,
,Objects\106a.jpg,46,0,47,,,,,,,f,None,,,2.2465291999978945,0.16754240001318976,,,,47,0,46,286.26599540002644,,,,,,,,,,,,,,,,,,,,,,,286.2497726000147,286.26599540002644,286.75118540000403,,,,,,,,,,,,,,,,,,,,,,,286.7604290000163,286.78446530003566,286.78446530003566,286.78446530003566,289.76167340000393,shoe,f,289.7617214000202,,,289.7617329999921,None,,,2.2465291999978945,0.16754240001318976,,,,,,,,,,,00047,001,2026-01-18_12h01.27.453,MST_task,2024.2.0,59.702811362365,2026-01-18 12h01.44.192645 +0530,
,Objects\354a.jpg,47,0,48,,,,,,,f,None,,,1.4948505000211298,0.1915335999801755,,,,48,0,47,289.7784547000192,,,,,,,,,,,,,,,,,,,,,,,289.76183999999193,289.7784547000192,290.2635625000112,,,,,,,,,,,,,,,,,,,,,,,290.277118100028,290.2968879999826,290.2968879999826,290.2968879999826,293.274039299984,shoe,f,293.2740830000257,,,293.2740945999976,None,,,1.4948505000211298,0.1915335999801755,,,,,,,,,,,00047,001,2026-01-18_12h01.27.453,MST_task,2024.2.0,59.702811362365,2026-01-18 12h01.44.192645 +0530,
,Objects\098a.jpg,48,0,49,,,,,,,f,None,,,1.2705003999872133,0.18314249999821186,,,,49,0,48,293.2905928000109,,,,,,,,,,,,,,,,,,,,,,,293.2741966000176,293.2905928000109,293.775801700016,,,,,,,,,,,,,,,,,,,,,,,293.79033920000074,293.80907540000044,293.80907540000044,293.80907540000044,296.78624330001185,shoe,f,296.7862970000133,,,296.78630979999434,None,,,1.2705003999872133,0.18314249999821186,,,,,,,,,,,00047,001,2026-01-18_12h01.27.453,MST_task,2024.2.0,59.702811362365,2026-01-18 12h01.44.192645 +0530,
,Objects\356a.jpg,49,0,50,,,,,,,None,j,0.7874369999626651,None,,,,,,50,0,49,296.80303230002755,,,,,,,,,,,,,,,,,,,,,,,296.7866731000249,296.80303230002755,297.2880116000306,,,,,,,,,,,,,,,,,,,,,,,297.30407630000263,297.32148470001994,297.32148470001994,297.32148470001994,300.29851749999216,indoor,None,300.2997663000133,300.31531040003756,300.31531040003756,301.1188103000168,j,0.7874369999626651,None,,,,,,,,,,,,,00047,001,2026-01-18_12h01.27.453,MST_task,2024.2.0,59.702811362365,2026-01-18 12h01.44.192645 +0530,
,Objects\202a.jpg,50,0,51,,,,,,,j,None,,,1.4812012000475079,0.1684300999622792,,,,51,0,50,301.13474399998086,,,,,,,,,,,,,,,,,,,,,,,301.118916300009,301.13474399998086,301.6199254000094,,,,,,,,,,,,,,,,,,,,,,,301.63333729997976,301.6532024000189,301.6532024000189,301.6532024000189,304.6304169000359,indoor,j,304.6304620000301,,,304.63047380000353,None,,,1.4812012000475079,0.1684300999622792,,,,,,,,,,,00047,001,2026-01-18_12h01.27.453,MST_task,2024.2.0,59.702811362365,2026-01-18 12h01.44.192645 +0530,
,Objects\030a.jpg,51,0,52,,,,,,,None,j,0.815108600014355,None,,,,,,52,0,51,304.64714270003606,,,,,,,,,,,,,,,,,,,,,,,304.6305434000096,304.64714270003606,305.1322370999842,,,,,,,,,,,,,,,,,,,,,,,305.14671010000166,305.16561339999316,305.16561339999316,305.16561339999316,308.1427786999848,indoor,None,308.1428236000356,308.15931399998954,308.15931399998954,308.9794543000171,j,0.815108600014355,None,,,,,,,,,,,,,00047,001,2026-01-18_12h01.27.453,MST_task,2024.2.0,59.702811362365,2026-01-18 12h01.44.192645 +0530,
,Objects\311a.jpg,52,0,53,,,,,,,j,None,,,1.2047812000382692,0.16844390000915155,,,,53,0,52,308.995588699996,,,,,,,,,,,,,,,,,,,,,,,308.9795454000123,308.995588699996,309.4807842000155,,,,,,,,,,,,,,,,,,,,,,,309.4905826000031,309.5140768000274,309.5140768000274,309.5140768000274,312.4913343000226,indoor,j,312.4916443999973,,,312.491671100026,None,,,1.2047812000382692,0.16844390000915155,,,,,,,,,,,00047,001,2026-01-18_12h01.27.453,MST_task,2024.2.0,59.702811362365,2026-01-18 12h01.44.192645 +0530,
,Objects\363a.jpg,53,0,54,,,,,,,None,f,1.3299211999983527,None,,,,,,54,0,53,312.5078796999878,,,,,,,,,,,,,,,,,,,,,,,312.4917458000127,312.5078796999878,312.99309449997963,,,,,,,,,,,,,,,,,,,,,,,313.00266170001123,313.02636379998876,313.02636379998876,313.02636379998876,316.00362700002734,indoor,None,316.0036665999796,316.0201951999916,316.0201951999916,317.3588077999884,f,1.3299211999983527,None,,,,,,,,,,,,,00047,001,2026-01-18_12h01.27.453,MST_task,2024.2.0,59.702811362365,2026-01-18 12h01.44.192645 +0530,
,Objects\366a.jpg,54,0,55,,,,,,,j,None,,,1.2890417000162415,0.16033509996486828,,,,55,0,54,317.37505139998393,,,,,,,,,,,,,,,,,,,,,,,317.35889810003573,317.37505139998393,317.8600601000362,,,,,,,,,,,,,,,,,,,,,,,317.86921159998747,317.8935318000149,317.8935318000149,317.8935318000149,320.8706774000311,indoor,j,320.8707217000192,,,320.8707337999949,None,,,1.2890417000162415,0.16033509996486828,,,,,,,,,,,00047,001,2026-01-18_12h01.27.453,MST_task,2024.2.0,59.702811362365,2026-01-18 12h01.44.192645 +0530,
,Objects\282a.jpg,55,0,56,,,,,,,None,j,0.7358631999813952,None,,,,,,56,0,55,320.8872266000253,,,,,,,,,,,,,,,,,,,,,,,320.8708053000155,320.8872266000253,321.3724420000217,,,,,,,,,,,,,,,,,,,,,,,321.3828296000138,321.4057085000095,321.4057085000095,321.4057085000095,324.3828691000235,indoor,None,324.3829094999819,324.3996361999889,324.3996361999889,325.1362787000253,j,0.7358631999813952,None,,,,,,,,,,,,,00047,001,2026-01-18_12h01.27.453,MST_task,2024.2.0,59.702811362365,2026-01-18 12h01.44.192645 +0530,
,Objects\190a.jpg,56,0,57,,,,,,,f,None,,,1.3517339999671094,0.19333820004248992,,,,57,0,56,325.1521613000077,,,,,,,,,,,,,,,,,,,,,,,325.1363722999813,325.1521613000077,325.63736100000096,,,,,,,,,,,,,,,,,,,,,,,325.6484431999852,325.67065939999884,325.67065939999884,325.67065939999884,328.64779990003444,shoe,f,328.6493663000292,,,328.64938590000384,None,,,1.3517339999671094,0.19333820004248992,,,,,,,,,,,00047,001,2026-01-18_12h01.27.453,MST_task,2024.2.0,59.702811362365,2026-01-18 12h01.44.192645 +0530,
,Objects\126a.jpg,57,0,58,,,,,,,j,None,,,1.166917199967429,0.16082200000528246,,,,58,0,57,328.6645957999863,,,,,,,,,,,,,,,,,,,,,,,328.6494567000191,328.6645957999863,329.1495605999953,,,,,,,,,,,,,,,,,,,,,,,329.15915050002513,329.1830690000206,329.1830690000206,329.1830690000206,332.16020580002805,shoe,j,332.160409300006,,,332.1604261000175,None,,,1.166917199967429,0.16082200000528246,,,,,,,,,,,00047,001,2026-01-18_12h01.27.453,MST_task,2024.2.0,59.702811362365,2026-01-18 12h01.44.192645 +0530,
,Objects\107a.jpg,58,0,59,,,,,,,None,j,0.3578033999656327,None,,,,,,59,0,58,332.17676509998273,,,,,,,,,,,,,,,,,,,,,,,332.16050150000956,332.17676509998273,332.66198480001185,,,,,,,,,,,,,,,,,,,,,,,332.67329940001946,332.69525029999204,332.69525029999204,332.69525029999204,335.6725107000093,shoe,None,335.67256149998866,335.6890769000165,335.6890769000165,336.0578046999872,j,0.3578033999656327,None,,,,,,,,,,,,,00047,001,2026-01-18_12h01.27.453,MST_task,2024.2.0,59.702811362365,2026-01-18 12h01.44.192645 +0530,
,Objects\080a.jpg,59,0,60,,,,,,,f,None,,,1.2541615999653004,0.16828939999686554,,,,60,0,59,336.0740015000338,,,,,,,,,,,,,,,,,,,,,,,336.05793130001985,336.0740015000338,336.5588263000245,,,,,,,,,,,,,,,,,,,,,,,336.5681385000353,336.5922610000125,336.5922610000125,336.5922610000125,339.569483600033,shoe,f,339.569524999999,,,339.56953700003214,None,,,1.2541615999653004,0.16828939999686554,,,,,,,,,,,00047,001,2026-01-18_12h01.27.453,MST_task,2024.2.0,59.702811362365,2026-01-18 12h01.44.192645 +0530,
,Objects\270a.jpg,60,0,61,,,,,,,j,None,,,1.5901546999812126,0.17595669999718666,,,,61,0,60,339.58606340002734,,,,,,,,,,,,,,,,,,,,,,,339.5696051000268,339.58606340002734,340.07124269998167,,,,,,,,,,,,,,,,,,,,,,,340.0843859000015,340.10465470002964,340.10465470002964,340.10465470002964,343.08165409998037,shoe,j,343.081709399994,,,343.0817206000211,None,,,1.5901546999812126,0.17595669999718666,,,,,,,,,,,00047,001,2026-01-18_12h01.27.453,MST_task,2024.2.0,59.702811362365,2026-01-18 12h01.44.192645 +0530,
,Objects\125a.jpg,61,0,62,,,,,,,j,None,,,1.1570528000011109,0.15316909999819472,,,,62,0,61,343.09849230002146,,,,,,,,,,,,,,,,,,,,,,,343.08178900001803,343.09849230002146,343.58343500003684,,,,,,,,,,,,,,,,,,,,,,,343.5980688999989,343.6171236000373,343.6171236000373,343.6171236000373,346.5940946000046,shoe,j,346.5941618999932,,,346.59417370002484,None,,,1.1570528000011109,0.15316909999819472,,,,,,,,,,,00047,001,2026-01-18_12h01.27.453,MST_task,2024.2.0,59.702811362365,2026-01-18 12h01.44.192645 +0530,
,Objects\127a.jpg,62,0,63,,,,,,,None,j,0.12306090001948178,None,,,,,,63,0,62,346.61065940000117,,,,,,,,,,,,,,,,,,,,,,,346.5942801000201,346.61065940000117,347.0958663999918,,,,,,,,,,,,,,,,,,,,,,,347.1059791999869,347.1291451000143,347.1291451000143,347.1291451000143,350.1064441000344,shoe,None,350.106482400035,350.12325609999243,350.12325609999243,350.2574199999799,j,0.12306090001948178,None,,,,,,,,,,,,,00047,001,2026-01-18_12h01.27.453,MST_task,2024.2.0,59.702811362365,2026-01-18 12h01.44.192645 +0530,
,Objects\281a.jpg,63,0,64,,,,,,,j,None,,,1.6306419000029564,0.1600093999877572,,,,64,0,63,350.2736431999947,,,,,,,,,,,,,,,,,,,,,,,350.2575023000245,350.2736431999947,350.7586823999882,,,,,,,,,,,,,,,,,,,,,,,350.7744796000188,350.7919566000346,350.7919566000346,350.7919566000346,353.76934020000044,indoor,j,353.7708142999909,,,353.7708331000176,None,,,1.6306419000029564,0.1600093999877572,,,,,,,,,,,00047,001,2026-01-18_12h01.27.453,MST_task,2024.2.0,59.702811362365,2026-01-18 12h01.44.192645 +0530,
,Objects\352a.jpg,64,0,65,,,,,,,f,None,,,0.8301696999697015,0.15210830001160502,,,,65,0,64,353.7857665999909,,,,,,,,,,,,,,,,,,,,,,,353.7709168000147,353.7857665999909,354.2709807000356,,,,,,,,,,,,,,,,,,,,,,,354.28503969998565,354.30436890001874,354.30436890001874,354.30436890001874,357.2814115000074,indoor,f,357.2814536000369,,,357.28146510000806,None,,,0.8301696999697015,0.15210830001160502,,,,,,,,,,,00047,001,2026-01-18_12h01.27.453,MST_task,2024.2.0,59.702811362365,2026-01-18 12h01.44.192645 +0530,
,Objects\068a.jpg,65,0,66,,,,,,,j,None,,,1.3739401999628171,0.1920065000304021,,,,66,0,65,357.29832250002073,,,,,,,,,,,,,,,,,,,,,,,357.281533500005,357.29832250002073,357.7832980999956,,,,,,,,,,,,,,,,,,,,,,,357.798057899985,357.8166769000236,357.8166769000236,357.8166769000236,360.79381420003483,indoor,j,360.7938598000328,,,360.79387160000624,None,,,1.3739401999628171,0.1920065000304021,,,,,,,,,,,00047,001,2026-01-18_12h01.27.453,MST_task,2024.2.0,59.702811362365,2026-01-18 12h01.44.192645 +0530,
,Objects\154a.jpg,66,0,67,,,,,,,f,None,,,1.4616650000098161,0.1523378999554552,,,,67,0,66,360.81036900001345,,,,,,,,,,,,,,,,,,,,,,,360.79394170001615,360.81036900001345,361.29557140002726,,,,,,,,,,,,,,,,,,,,,,,361.3049825000344,361.3288451000117,361.3288451000117,361.3288451000117,364.30598489998374,indoor,f,364.3060336000053,,,364.3060448000324,None,,,1.4616650000098161,0.1523378999554552,,,,,,,,,,,00047,001,2026-01-18_12h01.27.453,MST_task,2024.2.0,59.702811362365,2026-01-18 12h01.44.192645 +0530,
,Objects\335a.jpg,67,0,68,,,,,,,j,None,,,1.181336400040891,0.11994699999922886,,,,68,0,67,364.3233992999885,,,,,,,,,,,,,,,,,,,,,,,364.30612249998376,364.3233992999885,364.8077712000231,,,,,,,,,,,,,,,,,,,,,,,364.82113490003394,364.84129280003253,364.84129280003253,364.84129280003253,367.81842030002736,indoor,j,367.8184670000337,,,367.81847880000714,None,,,1.181336400040891,0.11994699999922886,,,,,,,,,,,00047,001,2026-01-18_12h01.27.453,MST_task,2024.2.0,59.702811362365,2026-01-18 12h01.44.192645 +0530,
,Objects\251a.jpg,68,0,69,,,,,,,f,None,,,1.092734300007578,0.16098499996587634,,,,69,0,68,367.83496950002154,,,,,,,,,,,,,,,,,,,,,,,367.8185474000056,367.83496950002154,368.3201852000202,,,,,,,,,,,,,,,,,,,,,,,368.33276590000605,368.35345990001224,368.35345990001224,368.35345990001224,371.3306927999947,indoor,f,371.33073600003263,,,371.3307475000038,None,,,1.092734300007578,0.16098499996587634,,,,,,,,,,,00047,001,2026-01-18_12h01.27.453,MST_task,2024.2.0,59.702811362365,2026-01-18 12h01.44.192645 +0530,
,Objects\011a.jpg,69,0,70,,,,,,,f,None,,,2.0122360000386834,0.16007749998243526,,,,70,0,69,371.3473887,,,,,,,,,,,,,,,,,,,,,,,371.33083890000125,371.3473887,371.832459199999,,,,,,,,,,,,,,,,,,,,,,,371.8471619000193,371.8657404999831,371.8657404999831,371.8657404999831,374.8428844999871,indoor,f,374.8429428000236,,,374.8429543999955,None,,,2.0122360000386834,0.16007749998243526,,,,,,,,,,,00047,001,2026-01-18_12h01.27.453,MST_task,2024.2.0,59.702811362365,2026-01-18 12h01.44.192645 +0530,
,Objects\135a.jpg,70,0,71,,,,,,,f,None,,,1.4614200000069104,0.21522499999264255,,,,71,0,70,374.85969539999496,,,,,,,,,,,,,,,,,,,,,,,374.8431624000077,374.85969539999496,375.34466469998006,,,,,,,,,,,,,,,,,,,,,,,375.355274200032,375.3781678000232,375.3781678000232,375.3781678000232,378.3553169000079,shoe,f,378.3569346999866,,,378.35695220000343,None,,,1.4614200000069104,0.21522499999264255,,,,,,,,,,,00047,001,2026-01-18_12h01.27.453,MST_task,2024.2.0,59.702811362365,2026-01-18 12h01.44.192645 +0530,
,Objects\205a.jpg,71,0,72,,,,,,,j,None,,,1.3325916000176221,0.1677431999705732,,,,72,0,71,378.3718651999952,,,,,,,,,,,,,,,,,,,,,,,378.3570742000011,378.3718651999952,378.85708049999084,,,,,,,,,,,,,,,,,,,,,,,378.8716967999935,378.890344000014,378.890344000014,378.890344000014,381.86749590002,shoe,j,381.86753769998904,,,381.8675495000207,None,,,1.3325916000176221,0.1677431999705732,,,,,,,,,,,00047,001,2026-01-18_12h01.27.453,MST_task,2024.2.0,59.702811362365,2026-01-18 12h01.44.192645 +0530,
,Objects\071a.jpg,72,0,73,,,,,,,j,None,,,2.4839430999709293,0.15987870004028082,,,,73,0,72,381.8842774000368,,,,,,,,,,,,,,,,,,,,,,,381.86761950002983,381.8842774000368,382.36925490002614,,,,,,,,,,,,,,,,,,,,,,,382.38419860001886,382.4027670000214,382.4027670000214,382.4027670000214,385.37990870000795,shoe,j,385.3801038999809,,,385.38013410003623,None,,,2.4839430999709293,0.15987870004028082,,,,,,,,,,,00047,001,2026-01-18_12h01.27.453,MST_task,2024.2.0,59.702811362365,2026-01-18 12h01.44.192645 +0530,
,Objects\027a.jpg,73,0,74,,,,,,,j,None,,,2.588295300025493,0.15138819999992847,,,,74,0,73,385.39660510001704,,,,,,,,,,,,,,,,,,,,,,,385.3802427999908,385.39660510001704,385.8818484999938,,,,,,,,,,,,,,,,,,,,,,,385.8917277000146,385.9150332999998,385.9150332999998,385.9150332999998,388.8922072999994,shoe,j,388.89224990003277,,,388.8922617000062,None,,,2.588295300025493,0.15138819999992847,,,,,,,,,,,00047,001,2026-01-18_12h01.27.453,MST_task,2024.2.0,59.702811362365,2026-01-18 12h01.44.192645 +0530,
,Objects\076a.jpg,74,0,75,,,,,,,f,None,,,1.498703800025396,0.16873169998871163,,,,75,0,74,388.90877039998304,,,,,,,,,,,,,,,,,,,,,,,388.8923305000062,388.90877039998304,389.39397929998813,,,,,,,,,,,,,,,,,,,,,,,389.40376900002593,389.4272469999851,389.4272469999851,389.4272469999851,392.40441890002694,shoe,f,392.40446600003634,,,392.4044787000166,None,,,1.498703800025396,0.16873169998871163,,,,,,,,,,,00047,001,2026-01-18_12h01.27.453,MST_task,2024.2.0,59.702811362365,2026-01-18 12h01.44.192645 +0530,
,Objects\004a.jpg,75,0,76,,,,,,,j,None,,,2.0191256999969482,0.13612969999667257,,,,76,0,75,392.4211891000159,,,,,,,,,,,,,,,,,,,,,,,392.4045902999933,392.4211891000159,392.906052300008,,,,,,,,,,,,,,,,,,,,,,,392.9148460000288,392.9396757000359,392.9396757000359,392.9396757000359,395.9168135999935,shoe,j,395.9168562000268,,,395.9168682000018,None,,,2.0191256999969482,0.13612969999667257,,,,,,,,,,,00047,001,2026-01-18_12h01.27.453,MST_task,2024.2.0,59.702811362365,2026-01-18 12h01.44.192645 +0530,
,Objects\244a.jpg,76,0,77,,,,,,,f,None,,,1.0830412999494001,0.1598054000060074,,,,77,0,76,395.93336179998005,,,,,,,,,,,,,,,,,,,,,,,395.91693730000407,395.93336179998005,396.4185683000251,,,,,,,,,,,,,,,,,,,,,,,396.43133180000586,396.45183899998665,396.45183899998665,396.45183899998665,399.42917230003513,shoe,f,399.42921979998937,,,399.4292314000195,None,,,1.0830412999494001,0.1598054000060074,,,,,,,,,,,00047,001,2026-01-18_12h01.27.453,MST_task,2024.2.0,59.702811362365,2026-01-18 12h01.44.192645 +0530,
,Objects\183a.jpg,77,0,78,,,,,,,j,None,,,0.8262270000413992,0.15102290001232177,,,,78,0,77,399.44614030001685,,,,,,,,,,,,,,,,,,,,,,,399.4293012000271,399.44614030001685,399.9307803999982,,,,,,,,,,,,,,,,,,,,,,,399.9472644000198,399.9648233000189,399.9648233000189,399.9648233000189,402.9415993000148,indoor,j,402.942844300007,,,402.94286170002306,None,,,0.8262270000413992,0.15102290001232177,,,,,,,,,,,00047,001,2026-01-18_12h01.27.453,MST_task,2024.2.0,59.702811362365,2026-01-18 12h01.44.192645 +0530,
,Objects\002a.jpg,78,0,79,,,,,,,None,j,1.0268270000233315,None,,,,,,79,0,78,402.95801579998806,,,,,,,,,,,,,,,,,,,,,,,402.9429457000224,402.95801579998806,403.44368269998813,,,,,,,,,,,,,,,,,,,,,,,403.4528326999862,403.47695019998355,403.47695019998355,403.47695019998355,406.4542031000019,indoor,None,406.4542411000002,406.47047820000444,406.47047820000444,407.50787209998816,j,1.0268270000233315,None,,,,,,,,,,,,,00047,001,2026-01-18_12h01.27.453,MST_task,2024.2.0,59.702811362365,2026-01-18 12h01.44.192645 +0530,
,Objects\067a.jpg,79,0,80,,,,,,,None,f,0.7865463999914937,None,,,,,,80,0,79,407.52457970002433,,,,,,,,,,,,,,,,,,,,,,,407.50796479999553,407.52457970002433,408.0092210000148,,,,,,,,,,,,,,,,,,,,,,,408.0185618000105,408.0423890000093,408.0423890000093,408.0423890000093,411.01988580002217,indoor,None,411.0199267999851,411.0362744000158,411.0362744000158,411.82371409999905,f,0.7865463999914937,None,,,,,,,,,,,,,00047,001,2026-01-18_12h01.27.453,MST_task,2024.2.0,59.702811362365,2026-01-18 12h01.44.192645 +0530,
,Objects\188a.jpg,80,0,81,,,,,,,None,f,1.5990527999820188,None,,,,,,81,0,80,411.8391994999838,,,,,,,,,,,,,,,,,,,,,,,411.82381010003155,411.8391994999838,412.32445300003747,,,,,,,,,,,,,,,,,,,,,,,412.3343087999965,412.35805819998495,412.35805819998495,412.35805819998495,415.3347109000315,indoor,None,415.33475189999444,415.35147470002994,415.35147470002994,416.9581147999852,f,1.5990527999820188,None,,,,,,,,,,,,,00047,001,2026-01-18_12h01.27.453,MST_task,2024.2.0,59.702811362365,2026-01-18 12h01.44.192645 +0530,
,Objects\332a.jpg,81,0,82,,,,,,,j,None,,,2.0185640000272542,0.14333809999516234,,,,82,0,81,416.9737005000352,,,,,,,,,,,,,,,,,,,,,,,416.9582081999979,416.9737005000352,417.45891540002776,,,,,,,,,,,,,,,,,,,,,,,417.4733835000079,417.492306500033,417.492306500033,417.492306500033,420.4693361999816,indoor,j,420.46938090003096,,,420.4693929000059,None,,,2.0185640000272542,0.14333809999516234,,,,,,,,,,,00047,001,2026-01-18_12h01.27.453,MST_task,2024.2.0,59.702811362365,2026-01-18 12h01.44.192645 +0530,
,Objects\180a.jpg,82,0,83,,,,,,,None,f,1.2090134000172839,None,,,,,,83,0,82,420.48612329998286,,,,,,,,,,,,,,,,,,,,,,,420.4694623000105,420.48612329998286,420.9712164000375,,,,,,,,,,,,,,,,,,,,,,,420.9860881000059,421.0047350000241,421.0047350000241,421.0047350000241,423.9816606999957,indoor,None,423.98169889999554,423.9984272000147,423.9984272000147,425.21978859999217,f,1.2090134000172839,None,,,,,,,,,,,,,00047,001,2026-01-18_12h01.27.453,MST_task,2024.2.0,59.702811362365,2026-01-18 12h01.44.192645 +0530,
,Objects\081a.jpg,83,0,84,,,,,,,j,None,,,1.2760498000425287,0.13573659997200593,,,,84,0,83,425.2360904000234,,,,,,,,,,,,,,,,,,,,,,,425.21987889998127,425.2360904000234,425.7210519000073,,,,,,,,,,,,,,,,,,,,,,,425.73118870001053,425.7545838000369,425.7545838000369,425.7545838000369,428.73170770000434,indoor,j,428.73201610002434,,,428.7320337999845,None,,,1.2760498000425287,0.13573659997200593,,,,,,,,,,,00047,001,2026-01-18_12h01.27.453,MST_task,2024.2.0,59.702811362365,2026-01-18 12h01.44.192645 +0530,
,Objects\300a.jpg,84,0,85,,,,,,,f,None,,,2.124652899976354,0.19138390000443906,,,,85,0,84,428.74828559998423,,,,,,,,,,,,,,,,,,,,,,,428.73211209999863,428.74828559998423,429.2335077000316,,,,,,,,,,,,,,,,,,,,,,,429.24990210001124,429.26676850003423,429.26676850003423,429.26676850003423,432.2439173000166,shoe,f,432.24569210002664,,,432.2457100999891,None,,,2.124652899976354,0.19138390000443906,,,,,,,,,,,00047,001,2026-01-18_12h01.27.453,MST_task,2024.2.0,59.702811362365,2026-01-18 12h01.44.192645 +0530,
,Objects\077a.jpg,85,0,86,,,,,,,j,None,,,1.7720732999732718,0.19094649999169633,,,,86,0,85,432.26069359999383,,,,,,,,,,,,,,,,,,,,,,,432.245782300015,432.26069359999383,432.745780199999,,,,,,,,,,,,,,,,,,,,,,,432.7608865000075,432.77917950000847,432.77917950000847,432.77917950000847,435.75684809999075,shoe,j,435.75689259998035,,,435.75690420001047,None,,,1.7720732999732718,0.19094649999169633,,,,,,,,,,,00047,001,2026-01-18_12h01.27.453,MST_task,2024.2.0,59.702811362365,2026-01-18 12h01.44.192645 +0530,
,Objects\049a.jpg,86,0,87,,,,,,,None,j,0.6168410999816842,None,,,,,,87,0,86,435.7730164999957,,,,,,,,,,,,,,,,,,,,,,,435.75701519998256,435.7730164999957,436.25828150002053,,,,,,,,,,,,,,,,,,,,,,,436.26790089998394,436.29137410002295,436.29137410002295,436.29137410002295,439.26849280000897,shoe,None,439.26853549998486,439.2853008999955,439.2853008999955,439.9047370000044,j,0.6168410999816842,None,,,,,,,,,,,,,00047,001,2026-01-18_12h01.27.453,MST_task,2024.2.0,59.702811362365,2026-01-18 12h01.44.192645 +0530,
,Objects\220a.jpg,87,0,88,,,,,,,j,None,,,1.5990467999945395,0.18473290000110865,,,,88,0,87,439.92083630000707,,,,,,,,,,,,,,,,,,,,,,,439.9048271999927,439.92083630000707,440.40582580002956,,,,,,,,,,,,,,,,,,,,,,,440.4208240000298,440.4393377000233,440.4393377000233,440.4393377000233,443.41635730001144,shoe,j,443.4164008999942,,,443.4164131000289,None,,,1.5990467999945395,0.18473290000110865,,,,,,,,,,,00047,001,2026-01-18_12h01.27.453,MST_task,2024.2.0,59.702811362365,2026-01-18 12h01.44.192645 +0530,
,Objects\222a.jpg,88,0,89,,,,,,,j,None,,,1.7352678999886848,0.17579240002669394,,,,89,0,88,443.4331537000253,,,,,,,,,,,,,,,,,,,,,,,443.4165066999849,443.4331537000253,443.9181225000066,,,,,,,,,,,,,,,,,,,,,,,443.9326588999829,443.95162940002047,443.95162940002047,443.95162940002047,446.9287832999835,shoe,j,446.9291103000287,,,446.9291268999805,None,,,1.7352678999886848,0.17579240002669394,,,,,,,,,,,00047,001,2026-01-18_12h01.27.453,MST_task,2024.2.0,59.702811362365,2026-01-18 12h01.44.192645 +0530,
,Objects\234a.jpg,89,0,90,,,,,,,None,j,1.092397100001108,None,,,,,,90,0,89,446.94533950003097,,,,,,,,,,,,,,,,,,,,,,,446.9292166000232,446.94533950003097,447.4305256000371,,,,,,,,,,,,,,,,,,,,,,,447.44533020001836,447.463811900001,447.463811900001,447.463811900001,450.44094529998256,shoe,None,450.44099580001784,450.4577453000238,450.4577453000238,451.56232450000243,j,1.092397100001108,None,,,,,,,,,,,,,00047,001,2026-01-18_12h01.27.453,MST_task,2024.2.0,59.702811362365,2026-01-18 12h01.44.192645 +0530,
,Objects\348a.jpg,90,0,91,,,,,,,None,f,0.8841007999726571,None,,,,,,91,0,90,451.5783871000167,,,,,,,,,,,,,,,,,,,,,,,451.56241160002537,451.5783871000167,452.0634130000253,,,,,,,,,,,,,,,,,,,,,,,452.0778732000035,452.09681160002947,452.09681160002947,452.09681160002947,455.0739962999942,shoe,None,455.07403670001077,455.090765400033,455.090765400033,455.97766430000775,f,0.8841007999726571,None,,,,,,,,,,,,,00047,001,2026-01-18_12h01.27.453,MST_task,2024.2.0,59.702811362365,2026-01-18 12h01.44.192645 +0530,
,Objects\155a.jpg,91,0,92,,,,,,,None,f,1.676142499956768,None,,,,,,92,0,91,455.9937939000083,,,,,,,,,,,,,,,,,,,,,,,455.97775610000826,455.9937939000083,456.47876209998503,,,,,,,,,,,,,,,,,,,,,,,456.4946066000266,456.5122804000275,456.5122804000275,456.5122804000275,459.48959700000705,indoor,None,459.49079519999214,459.5059939000057,459.5059939000057,461.19633429998066,f,1.676142499956768,None,,,,,,,,,,,,,00047,001,2026-01-18_12h01.27.453,MST_task,2024.2.0,59.702811362365,2026-01-18 12h01.44.192645 +0530,
,Objects\211a.jpg,92,0,93,,,,,,,None,j,2.65054170001531,None,,,,,,93,0,92,461.211964200018,,,,,,,,,,,,,,,,,,,,,,,461.1964251000318,461.211964200018,461.6971599999815,,,,,,,,,,,,,,,,,,,,,,,461.7111353999935,461.73044150002534,461.73044150002534,461.73044150002534,464.707740599988,indoor,None,464.7077789999894,464.72437479998916,464.72437479998916,467.3842573000002,j,2.65054170001531,None,,,,,,,,,,,,,00047,001,2026-01-18_12h01.27.453,MST_task,2024.2.0,59.702811362365,2026-01-18 12h01.44.192645 +0530,
,Objects\370a.jpg,93,0,94,,,,,,,j,None,,,2.10377809999045,0.10403950000181794,,,,94,0,93,467.4004126000218,,,,,,,,,,,,,,,,,,,,,,,467.3843484999961,467.4004126000218,467.8853824000107,,,,,,,,,,,,,,,,,,,,,,,467.9024190999917,467.91890180000337,467.91890180000337,467.91890180000337,470.896052600001,indoor,j,470.89609589998145,,,470.89610780001385,None,,,2.10377809999045,0.10403950000181794,,,,,,,,,,,00047,001,2026-01-18_12h01.27.453,MST_task,2024.2.0,59.702811362365,2026-01-18 12h01.44.192645 +0530,
,Objects\138a.jpg,94,0,95,,,,,,,None,j,0.1340910000144504,None,,,,,,95,0,94,470.9127117000171,,,,,,,,,,,,,,,,,,,,,,,470.8961785000283,470.9127117000171,471.3978017999907,,,,,,,,,,,,,,,,,,,,,,,471.4070308000082,471.43108399998164,471.43108399998164,471.43108399998164,474.40837200003443,indoor,None,474.40841390000423,474.4250296999817,474.4250296999817,474.55968419997953,j,0.1340910000144504,None,,,,,,,,,,,,,00047,001,2026-01-18_12h01.27.453,MST_task,2024.2.0,59.702811362365,2026-01-18 12h01.44.192645 +0530,
,Objects\227a.jpg,95,0,96,,,,,,,j,None,,,1.3129286000039428,0.14302359998691827,,,,96,0,95,474.5754186999984,,,,,,,,,,,,,,,,,,,,,,,474.5597725000116,474.5754186999984,475.06061380001483,,,,,,,,,,,,,,,,,,,,,,,475.07261480001034,475.0940204000217,475.0940204000217,475.0940204000217,478.0712898999918,indoor,j,478.071333400032,,,478.07134570000926,None,,,1.3129286000039428,0.14302359998691827,,,,,,,,,,,00047,001,2026-01-18_12h01.27.453,MST_task,2024.2.0,59.702811362365,2026-01-18 12h01.44.192645 +0530,
,Objects\056a.jpg,96,0,97,,,,,,,None,f,1.0469783000298776,None,,,,,,97,0,96,478.08771689998684,,,,,,,,,,,,,,,,,,,,,,,478.07141740003135,478.08771689998684,478.57292990002315,,,,,,,,,,,,,,,,,,,,,,,478.58219620003365,478.60619670001324,478.60619670001324,478.60619670001324,481.58334930002457,indoor,None,481.5834022000199,481.60014330002014,481.60014330002014,482.65446570003405,f,1.0469783000298776,None,,,,,,,,,,,,,00047,001,2026-01-18_12h01.27.453,MST_task,2024.2.0,59.702811362365,2026-01-18 12h01.44.192645 +0530,
,Objects\023a.jpg,97,0,98,,,,,,,None,f,0.31115359999239445,None,,,,,,98,0,97,482.6705670999945,,,,,,,,,,,,,,,,,,,,,,,482.65456090000225,482.6705670999945,483.1555387999979,,,,,,,,,,,,,,,,,,,,,,,483.16469060000964,483.18905019998783,483.18905019998783,483.18905019998783,486.16616610001074,indoor,None,486.16621890000533,486.1827257000259,486.1827257000259,486.5015357999946,f,0.31115359999239445,None,,,,,,,,,,,,,00047,001,2026-01-18_12h01.27.453,MST_task,2024.2.0,59.702811362365,2026-01-18 12h01.44.192645 +0530,
,Objects\111a.jpg,98,0,99,,,,,,,j,None,,,2.2667275999556296,0.16795170004479587,,,,99,0,98,486.51736900000833,,,,,,,,,,,,,,,,,,,,,,,486.50162340002134,486.51736900000833,487.00243679998675,,,,,,,,,,,,,,,,,,,,,,,487.01326989999507,487.0357324000215,487.0357324000215,487.0357324000215,490.01285940001253,shoe,j,490.0144594000303,,,490.0144780999981,None,,,2.2667275999556296,0.16795170004479587,,,,,,,,,,,00047,001,2026-01-18_12h01.27.453,MST_task,2024.2.0,59.702811362365,2026-01-18 12h01.44.192645 +0530,
,Objects\316a.jpg,99,0,100,,,,,,,None,f,0.6008220000076108,None,,,,,,100,0,99,490.02965560002485,,,,,,,,,,,,,,,,,,,,,,,490.0145872000139,490.02965560002485,490.5146033000201,,,,,,,,,,,,,,,,,,,,,,,490.5288441000157,490.5481885999907,490.5481885999907,490.5481885999907,493.5254119000165,shoe,None,493.5254506000201,493.5418399000191,493.5418399000191,494.144538499997,f,0.6008220000076108,None,,,,,,,,,,,,,00047,001,2026-01-18_12h01.27.453,MST_task,2024.2.0,59.702811362365,2026-01-18 12h01.44.192645 +0530,
,Objects\041a.jpg,100,0,101,,,,,,,j,None,,,1.4634006000123918,0.19230319996131584,,,,101,0,100,494.1608436999959,,,,,,,,,,,,,,,,,,,,,,,494.14462760003516,494.1608436999959,494.64585169998463,,,,,,,,,,,,,,,,,,,,,,,494.66079589998117,494.67913190001855,494.67913190001855,494.67913190001855,497.65628639998613,shoe,j,497.65632930002175,,,497.65634119999595,None,,,1.4634006000123918,0.19230319996131584,,,,,,,,,,,00047,001,2026-01-18_12h01.27.453,MST_task,2024.2.0,59.702811362365,2026-01-18 12h01.44.192645 +0530,
,Objects\361a.jpg,101,0,102,,,,,,,j,None,,,1.3266084999777377,0.19330889999400824,,,,102,0,101,497.67311650002375,,,,,,,,,,,,,,,,,,,,,,,497.6564430000144,497.67311650002375,498.1580564000178,,,,,,,,,,,,,,,,,,,,,,,498.16754950000905,498.19159990001936,498.19159990001936,498.19159990001936,501.1687131000217,shoe,j,501.169019700028,,,501.1690468000015,None,,,1.3266084999777377,0.19330889999400824,,,,,,,,,,,00047,001,2026-01-18_12h01.27.453,MST_task,2024.2.0,59.702811362365,2026-01-18 12h01.44.192645 +0530,
,Objects\380a.jpg,102,0,103,,,,,,,j,None,,,1.8309748000465333,0.2159451000043191,,,,103,0,102,501.1854580999934,,,,,,,,,,,,,,,,,,,,,,,501.16915490000974,501.1854580999934,501.67045520001557,,,,,,,,,,,,,,,,,,,,,,,501.67966750002233,501.70374090003315,501.70374090003315,501.70374090003315,504.6809208000195,shoe,j,504.6809632999939,,,504.6809750000248,None,,,1.8309748000465333,0.2159451000043191,,,,,,,,,,,00047,001,2026-01-18_12h01.27.453,MST_task,2024.2.0,59.702811362365,2026-01-18 12h01.44.192645 +0530,
,Objects\259a.jpg,103,0,104,,,,,,,j,None,,,1.2949569000047632,0.19136900000739843,,,,104,0,103,504.6976858000271,,,,,,,,,,,,,,,,,,,,,,,504.68104490003316,504.6976858000271,505.1826471000095,,,,,,,,,,,,,,,,,,,,,,,505.1993485999992,505.2161505999975,505.2161505999975,505.2161505999975,508.1933226999827,shoe,j,508.1936636000173,,,508.1936786000151,None,,,1.2949569000047632,0.19136900000739843,,,,,,,,,,,00047,001,2026-01-18_12h01.27.453,MST_task,2024.2.0,59.702811362365,2026-01-18 12h01.44.192645 +0530,
,Objects\140a.jpg,104,0,105,,,,,,,j,None,,,1.9104234999977052,0.12023079994833097,,,,105,0,104,508.2098685000092,,,,,,,,,,,,,,,,,,,,,,,508.19375540001784,508.2098685000092,508.69505859998753,,,,,,,,,,,,,,,,,,,,,,,508.7104265000089,508.7283327000332,508.7283327000332,508.7283327000332,511.70560990000376,shoe,j,511.7058069999912,,,511.7058376999921,None,,,1.9104234999977052,0.12023079994833097,,,,,,,,,,,00047,001,2026-01-18_12h01.27.453,MST_task,2024.2.0,59.702811362365,2026-01-18 12h01.44.192645 +0530,
,Objects\078a.jpg,105,0,106,,,,,,,j,None,,,1.709556200017687,0.11199220002163202,,,,106,0,105,511.722170300025,,,,,,,,,,,,,,,,,,,,,,,511.70591700001387,511.722170300025,512.2073812999879,,,,,,,,,,,,,,,,,,,,,,,512.217665300006,512.2408025999903,512.2408025999903,512.2408025999903,515.2177864999976,indoor,j,515.2192752999836,,,515.2192940000095,None,,,1.709556200017687,0.11199220002163202,,,,,,,,,,,00047,001,2026-01-18_12h01.27.453,MST_task,2024.2.0,59.702811362365,2026-01-18 12h01.44.192645 +0530,
,Objects\050a.jpg,106,0,107,,,,,,,j,None,,,2.4145146999508142,0.11939320003148168,,,,107,0,106,515.2346035999944,,,,,,,,,,,,,,,,,,,,,,,515.2193661000347,515.2346035999944,515.7195332000265,,,,,,,,,,,,,,,,,,,,,,,515.730896699999,515.7530475999811,515.7530475999811,515.7530475999811,518.7303777000052,indoor,j,518.7304210999864,,,518.730432500015,None,,,2.4145146999508142,0.11939320003148168,,,,,,,,,,,00047,001,2026-01-18_12h01.27.453,MST_task,2024.2.0,59.702811362365,2026-01-18 12h01.44.192645 +0530,
,Objects\216a.jpg,107,0,108,,,,,,,None,f,0.004216099972836673,None,,,,,,108,0,107,518.7469263999956,,,,,,,,,,,,,,,,,,,,,,,518.7305004000082,518.7469263999956,519.232156699989,,,,,,,,,,,,,,,,,,,,,,,519.2413711000117,519.2654253999935,519.2654253999935,519.2654253999935,522.2426054999814,indoor,None,522.2426562000182,522.2592339999974,522.2592339999974,522.2764296000241,f,0.004216099972836673,None,,,,,,,,,,,,,00047,001,2026-01-18_12h01.27.453,MST_task,2024.2.0,59.702811362365,2026-01-18 12h01.44.192645 +0530,
,Objects\228a.jpg,108,0,109,,,,,,,f,None,,,2.63491600000998,0.1927049999940209,,,,109,0,108,522.29275100003,,,,,,,,,,,,,,,,,,,,,,,522.2765135000227,522.29275100003,522.777701199986,,,,,,,,,,,,,,,,,,,,,,,522.7871687000152,522.81117120001,522.81117120001,522.81117120001,525.7883049999946,indoor,f,525.7883467000211,,,525.7883713000338,None,,,2.63491600000998,0.1927049999940209,,,,,,,,,,,00047,001,2026-01-18_12h01.27.453,MST_task,2024.2.0,59.702811362365,2026-01-18 12h01.44.192645 +0530,
,Objects\096a.jpg,109,0,110,,,,,,,j,None,,,1.7621873000171036,0.17689740000059828,,,,110,0,109,525.8048787000007,,,,,,,,,,,,,,,,,,,,,,,525.7884414999862,525.8048787000007,526.2907570999814,,,,,,,,,,,,,,,,,,,,,,,526.3001941000111,526.323795000033,526.323795000033,526.323795000033,529.3007671000087,indoor,j,529.3008092999808,,,529.3008203000063,None,,,1.7621873000171036,0.17689740000059828,,,,,,,,,,,00047,001,2026-01-18_12h01.27.453,MST_task,2024.2.0,59.702811362365,2026-01-18 12h01.44.192645 +0530,
,Objects\163a.jpg,110,0,111,,,,,,,None,j,1.2171780999633484,None,,,,,,111,0,110,529.3173185000196,,,,,,,,,,,,,,,,,,,,,,,529.3008894000086,529.3173185000196,529.8024947000085,,,,,,,,,,,,,,,,,,,,,,,529.8123569000163,529.8357403000118,529.8357403000118,529.8357403000118,532.8129115999909,indoor,None,532.8129619000247,532.8297365999897,532.8297365999897,534.0509609000292,j,1.2171780999633484,None,,,,,,,,,,,,,00047,001,2026-01-18_12h01.27.453,MST_task,2024.2.0,59.702811362365,2026-01-18 12h01.44.192645 +0530,
,Objects\203a.jpg,111,0,112,,,,,,,None,j,3.802536199975293,None,,,,,,112,0,111,534.0671910999808,,,,,,,,,,,,,,,,,,,,,,,534.0510787999956,534.0671910999808,534.552157099999,,,,,,,,,,,,,,,,,,,,,,,534.5695950000081,534.585688000021,534.585688000021,534.585688000021,537.5628354999935,indoor,None,537.563041699992,537.579366800026,537.579366800026,541.39343440003,j,3.802536199975293,None,,,,,,,,,,,,,00047,001,2026-01-18_12h01.27.453,MST_task,2024.2.0,59.702811362365,2026-01-18 12h01.44.192645 +0530,
,Objects\151a.jpg,112,0,113,,,,,,,None,f,0.452189699979499,None,,,,,,113,0,112,541.4095769000123,,,,,,,,,,,,,,,,,,,,,,,541.3935248000198,541.4095769000123,541.894547200005,,,,,,,,,,,,,,,,,,,,,,,541.9110010000295,541.9280681000091,541.9280681000091,541.9280681000091,544.9052196000121,shoe,None,544.906793800008,544.921749900037,544.921749900037,545.374729000032,f,0.452189699979499,None,,,,,,,,,,,,,00047,001,2026-01-18_12h01.27.453,MST_task,2024.2.0,59.702811362365,2026-01-18 12h01.44.192645 +0530,
,Objects\215a.jpg,113,0,114,,,,,,,None,f,0.3515336000127718,None,,,,,,114,0,113,545.3900860000285,,,,,,,,,,,,,,,,,,,,,,,545.3748235999956,545.3900860000285,545.8753487000358,,,,,,,,,,,,,,,,,,,,,,,545.8848395000095,545.908591400017,545.908591400017,545.908591400017,548.8857985000359,shoe,None,548.8858374999836,548.9033878000337,548.9033878000337,549.2710138999973,f,0.3515336000127718,None,,,,,,,,,,,,,00047,001,2026-01-18_12h01.27.453,MST_task,2024.2.0,59.702811362365,2026-01-18 12h01.44.192645 +0530,
,Objects\243a.jpg,114,0,115,,,,,,,f,None,,,1.5529037000378594,0.167426300002262,,,,115,0,114,549.2871537000174,,,,,,,,,,,,,,,,,,,,,,,549.2711061000009,549.2871537000174,549.7721171000157,,,,,,,,,,,,,,,,,,,,,,,549.787160900014,549.8056390000274,549.8056390000274,549.8056390000274,552.7829731000238,shoe,f,552.7833170000231,,,552.7833319000201,None,,,1.5529037000378594,0.167426300002262,,,,,,,,,,,00047,001,2026-01-18_12h01.27.453,MST_task,2024.2.0,59.702811362365,2026-01-18 12h01.44.192645 +0530,
,Objects\264a.jpg,115,0,116,,,,,,,f,None,,,1.9122835000162013,0.1761980999726802,,,,116,0,115,552.7995326999808,,,,,,,,,,,,,,,,,,,,,,,552.7834066000069,552.7995326999808,553.2845404000254,,,,,,,,,,,,,,,,,,,,,,,553.2982135000057,553.3179566999897,553.3179566999897,553.3179566999897,556.2950373000349,shoe,f,556.2950848999899,,,556.29509650002,None,,,1.9122835000162013,0.1761980999726802,,,,,,,,,,,00047,001,2026-01-18_12h01.27.453,MST_task,2024.2.0,59.702811362365,2026-01-18 12h01.44.192645 +0530,
,Objects\031a.jpg,116,0,117,,,,,,,j,None,,,1.2480004000244662,0.12868359999265522,,,,117,0,116,556.3120588000165,,,,,,,,,,,,,,,,,,,,,,,556.2951668000314,556.3120588000165,556.7973781999899,,,,,,,,,,,,,,,,,,,,,,,556.8120721000014,556.8303181999945,556.8303181999945,556.8303181999945,559.8076091000112,shoe,j,559.807653099997,,,559.8076647000271,None,,,1.2480004000244662,0.12868359999265522,,,,,,,,,,,00047,001,2026-01-18_12h01.27.453,MST_task,2024.2.0,59.702811362365,2026-01-18 12h01.44.192645 +0530,
,Objects\141a.jpg,117,0,118,,,,,,,j,None,,,1.2637725999811664,0.15163229999598116,,,,118,0,117,559.8241532000247,,,,,,,,,,,,,,,,,,,,,,,559.8077860000194,559.8241532000247,560.3096503000124,,,,,,,,,,,,,,,,,,,,,,,560.3189114999841,560.3429331000079,560.3429331000079,560.3429331000079,563.3195604000357,shoe,j,563.3196161999949,,,563.3196287000319,None,,,1.2637725999811664,0.15163229999598116,,,,,,,,,,,00047,001,2026-01-18_12h01.27.453,MST_task,2024.2.0,59.702811362365,2026-01-18 12h01.44.192645 +0530,
,Objects\288a.jpg,118,0,119,,,,,,,f,None,,,1.3836719000246376,0.15943719999631867,,,,119,0,118,563.3363505000016,,,,,,,,,,,,,,,,,,,,,,,563.3198384999996,563.3363505000016,563.8213176000281,,,,,,,,,,,,,,,,,,,,,,,563.8362017000327,563.8548238000367,563.8548238000367,563.8548238000367,566.831877699995,shoe,f,566.8319332000101,,,566.8319449999835,None,,,1.3836719000246376,0.15943719999631867,,,,,,,,,,,00047,001,2026-01-18_12h01.27.453,MST_task,2024.2.0,59.702811362365,2026-01-18 12h01.44.192645 +0530,
,Objects\237a.jpg,119,0,120,,,,,,,j,None,,,1.5753081000293605,0.14386139996349812,,,,120,0,119,566.8487254999927,,,,,,,,,,,,,,,,,,,,,,,566.8322679999983,566.8487254999927,567.3336102000321,,,,,,,,,,,,,,,,,,,,,,,567.3505026000203,567.3671264000004,567.3671264000004,567.3671264000004,570.3442858000053,indoor,j,570.3457192000351,,,570.3457374999998,None,,,1.5753081000293605,0.14386139996349812,,,,,,,,,,,00047,001,2026-01-18_12h01.27.453,MST_task,2024.2.0,59.702811362365,2026-01-18 12h01.44.192645 +0530,
,Objects\344a.jpg,120,0,121,,,,,,,j,None,,,0.9509125999757089,0.1280040999990888,,,,121,0,120,570.3608403999824,,,,,,,,,,,,,,,,,,,,,,,570.3458095000242,570.3608403999824,570.8460418999894,,,,,,,,,,,,,,,,,,,,,,,570.8595291000092,570.8793129000114,570.8793129000114,570.8793129000114,573.8564726000186,indoor,j,573.8565316000022,,,573.8565434000338,None,,,0.9509125999757089,0.1280040999990888,,,,,,,,,,,00047,001,2026-01-18_12h01.27.453,MST_task,2024.2.0,59.702811362365,2026-01-18 12h01.44.192645 +0530,
,Objects\201a.jpg,121,0,122,,,,,,,None,f,0.9004832000355236,None,,,,,,122,0,121,573.8732668000157,,,,,,,,,,,,,,,,,,,,,,,573.856761300005,573.8732668000157,574.3585990000283,,,,,,,,,,,,,,,,,,,,,,,574.3739734999835,574.391605700017,574.391605700017,574.391605700017,577.3687588000321,indoor,None,577.3688109000213,577.3857336000074,577.3857336000074,578.289143800037,f,0.9004832000355236,None,,,,,,,,,,,,,00047,001,2026-01-18_12h01.27.453,MST_task,2024.2.0,59.702811362365,2026-01-18 12h01.44.192645 +0530,
,Objects\164a.jpg,122,0,123,,,,,,,j,None,,,1.014413999975659,0.176486800017301,,,,123,0,122,578.30532699998,,,,,,,,,,,,,,,,,,,,,,,578.289242000028,578.30532699998,578.7906894999905,,,,,,,,,,,,,,,,,,,,,,,578.8061989999842,578.8239855000284,578.8239855000284,578.8239855000284,581.8009450000245,indoor,j,581.8009900000179,,,581.8010026999982,None,,,1.014413999975659,0.176486800017301,,,,,,,,,,,00047,001,2026-01-18_12h01.27.453,MST_task,2024.2.0,59.702811362365,2026-01-18 12h01.44.192645 +0530,
,Objects\087a.jpg,123,0,124,,,,,,,j,None,,,1.2061250999686308,0.12770890002138913,,,,124,0,123,581.8183564000065,,,,,,,,,,,,,,,,,,,,,,,581.8010716999997,581.8183564000065,582.3026912999921,,,,,,,,,,,,,,,,,,,,,,,582.3118292000145,582.3362143000122,582.3362143000122,582.3362143000122,585.3132311000372,indoor,j,585.3132888000109,,,585.3133002999821,None,,,1.2061250999686308,0.12770890002138913,,,,,,,,,,,00047,001,2026-01-18_12h01.27.453,MST_task,2024.2.0,59.702811362365,2026-01-18 12h01.44.192645 +0530,
,Objects\268a.jpg,124,0,125,,,,,,,j,None,,,1.518149200011976,0.10363959998358041,,,,125,0,124,585.3300389000215,,,,,,,,,,,,,,,,,,,,,,,585.3135653000209,585.3300389000215,585.8150191000313,,,,,,,,,,,,,,,,,,,,,,,585.8286663999897,585.8485301000183,585.8485301000183,585.8485301000183,588.8256708999979,indoor,j,588.8257141000358,,,588.8257264000131,None,,,1.518149200011976,0.10363959998358041,,,,,,,,,,,00047,001,2026-01-18_12h01.27.453,MST_task,2024.2.0,59.702811362365,2026-01-18 12h01.44.192645 +0530,
,Objects\059a.jpg,125,0,126,,,,,,,j,None,,,1.5100105999736115,0.1278316000243649,,,,126,0,125,588.8422303000116,,,,,,,,,,,,,,,,,,,,,,,588.8257959000184,588.8422303000116,589.3274309000117,,,,,,,,,,,,,,,,,,,,,,,589.3423343999893,589.360699700017,589.360699700017,589.360699700017,592.3378489000024,indoor,j,592.337892999989,,,592.3379045000183,None,,,1.5100105999736115,0.1278316000243649,,,,,,,,,,,00047,001,2026-01-18_12h01.27.453,MST_task,2024.2.0,59.702811362365,2026-01-18 12h01.44.192645 +0530,
,Objects\088a.jpg,126,0,127,,,,,,,None,j,3.947932699986268,None,,,,,,127,0,126,592.354774300009,,,,,,,,,,,,,,,,,,,,,,,592.3379918999854,592.354774300009,592.8395951000275,,,,,,,,,,,,,,,,,,,,,,,592.850694600027,592.8731144000194,592.8731144000194,592.8731144000194,595.8502601000364,shoe,None,595.8520018000272,595.86681029998,595.86681029998,599.8314505000017,j,3.947932699986268,None,,,,,,,,,,,,,00047,001,2026-01-18_12h01.27.453,MST_task,2024.2.0,59.702811362365,2026-01-18 12h01.44.192645 +0530,
,Objects\192a.jpg,127,0,128,,,,,,,f,None,,,1.7607713000033982,0.14437210001051426,,,,128,0,127,599.847503099998,,,,,,,,,,,,,,,,,,,,,,,599.83160949999,599.847503099998,600.3327461000299,,,,,,,,,,,,,,,,,,,,,,,600.3423760000151,600.3659084999817,600.3659084999817,600.3659084999817,603.343154400005,shoe,f,603.3431972999824,,,603.3432094000163,None,,,1.7607713000033982,0.14437210001051426,,,,,,,,,,,00047,001,2026-01-18_12h01.27.453,MST_task,2024.2.0,59.702811362365,2026-01-18 12h01.44.192645 +0530,
,Objects\100a.jpg,128,0,129,,,,,,,j,None,,,2.49627409997629,0.15203540003858507,,,,129,0,128,603.3597271000035,,,,,,,,,,,,,,,,,,,,,,,603.3432789000217,603.3597271000035,603.8449253999861,,,,,,,,,,,,,,,,,,,,,,,603.8547269999981,603.8782039000071,603.8782039000071,603.8782039000071,606.8554771000054,shoe,j,606.8555356999859,,,606.8555470000138,None,,,2.49627409997629,0.15203540003858507,,,,,,,,,,,00047,001,2026-01-18_12h01.27.453,MST_task,2024.2.0,59.702811362365,2026-01-18 12h01.44.192645 +0530,
,Objects\186a.jpg,129,0,130,,,,,,,None,f,2.7427992000011727,None,,,,,,130,0,129,606.8721460999805,,,,,,,,,,,,,,,,,,,,,,,606.8557576999883,606.8721460999805,607.3571001000237,,,,,,,,,,,,,,,,,,,,,,,607.3659946999978,607.3906261000084,607.3906261000084,607.3906261000084,610.3677586999838,shoe,None,610.3677983999951,610.3843113000039,610.3843113000039,613.128137200023,f,2.7427992000011727,None,,,,,,,,,,,,,00047,001,2026-01-18_12h01.27.453,MST_task,2024.2.0,59.702811362365,2026-01-18 12h01.44.192645 +0530,
,Objects\375a.jpg,130,0,131,,,,,,,f,None,,,1.3923701999592595,0.21496350003872067,,,,131,0,130,613.1441093999892,,,,,,,,,,,,,,,,,,,,,,,613.1282252999954,613.1441093999892,613.6290803999873,,,,,,,,,,,,,,,,,,,,,,,613.6433255000156,613.6625782999909,613.6625782999909,613.6625782999909,616.6398368999944,shoe,f,616.6400441000005,,,616.6400751000037,None,,,1.3923701999592595,0.21496350003872067,,,,,,,,,,,00047,001,2026-01-18_12h01.27.453,MST_task,2024.2.0,59.702811362365,2026-01-18 12h01.44.192645 +0530,
,Objects\095a.jpg,131,0,132,,,,,,,f,None,,,1.504020499996841,0.18396689998917282,,,,132,0,131,616.6562823000131,,,,,,,,,,,,,,,,,,,,,,,616.6401504999958,616.6562823000131,617.1414697000291,,,,,,,,,,,,,,,,,,,,,,,617.1566882000188,617.1747653000057,617.1747653000057,617.1747653000057,620.1520263000275,shoe,f,620.1522230000119,,,620.1522524000029,None,,,1.504020499996841,0.18396689998917282,,,,,,,,,,,00047,001,2026-01-18_12h01.27.453,MST_task,2024.2.0,59.702811362365,2026-01-18 12h01.44.192645 +0530,
,Objects\116a.jpg,132,0,133,,,,,,,f,None,,,1.5756444000289775,0.18512849998660386,,,,133,0,132,620.1685763000278,,,,,,,,,,,,,,,,,,,,,,,620.1523648999864,620.1685763000278,620.6537795999902,,,,,,,,,,,,,,,,,,,,,,,620.6633423999883,620.6870613000356,620.6870613000356,620.6870613000356,623.6642115000286,shoe,f,623.664254400006,,,623.6642661999795,None,,,1.5756444000289775,0.18512849998660386,,,,,,,,,,,00047,001,2026-01-18_12h01.27.453,MST_task,2024.2.0,59.702811362365,2026-01-18 12h01.44.192645 +0530,
,Objects\382a.jpg,133,0,134,,,,,,,j,None,,,1.1110457999748178,0.2241671000374481,,,,134,0,133,623.6810008999892,,,,,,,,,,,,,,,,,,,,,,,623.6643699000124,623.6810008999892,624.1659566999879,,,,,,,,,,,,,,,,,,,,,,,624.1822333000018,624.1994708999991,624.1994708999991,624.1994708999991,627.1766186000314,indoor,j,627.1780567999813,,,627.1780751000042,None,,,1.1110457999748178,0.2241671000374481,,,,,,,,,,,00047,001,2026-01-18_12h01.27.453,MST_task,2024.2.0,59.702811362365,2026-01-18 12h01.44.192645 +0530,
,Objects\364a.jpg,134,0,135,,,,,,,j,None,,,1.07051789999241,0.16022700001485646,,,,135,0,134,627.1931844000355,,,,,,,,,,,,,,,,,,,,,,,627.1781468000263,627.1931844000355,627.6783934999839,,,,,,,,,,,,,,,,,,,,,,,627.6922113000182,627.7116620999877,627.7116620999877,627.7116620999877,630.6888403000194,indoor,j,630.6888858000166,,,630.6888981999946,None,,,1.07051789999241,0.16022700001485646,,,,,,,,,,,00047,001,2026-01-18_12h01.27.453,MST_task,2024.2.0,59.702811362365,2026-01-18 12h01.44.192645 +0530,
,Objects\310a.jpg,135,0,136,,,,,,,j,None,,,1.0870921000023372,0.2066497000050731,,,,136,0,135,630.705618100008,,,,,,,,,,,,,,,,,,,,,,,630.6889719000319,630.705618100008,631.1906982000219,,,,,,,,,,,,,,,,,,,,,,,631.2048903999967,631.2241961000254,631.2241961000254,631.2241961000254,634.2012286999961,indoor,j,634.2012755000032,,,634.2012870000326,None,,,1.0870921000023372,0.2066497000050731,,,,,,,,,,,00047,001,2026-01-18_12h01.27.453,MST_task,2024.2.0,59.702811362365,2026-01-18 12h01.44.192645 +0530,
,Objects\028a.jpg,136,0,137,,,,,,,f,None,,,1.1025345000089146,0.2153933999943547,,,,137,0,136,634.2177872000029,,,,,,,,,,,,,,,,,,,,,,,634.2013564000372,634.2177872000029,634.703001899994,,,,,,,,,,,,,,,,,,,,,,,634.7197955999873,634.736253399984,634.736253399984,634.736253399984,637.7134883999825,indoor,f,637.7135306000127,,,637.7135420999839,None,,,1.1025345000089146,0.2153933999943547,,,,,,,,,,,00047,001,2026-01-18_12h01.27.453,MST_task,2024.2.0,59.702811362365,2026-01-18 12h01.44.192645 +0530,
,Objects\185a.jpg,137,0,138,,,,,,,f,None,,,2.5583432000130415,0.20705020002787933,,,,138,0,137,637.7302449999843,,,,,,,,,,,,,,,,,,,,,,,637.7136106999824,637.7302449999843,638.2153547999915,,,,,,,,,,,,,,,,,,,,,,,638.2263244999922,638.2488658000366,638.2488658000366,638.2488658000366,641.2259846000234,indoor,f,641.2260282000061,,,641.2260404999834,None,,,2.5583432000130415,0.20705020002787933,,,,,,,,,,,00047,001,2026-01-18_12h01.27.453,MST_task,2024.2.0,59.702811362365,2026-01-18 12h01.44.192645 +0530,
,Objects\194a.jpg,138,0,139,,,,,,,f,None,,,2.1579043999663554,0.2718604000401683,,,,139,0,138,641.2425482000108,,,,,,,,,,,,,,,,,,,,,,,641.2261107999948,641.2425482000108,641.7277773999958,,,,,,,,,,,,,,,,,,,,,,,641.7410931999912,641.7610125000356,641.7610125000356,641.7610125000356,644.7381906000082,indoor,f,644.7382334999857,,,644.738245000015,None,,,2.1579043999663554,0.2718604000401683,,,,,,,,,,,00047,001,2026-01-18_12h01.27.453,MST_task,2024.2.0,59.702811362365,2026-01-18 12h01.44.192645 +0530,
,Objects\070a.jpg,139,0,140,,,,,,,f,None,,,1.0449406999978237,0.2081569000147283,,,,140,0,139,644.7549741999828,,,,,,,,,,,,,,,,,,,,,,,644.7383305000258,644.7549741999828,645.2399958000169,,,,,,,,,,,,,,,,,,,,,,,645.2550966999843,645.2737835000153,645.2737835000153,645.2737835000153,648.2505576999974,indoor,f,648.2506014999817,,,648.2506128000095,None,,,1.0449406999978237,0.2081569000147283,,,,,,,,,,,00047,001,2026-01-18_12h01.27.453,MST_task,2024.2.0,59.702811362365,2026-01-18 12h01.44.192645 +0530,
,Objects\254a.jpg,140,0,141,,,,,,,j,None,,,1.2621847999980673,0.19899760000407696,,,,141,0,140,648.2669901000336,,,,,,,,,,,,,,,,,,,,,,,648.2506877999986,648.2669901000336,648.7521635000012,,,,,,,,,,,,,,,,,,,,,,,648.7686409000307,648.7854407000123,648.7854407000123,648.7854407000123,651.7625972999958,shoe,j,651.7641774000367,,,651.7641968000098,None,,,1.2621847999980673,0.19899760000407696,,,,,,,,,,,00047,001,2026-01-18_12h01.27.453,MST_task,2024.2.0,59.702811362365,2026-01-18 12h01.44.192645 +0530,
,Objects\117a.jpg,141,0,142,,,,,,,f,None,,,1.9809556000400335,0.21552129997871816,,,,142,0,141,651.7793993999949,,,,,,,,,,,,,,,,,,,,,,,651.7643076999811,651.7793993999949,652.264362499991,,,,,,,,,,,,,,,,,,,,,,,652.2789953000029,652.2978740999824,652.2978740999824,652.2978740999824,655.274908500025,shoe,f,655.2749508999987,,,655.2749626000295,None,,,1.9809556000400335,0.21552129997871816,,,,,,,,,,,00047,001,2026-01-18_12h01.27.453,MST_task,2024.2.0,59.702811362365,2026-01-18 12h01.44.192645 +0530,
,Objects\054a.jpg,142,0,143,,,,,,,j,None,,,1.0043938000453636,0.16790760000003502,,,,143,0,142,655.2917034000275,,,,,,,,,,,,,,,,,,,,,,,655.2750320000341,655.2917034000275,655.7766639000038,,,,,,,,,,,,,,,,,,,,,,,655.7863289000234,655.8101875000284,655.8101875000284,655.8101875000284,658.7875372000271,shoe,j,658.7875810000114,,,658.7875925999833,None,,,1.0043938000453636,0.16790760000003502,,,,,,,,,,,00047,001,2026-01-18_12h01.27.453,MST_task,2024.2.0,59.702811362365,2026-01-18 12h01.44.192645 +0530,
,Objects\225a.jpg,143,0,144,,,,,,,f,None,,,1.0839477000408806,0.1916697999695316,,,,144,0,143,658.8038941000123,,,,,,,,,,,,,,,,,,,,,,,658.7876968000201,658.8038941000123,659.2891003999976,,,,,,,,,,,,,,,,,,,,,,,659.2982787000365,659.3223572000279,659.3223572000279,659.3223572000279,662.2995234000264,shoe,f,662.2995673000114,,,662.2995791999856,None,,,1.0839477000408806,0.1916697999695316,,,,,,,,,,,00047,001,2026-01-18_12h01.27.453,MST_task,2024.2.0,59.702811362365,2026-01-18 12h01.44.192645 +0530,
,Objects\060a.jpg,144,0,145,,,,,,,None,j,0.25753719999920577,None,,,,,,145,0,144,662.3164571999805,,,,,,,,,,,,,,,,,,,,,,,662.3000058000325,662.3164571999805,662.8014616,,,,,,,,,,,,,,,,,,,,,,,662.8112746999832,662.8349635000341,662.8349635000341,662.8349635000341,665.8119159000344,shoe,None,665.8119540000334,665.8286053999909,665.8286053999909,666.0967508000322,j,0.25753719999920577,None,,,,,,,,,,,,,00047,001,2026-01-18_12h01.27.453,MST_task,2024.2.0,59.702811362365,2026-01-18 12h01.44.192645 +0530,
,Objects\128a.jpg,145,0,146,,,,,,,f,None,,,2.0153632999863476,0.21602639998309314,,,,146,0,145,666.1129261000315,,,,,,,,,,,,,,,,,,,,,,,666.0968399000121,666.1129261000315,666.5978981999797,,,,,,,,,,,,,,,,,,,,,,,666.6073624999844,666.6314061000012,666.6314061000012,666.6314061000012,669.6085463000345,shoe,f,669.6085938999895,,,669.608606200025,None,,,2.0153632999863476,0.21602639998309314,,,,,,,,,,,00047,001,2026-01-18_12h01.27.453,MST_task,2024.2.0,59.702811362365,2026-01-18 12h01.44.192645 +0530,
,Objects\263a.jpg,146,0,147,,,,,,,j,None,,,1.8873069999972358,0.19905689998995513,,,,147,0,146,669.6250866000191,,,,,,,,,,,,,,,,,,,,,,,669.6086759000318,669.6250866000191,670.1103011000087,,,,,,,,,,,,,,,,,,,,,,,670.1252144000027,670.143576100003,670.143576100003,670.143576100003,673.1208641999983,shoe,j,673.1209083999856,,,673.1209205000196,None,,,1.8873069999972358,0.19905689998995513,,,,,,,,,,,00047,001,2026-01-18_12h01.27.453,MST_task,2024.2.0,59.702811362365,2026-01-18 12h01.44.192645 +0530,
,Objects\204a.jpg,147,0,148,,,,,,,j,None,,,1.718326500034891,0.20790839998517185,,,,148,0,147,673.1374839000055,,,,,,,,,,,,,,,,,,,,,,,673.1210286000278,673.1374839000055,673.6227963999845,,,,,,,,,,,,,,,,,,,,,,,673.6385612000013,673.6560039999895,673.6560039999895,673.6560039999895,676.6330228000297,indoor,j,676.6343333999976,,,676.6343526000273,None,,,1.718326500034891,0.20790839998517185,,,,,,,,,,,00047,001,2026-01-18_12h01.27.453,MST_task,2024.2.0,59.702811362365,2026-01-18 12h01.44.192645 +0530,
,Objects\197a.jpg,148,0,149,,,,,,,j,None,,,1.0620728999492712,0.19231810001656413,,,,149,0,148,676.6499424999929,,,,,,,,,,,,,,,,,,,,,,,676.634424799995,676.6499424999929,677.1347806000267,,,,,,,,,,,,,,,,,,,,,,,677.1444717000122,677.1683231000206,677.1683231000206,677.1683231000206,680.1454435000196,indoor,j,680.145498900034,,,680.1455108000082,None,,,1.0620728999492712,0.19231810001656413,,,,,,,,,,,00047,001,2026-01-18_12h01.27.453,MST_task,2024.2.0,59.702811362365,2026-01-18 12h01.44.192645 +0530,
,Objects\206a.jpg,149,0,150,,,,,,,j,None,,,0.9823128000134602,0.17590439994819462,,,,150,0,149,680.1621300000115,,,,,,,,,,,,,,,,,,,,,,,680.145581800025,680.1621300000115,680.6472046999843,,,,,,,,,,,,,,,,,,,,,,,680.6609719999833,680.6804773000185,680.6804773000185,680.6804773000185,683.657747099991,indoor,j,683.6577903000289,,,683.6578014999977,None,,,0.9823128000134602,0.17590439994819462,,,,,,,,,,,00047,001,2026-01-18_12h01.27.453,MST_task,2024.2.0,59.702811362365,2026-01-18 12h01.44.192645 +0530,
,Objects\007a.jpg,150,0,151,,,,,,,f,None,,,0.9980834000161849,0.22382249997463077,,,,151,0,150,683.6744175000349,,,,,,,,,,,,,,,,,,,,,,,683.6578695999924,683.6744175000349,684.159375999996,,,,,,,,,,,,,,,,,,,,,,,684.1756131000002,684.1929004000267,684.1929004000267,684.1929004000267,687.1701816000277,indoor,f,687.1702264000196,,,687.1702385999961,None,,,0.9980834000161849,0.22382249997463077,,,,,,,,,,,00047,001,2026-01-18_12h01.27.453,MST_task,2024.2.0,59.702811362365,2026-01-18 12h01.44.192645 +0530,
,Objects\145a.jpg,151,0,152,,,,,,,f,None,,,1.0220896999817342,0.23284549999516457,,,,152,0,151,687.1866158000194,,,,,,,,,,,,,,,,,,,,,,,687.1703114000265,687.1866158000194,687.6718262000359,,,,,,,,,,,,,,,,,,,,,,,687.6811029000091,687.7050686000148,687.7050686000148,687.7050686000148,690.6823417000123,indoor,f,690.6823862000019,,,690.6823980000336,None,,,1.0220896999817342,0.23284549999516457,,,,,,,,,,,00047,001,2026-01-18_12h01.27.453,MST_task,2024.2.0,59.702811362365,2026-01-18 12h01.44.192645 +0530,
,Objects\292a.jpg,152,0,153,,,,,,,j,None,,,0.885793499997817,0.1834594999672845,,,,153,0,152,690.6988941000309,,,,,,,,,,,,,,,,,,,,,,,690.6824668000336,690.6988941000309,691.184104999993,,,,,,,,,,,,,,,,,,,,,,,691.1970154999872,691.2173750000075,691.2173750000075,691.2173750000075,694.1946318999981,indoor,j,694.1946771999937,,,694.1946891000262,None,,,0.885793499997817,0.1834594999672845,,,,,,,,,,,00047,001,2026-01-18_12h01.27.453,MST_task,2024.2.0,59.702811362365,2026-01-18 12h01.44.192645 +0530,
,Objects\230a.jpg,153,0,154,,,,,,,j,None,,,1.1164695000043139,0.13679630000842735,,,,154,0,153,694.2113128000055,,,,,,,,,,,,,,,,,,,,,,,694.1947572000208,694.2113128000055,694.6962877000333,,,,,,,,,,,,,,,,,,,,,,,694.7105402000016,694.7297827000148,694.7297827000148,694.7297827000148,697.7069393999991,indoor,j,697.7073878000374,,,697.7074030000367,None,,,1.1164695000043139,0.13679630000842735,,,,,,,,,,,00047,001,2026-01-18_12h01.27.453,MST_task,2024.2.0,59.702811362365,2026-01-18 12h01.44.192645 +0530,
,Objects\241a.jpg,154,0,155,,,,,,,f,None,,,1.07706280000275,0.20723739999812096,,,,155,0,154,697.7236362000112,,,,,,,,,,,,,,,,,,,,,,,697.7074851000216,697.7236362000112,698.2086952999816,,,,,,,,,,,,,,,,,,,,,,,698.2290135000367,698.2419657999999,698.2419657999999,698.2419657999999,701.2192646000185,shoe,f,701.2206759999972,,,701.2206962000346,None,,,1.07706280000275,0.20723739999812096,,,,,,,,,,,00047,001,2026-01-18_12h01.27.453,MST_task,2024.2.0,59.702811362365,2026-01-18 12h01.44.192645 +0530,
,Objects\247a.jpg,155,0,156,,,,,,,f,None,,,2.027347799972631,0.20925950002856553,,,,156,0,155,701.2359214000171,,,,,,,,,,,,,,,,,,,,,,,701.2207739999867,701.2359214000171,701.7210510000004,,,,,,,,,,,,,,,,,,,,,,,701.7373611000367,701.7544725000043,701.7544725000043,701.7544725000043,704.7315410000156,shoe,f,704.7315846999991,,,704.7315961000277,None,,,2.027347799972631,0.20925950002856553,,,,,,,,,,,00047,001,2026-01-18_12h01.27.453,MST_task,2024.2.0,59.702811362365,2026-01-18 12h01.44.192645 +0530,
,Objects\108a.jpg,156,0,157,,,,,,,j,None,,,0.956037700001616,0.15161410003202036,,,,157,0,156,704.7480954999919,,,,,,,,,,,,,,,,,,,,,,,704.7316653000307,704.7480954999919,705.233186300029,,,,,,,,,,,,,,,,,,,,,,,705.2493975000107,705.266698100022,705.266698100022,705.266698100022,708.2438300999929,shoe,j,708.2438753999886,,,708.2438895999803,None,,,0.956037700001616,0.15161410003202036,,,,,,,,,,,00047,001,2026-01-18_12h01.27.453,MST_task,2024.2.0,59.702811362365,2026-01-18 12h01.44.192645 +0530,
,Objects\379a.jpg,157,0,158,,,,,,,j,None,,,0.9149952000007033,0.17623959999764338,,,,158,0,157,708.2605166999856,,,,,,,,,,,,,,,,,,,,,,,708.2439936000155,708.2605166999856,708.7454850000213,,,,,,,,,,,,,,,,,,,,,,,708.7551021000254,708.7790174999973,708.7790174999973,708.7790174999973,711.7561264000251,shoe,j,711.7564435999957,,,711.756472899986,None,,,0.9149952000007033,0.17623959999764338,,,,,,,,,,,00047,001,2026-01-18_12h01.27.453,MST_task,2024.2.0,59.702811362365,2026-01-18 12h01.44.192645 +0530,
,Objects\097a.jpg,158,0,159,,,,,,,j,None,,,2.6272055999725126,0.12779640004737303,,,,159,0,158,711.7726881999988,,,,,,,,,,,,,,,,,,,,,,,711.7565804999904,711.7726881999988,712.2580285000149,,,,,,,,,,,,,,,,,,,,,,,712.2674477000255,712.2911821000162,712.2911821000162,712.2911821000162,715.2684828999918,shoe,j,715.2685274999822,,,715.2685486000264,None,,,2.6272055999725126,0.12779640004737303,,,,,,,,,,,00047,001,2026-01-18_12h01.27.453,MST_task,2024.2.0,59.702811362365,2026-01-18 12h01.44.192645 +0530,
,Objects\359a.jpg,159,0,160,,,,,,,f,None,,,1.1628563000122085,0.2154216999770142,,,,160,0,159,715.2852644000086,,,,,,,,,,,,,,,,,,,,,,,715.2686243000207,715.2852644000086,715.7700707000331,,,,,,,,,,,,,,,,,,,,,,,715.7858032000368,715.8035782999941,715.8035782999941,715.8035782999941,718.7807333000237,shoe,f,718.7807761000004,,,718.7807876000297,None,,,1.1628563000122085,0.2154216999770142,,,,,,,,,,,00047,001,2026-01-18_12h01.27.453,MST_task,2024.2.0,59.702811362365,2026-01-18 12h01.44.192645 +0530,
,Objects\324a.jpg,160,0,161,,,,,,,f,None,,,1.0670919999829493,0.15141570003470406,,,,161,0,160,718.7972927000374,,,,,,,,,,,,,,,,,,,,,,,718.7808564000297,718.7972927000374,719.2824938999838,,,,,,,,,,,,,,,,,,,,,,,719.2970397000317,719.3158080999856,719.3158080999856,719.3158080999856,722.2929070999962,shoe,f,722.2929656000342,,,722.2929768000031,None,,,1.0670919999829493,0.15141570003470406,,,,,,,,,,,00047,001,2026-01-18_12h01.27.453,MST_task,2024.2.0,59.702811362365,2026-01-18 12h01.44.192645 +0530,
,Objects\265a.jpg,161,0,162,,,,,,,None,j,0.16078229999402538,None,,,,,,162,0,161,722.3098353000241,,,,,,,,,,,,,,,,,,,,,,,722.2930832999991,722.3098353000241,722.7946827000123,,,,,,,,,,,,,,,,,,,,,,,722.8108101999969,722.8284005000023,722.8284005000023,722.8284005000023,725.8052386000054,indoor,None,725.8065634000232,725.8220195000176,725.8220195000176,725.9898053000215,j,0.16078229999402538,None,,,,,,,,,,,,,00047,001,2026-01-18_12h01.27.453,MST_task,2024.2.0,59.702811362365,2026-01-18 12h01.44.192645 +0530,
,Objects\174a.jpg,162,0,163,,,,,,,f,None,,,1.1939075999544002,0.15199550002580509,,,,163,0,162,726.0058777999948,,,,,,,,,,,,,,,,,,,,,,,725.9898928999901,726.0058777999948,726.4911681999802,,,,,,,,,,,,,,,,,,,,,,,726.5058828000329,726.5244641000172,726.5244641000172,726.5244641000172,729.501487600035,indoor,f,729.5015320000239,,,729.5015443000011,None,,,1.1939075999544002,0.15199550002580509,,,,,,,,,,,00047,001,2026-01-18_12h01.27.453,MST_task,2024.2.0,59.702811362365,2026-01-18 12h01.44.192645 +0530,
,Objects\085a.jpg,163,0,164,,,,,,,None,j,1.7361023999983445,None,,,,,,164,0,163,729.5182935000048,,,,,,,,,,,,,,,,,,,,,,,729.5016143000103,729.5182935000048,730.0032570000039,,,,,,,,,,,,,,,,,,,,,,,730.0130942999967,730.0366518000374,730.0366518000374,730.0366518000374,733.0138058000011,indoor,None,733.0138455000124,733.0305869000149,733.0305869000149,734.7704054000205,j,1.7361023999983445,None,,,,,,,,,,,,,00047,001,2026-01-18_12h01.27.453,MST_task,2024.2.0,59.702811362365,2026-01-18 12h01.44.192645 +0530,
,Objects\084a.jpg,164,0,165,,,,,,,f,None,,,2.469225600012578,0.1756535000167787,,,,165,0,164,734.786623699998,,,,,,,,,,,,,,,,,,,,,,,734.7704961000127,734.786623699998,735.2733044000342,,,,,,,,,,,,,,,,,,,,,,,735.2827221000334,735.305102000013,735.305102000013,735.305102000013,738.2822505999939,indoor,f,738.2822940000333,,,738.2823064000113,None,,,2.469225600012578,0.1756535000167787,,,,,,,,,,,00047,001,2026-01-18_12h01.27.453,MST_task,2024.2.0,59.702811362365,2026-01-18 12h01.44.192645 +0530,
,Objects\277a.jpg,165,0,166,,,,,,,None,j,0.7386821999680251,None,,,,,,166,0,165,738.299037299992,,,,,,,,,,,,,,,,,,,,,,,738.282376600022,738.299037299992,738.7839922999847,,,,,,,,,,,,,,,,,,,,,,,738.7982062000083,738.817515600007,738.817515600007,738.817515600007,741.7945411999826,indoor,None,741.7945803999901,741.811348600022,741.811348600022,742.5645458000363,j,0.7386821999680251,None,,,,,,,,,,,,,00047,001,2026-01-18_12h01.27.453,MST_task,2024.2.0,59.702811362365,2026-01-18 12h01.44.192645 +0530,
,Objects\236a.jpg,166,0,167,,,,,,,None,j,5.265098400006536,None,,,,,,167,0,166,742.5808764999965,,,,,,,,,,,,,,,,,,,,,,,742.56463670003,742.5808764999965,743.065803400008,,,,,,,,,,,,,,,,,,,,,,,743.082942900015,743.0991712000105,743.0991712000105,743.0991712000105,746.0764741000021,indoor,None,746.0765134000103,746.0928786000004,746.0928786000004,751.3619592000032,j,5.265098400006536,None,,,,,,,,,,,,,00047,001,2026-01-18_12h01.27.453,MST_task,2024.2.0,59.702811362365,2026-01-18 12h01.44.192645 +0530,
,Objects\003a.jpg,167,0,168,,,,,,,None,j,0.07592199998907745,None,,,,,,168,0,167,751.3780482999864,,,,,,,,,,,,,,,,,,,,,,,751.3620521000121,751.3780482999864,751.8632609000197,,,,,,,,,,,,,,,,,,,,,,,751.8779480000376,751.89652509999,751.89652509999,751.89652509999,754.8736824000371,indoor,None,754.8737225999939,754.8906086999923,754.8906086999923,754.9746290000039,j,0.07592199998907745,None,,,,,,,,,,,,,00047,001,2026-01-18_12h01.27.453,MST_task,2024.2.0,59.702811362365,2026-01-18 12h01.44.192645 +0530,
,Objects\219a.jpg,168,0,169,,,,,,,None,f,0.31141950003802776,None,,,,,,169,0,168,754.9908133000135,,,,,,,,,,,,,,,,,,,,,,,754.9747139000101,754.9908133000135,755.4758937000297,,,,,,,,,,,,,,,,,,,,,,,755.4872857999871,755.5092912000255,755.5092912000255,755.5092912000255,758.4865594999865,shoe,None,758.4882771000266,758.5029807999963,758.5029807999963,758.8212593999924,f,0.31141950003802776,None,,,,,,,,,,,,,00047,001,2026-01-18_12h01.27.453,MST_task,2024.2.0,59.702811362365,2026-01-18 12h01.44.192645 +0530,
,Objects\218a.jpg,169,0,170,,,,,,,j,None,,,1.0579518000013195,0.15283999999519438,,,,170,0,169,758.8375030999887,,,,,,,,,,,,,,,,,,,,,,,758.8214052999974,758.8375030999887,759.3227162000258,,,,,,,,,,,,,,,,,,,,,,,759.3391856999951,759.3559719999903,759.3559719999903,759.3559719999903,762.3334507999825,shoe,j,762.3335093000205,,,762.3335223000031,None,,,1.0579518000013195,0.15283999999519438,,,,,,,,,,,00047,001,2026-01-18_12h01.27.453,MST_task,2024.2.0,59.702811362365,2026-01-18 12h01.44.192645 +0530,
,Objects\248a.jpg,170,0,171,,,,,,,f,None,,,2.4833108999882825,0.16642309998860583,,,,171,0,170,762.3499742000131,,,,,,,,,,,,,,,,,,,,,,,762.3336493999814,762.3499742000131,762.8352149000275,,,,,,,,,,,,,,,,,,,,,,,762.8530785000185,762.8684367000242,762.8684367000242,762.8684367000242,765.8459812999936,shoe,f,765.8460583999986,,,765.8460728999926,None,,,2.4833108999882825,0.16642309998860583,,,,,,,,,,,00047,001,2026-01-18_12h01.27.453,MST_task,2024.2.0,59.702811362365,2026-01-18 12h01.44.192645 +0530,
,Objects\166a.jpg,171,0,172,,,,,,,f,None,,,0.914237699995283,0.18387270002858713,,,,172,0,171,765.8623847999843,,,,,,,,,,,,,,,,,,,,,,,765.8461476999801,765.8623847999843,766.3474542000331,,,,,,,,,,,,,,,,,,,,,,,766.362421900034,766.3807171999943,766.3807171999943,766.3807171999943,769.358071100025,shoe,f,769.3581265999819,,,769.3581387000158,None,,,0.914237699995283,0.18387270002858713,,,,,,,,,,,00047,001,2026-01-18_12h01.27.453,MST_task,2024.2.0,59.702811362365,2026-01-18 12h01.44.192645 +0530,
,Objects\210a.jpg,172,0,173,,,,,,,f,None,,,1.0654118999955244,0.1596682000090368,,,,173,0,172,769.3745577000082,,,,,,,,,,,,,,,,,,,,,,,769.3582506999956,769.3745577000082,769.8597589000128,,,,,,,,,,,,,,,,,,,,,,,769.8739510999876,769.8930745000253,769.8930745000253,769.8930745000253,772.8706899000099,shoe,f,772.8707338999957,,,772.8707464000327,None,,,1.0654118999955244,0.1596682000090368,,,,,,,,,,,00047,001,2026-01-18_12h01.27.453,MST_task,2024.2.0,59.702811362365,2026-01-18 12h01.44.192645 +0530,
,Objects\371a.jpg,173,0,174,,,,,,,j,None,,,1.5525082999956794,0.18366430001333356,,,,174,0,173,772.8870075999876,,,,,,,,,,,,,,,,,,,,,,,772.8708163999836,772.8870075999876,773.3719228000264,,,,,,,,,,,,,,,,,,,,,,,773.3858973000315,773.4058464000118,773.4058464000118,773.4058464000118,776.3826096000266,shoe,j,776.382652500004,,,776.3826644000364,None,,,1.5525082999956794,0.18366430001333356,,,,,,,,,,,00047,001,2026-01-18_12h01.27.453,MST_task,2024.2.0,59.702811362365,2026-01-18 12h01.44.192645 +0530,
,Objects\170a.jpg,174,0,175,,,,,,,f,None,,,1.8572595000150613,0.14358109998283908,,,,175,0,174,776.3991640000022,,,,,,,,,,,,,,,,,,,,,,,776.3827678000089,776.3991640000022,776.8843641999993,,,,,,,,,,,,,,,,,,,,,,,776.8995887000347,776.917646899994,776.917646899994,776.917646899994,779.8952785999863,shoe,f,779.8953218000242,,,779.8953344000038,None,,,1.8572595000150613,0.14358109998283908,,,,,,,,,,,00047,001,2026-01-18_12h01.27.453,MST_task,2024.2.0,59.702811362365,2026-01-18 12h01.44.192645 +0530,
,Objects\221a.jpg,175,0,176,,,,,,,j,None,,,1.7525360999861732,0.15972850000252947,,,,176,0,175,779.9114382999833,,,,,,,,,,,,,,,,,,,,,,,779.8954036000068,779.9114382999833,780.3968017000007,,,,,,,,,,,,,,,,,,,,,,,780.41314650001,780.4300041000242,780.4300041000242,780.4300041000242,783.4071328000282,indoor,j,783.408395000035,,,783.408414000005,None,,,1.7525360999861732,0.15972850000252947,,,,,,,,,,,00047,001,2026-01-18_12h01.27.453,MST_task,2024.2.0,59.702811362365,2026-01-18 12h01.44.192645 +0530,
,Objects\214a.jpg,176,0,177,,,,,,,f,None,,,1.0401778000523336,0.16018639999674633,,,,177,0,176,783.4238829999813,,,,,,,,,,,,,,,,,,,,,,,783.4084848000202,783.4238829999813,783.9088644000003,,,,,,,,,,,,,,,,,,,,,,,783.9233419999946,783.9427105000359,783.9427105000359,783.9427105000359,786.9193432999891,indoor,f,786.9193859000225,,,786.9193981999997,None,,,1.0401778000523336,0.16018639999674633,,,,,,,,,,,00047,001,2026-01-18_12h01.27.453,MST_task,2024.2.0,59.702811362365,2026-01-18 12h01.44.192645 +0530,
,Objects\301a.jpg,177,0,178,,,,,,,f,None,,,2.2158818999887444,0.19182089995592833,,,,178,0,177,786.9359077999834,,,,,,,,,,,,,,,,,,,,,,,786.9194906000048,786.9359077999834,787.4210937999887,,,,,,,,,,,,,,,,,,,,,,,787.4302257000236,787.454376299982,787.454376299982,787.454376299982,790.4315715000266,indoor,f,790.4316145000048,,,790.4316261000349,None,,,2.2158818999887444,0.19182089995592833,,,,,,,,,,,00047,001,2026-01-18_12h01.27.453,MST_task,2024.2.0,59.702811362365,2026-01-18 12h01.44.192645 +0530,
,Objects\009a.jpg,178,0,179,,,,,,,f,None,,,1.2555654000025243,0.19261759996879846,,,,179,0,178,790.4483202000265,,,,,,,,,,,,,,,,,,,,,,,790.4317211000016,790.4483202000265,790.9332858999842,,,,,,,,,,,,,,,,,,,,,,,790.9424951000256,790.9667871000129,790.9667871000129,790.9667871000129,793.9439431999926,indoor,f,793.9439859000267,,,793.9439977000002,None,,,1.2555654000025243,0.19261759996879846,,,,,,,,,,,00047,001,2026-01-18_12h01.27.453,MST_task,2024.2.0,59.702811362365,2026-01-18 12h01.44.192645 +0530,
,Objects\195a.jpg,179,0,180,,,,,,,f,None,,,2.2150369999581017,0.19990639999741688,,,,180,0,179,793.9606394000002,,,,,,,,,,,,,,,,,,,,,,,793.9440668000025,793.9606394000002,794.4457081999863,,,,,,,,,,,,,,,,,,,,,,,794.4601268999977,794.4789729000186,794.4789729000186,794.4789729000186,797.4562377000111,indoor,f,797.456428800011,,,797.4564489999902,None,,,2.2150369999581017,0.19990639999741688,,,,,,,,,,,00047,001,2026-01-18_12h01.27.453,MST_task,2024.2.0,59.702811362365,2026-01-18 12h01.44.192645 +0530,
,Objects\109a.jpg,180,0,181,,,,,,,j,None,,,1.2561340000247583,0.18378100002883002,,,,181,0,180,797.4728034000145,,,,,,,,,,,,,,,,,,,,,,,797.4565381000284,797.4728034000145,797.9580028000055,,,,,,,,,,,,,,,,,,,,,,,797.9725541000371,797.9912893000292,797.9912893000292,797.9912893000292,800.968561000016,indoor,j,800.9686042999965,,,800.968616600032,None,,,1.2561340000247583,0.18378100002883002,,,,,,,,,,,00047,001,2026-01-18_12h01.27.453,MST_task,2024.2.0,59.702811362365,2026-01-18 12h01.44.192645 +0530,
