thisN,thisTrialN,thisRepN,key_resp_3.keys,key_resp_3.rt,key_resp_3.duration,trials.thisRepN,trials.thisTrialN,trials.thisN,thisRow.t,notes,intro_page.started,text.started,key_resp.started,intro_page.stopped,key_resp.keys,key_resp.rt,key_resp.duration,instructions.started,text_2.started,key_resp_2.started,instructions.stopped,key_resp_2.keys,key_resp_2.rt,key_resp_2.duration,demo1.started,image_1.started,image_2.started,text_7.started,key_resp_6.started,text_9.started,demo1.stopped,key_resp_6.keys,key_resp_6.rt,key_resp_6.duration,demo3.started,image_5.started,image_6.started,text_11.started,text_12.started,key_resp_8.started,demo3.stopped,key_resp_8.keys,key_resp_8.rt,key_resp_8.duration,demo_conclusion.started,text_13.started,key_resp_9.started,demo_conclusion.stopped,key_resp_9.keys,key_resp_9.rt,key_resp_9.duration,start_test.started,text_6.started,key_resp_5.started,start_test.stopped,key_resp_5.keys,key_resp_5.rt,key_resp_5.duration,ISI.started,text_4.started,text_4.stopped,ISI.stopped,routine_1.started,image.started,text_3.started,key_resp_3.started,routine_1.stopped,image_path,position_of_stimuli,trials.key_resp_3.keys,trials.key_resp_3.rt,trials.key_resp_3.duration,End_page.started,text_5.started,key_resp_4.started,End_page.stopped,key_resp_4.keys,key_resp_4.rt,key_resp_4.duration,participant,session,date,expName,psychopyVersion,frameRate,expStart,
,,,,,,,,,,,0.0012017000117339194,0.0027224000077694654,0.0027224000077694654,3.172740400012117,space,3.152836000022944,None,,,,,,,,,,,,,,,,,,,,,,,,,,,,,,,,,,,,,,,,,,,,,,,,,,,,,,,,,,,,,,,00043,001,2026-01-17_17h25.10.870,MST_test,2024.2.0,59.928289803069134,2026-01-17 17h25.18.131215 +0530,
,,,,,,,,,,,,,,,,,,3.1727710000122897,3.1876544000115246,3.1876544000115246,14.987929700000677,space,11.799403500015615,None,,,,,,,,,,,,,,,,,,,,,,,,,,,,,,,,,,,,,,,,,,,,,,,,,,,,,,,,00043,001,2026-01-17_17h25.10.870,MST_test,2024.2.0,59.928289803069134,2026-01-17 17h25.18.131215 +0530,
,,,,,,,,,,,,,,,,,,,,,,,,,14.987955900025554,15.004621900006896,15.004621900006896,15.004621900006896,15.004621900006896,15.004621900006896,19.488207400019746,space,4.469778700004099,None,,,,,,,,,,,,,,,,,,,,,,,,,,,,,,,,,,,,,,,,,,,,,,00043,001,2026-01-17_17h25.10.870,MST_test,2024.2.0,59.928289803069134,2026-01-17 17h25.18.131215 +0530,
,,,,,,,,,,,,,,,,,,,,,,,,,,,,,,,,,,,19.48823540000012,19.504718100011814,19.504718100011814,19.504718100011814,19.504718100011814,19.504718100011814,22.788231900020037,space,3.2826281000161543,None,,,,,,,,,,,,,,,,,,,,,,,,,,,,,,,,,,,,00043,001,2026-01-17_17h25.10.870,MST_test,2024.2.0,59.928289803069134,2026-01-17 17h25.18.131215 +0530,
,,,,,,,,,,,,,,,,,,,,,,,,,,,,,,,,,,,,,,,,,,,,,22.788296200014884,22.804247699998086,22.804247699998086,35.48799780002446,space,12.678217600012431,None,,,,,,,,,,,,,,,,,,,,,,,,,,,,,00043,001,2026-01-17_17h25.10.870,MST_test,2024.2.0,59.928289803069134,2026-01-17 17h25.18.131215 +0530,
,,,,,,,,,,,,,,,,,,,,,,,,,,,,,,,,,,,,,,,,,,,,,,,,,,,,35.488031000015326,35.507511600008,35.507511600008,70.08799820000422,space,34.56698110001162,None,,,,,,,,,,,,,,,,,,,,,,00043,001,2026-01-17_17h25.10.870,MST_test,2024.2.0,59.928289803069134,2026-01-17 17h25.18.131215 +0530,
0,0,1,s,3.9318307999928948,None,1,0,0,70.10429630000726,,,,,,,,,,,,,,,,,,,,,,,,,,,,,,,,,,,,,,,,,,,,,,,,,,70.09183430002304,70.10429630000726,70.60733749999781,70.58788250002544,70.60500510002021,70.60733749999781,70.60733749999781,70.60733749999781,74.5547152000072,Objects\296b.jpg,pre,s,3.9318307999928948,None,,,,,,,,00043,001,2026-01-17_17h25.10.870,MST_test,2024.2.0,59.928289803069134,2026-01-17 17h25.18.131215 +0530,
1,0,2,o,4.051181999995606,None,2,0,1,74.57098280001082,,,,,,,,,,,,,,,,,,,,,,,,,,,,,,,,,,,,,,,,,,,,,,,,,,74.55481000000145,74.57098280001082,75.0712095000199,75.0545452000224,75.0575009000022,75.0712095000199,75.0712095000199,75.0712095000199,79.13815199999954,Objects\315a.jpg,post,o,4.051181999995606,None,,,,,,,,00043,001,2026-01-17_17h25.10.870,MST_test,2024.2.0,59.928289803069134,2026-01-17 17h25.18.131215 +0530,
2,0,3,s,9.916716199979419,None,3,0,2,79.15432290002354,,,,,,,,,,,,,,,,,,,,,,,,,,,,,,,,,,,,,,,,,,,,,,,,,,79.13824770000065,79.15432290002354,79.65453340002568,79.63808880001307,79.65021620001062,79.65453340002568,79.65453340002568,79.65453340002568,89.5880249000038,Foils\034a.jpg,none,s,9.916716199979419,None,,,,,,,,00043,001,2026-01-17_17h25.10.870,MST_test,2024.2.0,59.928289803069134,2026-01-17 17h25.18.131215 +0530,
3,0,4,o,3.1701802000170574,None,4,0,3,89.60420960001647,,,,,,,,,,,,,,,,,,,,,,,,,,,,,,,,,,,,,,,,,,,,,,,,,,89.5881139000121,89.60420960001647,90.10440870001912,90.08773180001299,90.09775400001672,90.10440870001912,90.10440870001912,90.10440870001912,93.28825340000913,Objects\099b.jpg,post,o,3.1701802000170574,None,,,,,,,,00043,001,2026-01-17_17h25.10.870,MST_test,2024.2.0,59.928289803069134,2026-01-17 17h25.18.131215 +0530,
4,0,5,s,4.910152600001311,None,5,0,4,93.30422040002304,,,,,,,,,,,,,,,,,,,,,,,,,,,,,,,,,,,,,,,,,,,,,,,,,,93.28834759999881,93.30422040002304,93.80453670001589,93.78776540001854,93.7976636000094,93.80453670001589,93.80453670001589,93.80453670001589,98.72124090002035,Foils\010a.jpg,none,s,4.910152600001311,None,,,,,,,,00043,001,2026-01-17_17h25.10.870,MST_test,2024.2.0,59.928289803069134,2026-01-17 17h25.18.131215 +0530,
5,0,6,s,4.565459100005683,None,6,0,5,98.73760980000952,,,,,,,,,,,,,,,,,,,,,,,,,,,,,,,,,,,,,,,,,,,,,,,,,,98.72134119999828,98.73760980000952,99.23775349999778,99.2210180000111,99.22405580000486,99.23775349999778,99.23775349999778,99.23775349999778,103.80474620001041,Objects\125a.jpg,mid,s,4.565459100005683,None,,,,,,,,00043,001,2026-01-17_17h25.10.870,MST_test,2024.2.0,59.928289803069134,2026-01-17 17h25.18.131215 +0530,
6,0,7,o,2.0347829000093043,None,7,0,6,103.82078550002188,,,,,,,,,,,,,,,,,,,,,,,,,,,,,,,,,,,,,,,,,,,,,,,,,,103.80483820001245,103.82078550002188,104.32122810001601,104.30444950002129,104.31393520001438,104.32122810001601,104.32122810001601,104.32122810001601,106.37147740001092,Objects\374b.jpg,post,o,2.0347829000093043,None,,,,,,,,00043,001,2026-01-17_17h25.10.870,MST_test,2024.2.0,59.928289803069134,2026-01-17 17h25.18.131215 +0530,
7,0,8,o,1.7464702000143006,None,8,0,7,106.38754970001173,,,,,,,,,,,,,,,,,,,,,,,,,,,,,,,,,,,,,,,,,,,,,,,,,,106.37157480002497,106.38754970001173,106.88790470000822,106.87102980000782,106.88072159999865,106.88790470000822,106.88790470000822,106.88790470000822,108.63804710001568,Objects\236b.jpg,mid,o,1.7464702000143006,None,,,,,,,,00043,001,2026-01-17_17h25.10.870,MST_test,2024.2.0,59.928289803069134,2026-01-17 17h25.18.131215 +0530,
8,0,9,s,5.592450299998745,None,9,0,8,108.65414600001532,,,,,,,,,,,,,,,,,,,,,,,,,,,,,,,,,,,,,,,,,,,,,,,,,,108.63813940002001,108.65414600001532,109.15464449999854,109.13777170001413,109.14748610000242,109.15464449999854,109.15464449999854,109.15464449999854,114.75530940000317,Foils\020b.jpg,none,s,5.592450299998745,None,,,,,,,,00043,001,2026-01-17_17h25.10.870,MST_test,2024.2.0,59.928289803069134,2026-01-17 17h25.18.131215 +0530,
9,0,10,o,6.179171900002984,None,10,0,9,114.7710466000135,,,,,,,,,,,,,,,,,,,,,,,,,,,,,,,,,,,,,,,,,,,,,,,,,,114.75542180001503,114.7710466000135,115.27125650001108,115.25446150000789,115.25760910002282,115.27125650001108,115.27125650001108,115.27125650001108,121.45496980001917,Objects\350a.jpg,pre,o,6.179171900002984,None,,,,,,,,00043,001,2026-01-17_17h25.10.870,MST_test,2024.2.0,59.928289803069134,2026-01-17 17h25.18.131215 +0530,
10,0,11,s,14.871787399984896,None,11,0,10,121.47080440001446,,,,,,,,,,,,,,,,,,,,,,,,,,,,,,,,,,,,,,,,,,,,,,,,,,121.45506590002333,121.47080440001446,121.9711678000167,121.95448510002461,121.96399250000832,121.9711678000167,121.9711678000167,121.9711678000167,136.85489610000513,Foils\050a.jpg,none,s,14.871787399984896,None,,,,,,,,00043,001,2026-01-17_17h25.10.870,MST_test,2024.2.0,59.928289803069134,2026-01-17 17h25.18.131215 +0530,
11,0,12,o,2.008478000003379,None,12,0,11,136.8707621000067,,,,,,,,,,,,,,,,,,,,,,,,,,,,,,,,,,,,,,,,,,,,,,,,,,136.85500680000405,136.8707621000067,137.37093630002346,137.35445650000474,137.35749530000612,137.37093630002346,137.37093630002346,137.37093630002346,139.3880313000118,Objects\101a.jpg,post,o,2.008478000003379,None,,,,,,,,00043,001,2026-01-17_17h25.10.870,MST_test,2024.2.0,59.928289803069134,2026-01-17 17h25.18.131215 +0530,
12,0,13,o,1.5464295000128914,None,13,0,12,139.40421780000906,,,,,,,,,,,,,,,,,,,,,,,,,,,,,,,,,,,,,,,,,,,,,,,,,,139.38812580000376,139.40421780000906,139.9043442000111,139.88785500000813,139.89044990000548,139.9043442000111,139.9043442000111,139.9043442000111,141.45494940000935,Objects\043a.jpg,post,o,1.5464295000128914,None,,,,,,,,00043,001,2026-01-17_17h25.10.870,MST_test,2024.2.0,59.928289803069134,2026-01-17 17h25.18.131215 +0530,
13,0,14,o,1.648542400012957,None,14,0,13,141.47072920002392,,,,,,,,,,,,,,,,,,,,,,,,,,,,,,,,,,,,,,,,,,,,,,,,,,141.45504560001427,141.47072920002392,141.97101320000365,141.95447100000456,141.9568975000002,141.97101320000365,141.97101320000365,141.97101320000365,143.62162380001973,Objects\155a.jpg,post,o,1.648542400012957,None,,,,,,,,00043,001,2026-01-17_17h25.10.870,MST_test,2024.2.0,59.928289803069134,2026-01-17 17h25.18.131215 +0530,
14,0,15,o,2.5125404999998864,None,15,0,14,143.6375709999993,,,,,,,,,,,,,,,,,,,,,,,,,,,,,,,,,,,,,,,,,,,,,,,,,,143.62171400000807,143.6375709999993,144.13798430000315,144.12111930001993,144.12469799999963,144.13798430000315,144.13798430000315,144.13798430000315,146.65484370000195,Objects\220a.jpg,pre,o,2.5125404999998864,None,,,,,,,,00043,001,2026-01-17_17h25.10.870,MST_test,2024.2.0,59.928289803069134,2026-01-17 17h25.18.131215 +0530,
15,0,16,s,4.255366700002924,None,16,0,15,146.67074790000333,,,,,,,,,,,,,,,,,,,,,,,,,,,,,,,,,,,,,,,,,,,,,,,,,,146.65493710001465,146.67074790000333,147.1712114000111,147.15452110001934,147.16619810002157,147.1712114000111,147.1712114000111,147.1712114000111,151.4381670000148,Objects\095b.jpg,mid,s,4.255366700002924,None,,,,,,,,00043,001,2026-01-17_17h25.10.870,MST_test,2024.2.0,59.928289803069134,2026-01-17 17h25.18.131215 +0530,
16,0,17,s,2.8563614999875426,None,17,0,16,151.45421440000064,,,,,,,,,,,,,,,,,,,,,,,,,,,,,,,,,,,,,,,,,,,,,,,,,,151.4382612000045,151.45421440000064,151.9544652000186,151.9378356000234,151.94746450000093,151.9544652000186,151.9544652000186,151.9544652000186,154.82133490001434,Objects\013b.jpg,mid,s,2.8563614999875426,None,,,,,,,,00043,001,2026-01-17_17h25.10.870,MST_test,2024.2.0,59.928289803069134,2026-01-17 17h25.18.131215 +0530,
17,0,18,s,4.18593979999423,None,18,0,17,154.83755500000552,,,,,,,,,,,,,,,,,,,,,,,,,,,,,,,,,,,,,,,,,,,,,,,,,,154.82142690001638,154.83755500000552,155.3380751000077,155.32133310000063,155.3309050000098,155.3380751000077,155.3380751000077,155.3380751000077,159.53813180001453,Objects\210b.jpg,post,s,4.18593979999423,None,,,,,,,,00043,001,2026-01-17_17h25.10.870,MST_test,2024.2.0,59.928289803069134,2026-01-17 17h25.18.131215 +0530,
18,0,19,o,1.5799211999983527,None,19,0,18,159.5541579000128,,,,,,,,,,,,,,,,,,,,,,,,,,,,,,,,,,,,,,,,,,,,,,,,,,159.53822440002114,159.5541579000128,160.05462170002284,160.03777910000645,160.04113600001438,160.05462170002284,160.05462170002284,160.05462170002284,161.63815559999784,Objects\153a.jpg,mid,o,1.5799211999983527,None,,,,,,,,00043,001,2026-01-17_17h25.10.870,MST_test,2024.2.0,59.928289803069134,2026-01-17 17h25.18.131215 +0530,
19,0,20,s,5.048138699989067,None,20,0,19,161.65422220001346,,,,,,,,,,,,,,,,,,,,,,,,,,,,,,,,,,,,,,,,,,,,,,,,,,161.6382491000113,161.65422220001346,162.15446280001197,162.1380437000189,162.14401800002088,162.15446280001197,162.15446280001197,162.15446280001197,167.20483850000892,Objects\227a.jpg,pre,s,5.048138699989067,None,,,,,,,,00043,001,2026-01-17_17h25.10.870,MST_test,2024.2.0,59.928289803069134,2026-01-17 17h25.18.131215 +0530,
20,0,21,o,1.4986599999829195,None,21,0,20,167.22069290000945,,,,,,,,,,,,,,,,,,,,,,,,,,,,,,,,,,,,,,,,,,,,,,,,,,167.2049317000201,167.22069290000945,167.7209890000231,167.70443820001674,167.71408590002102,167.7209890000231,167.7209890000231,167.7209890000231,169.22123620001366,Objects\087b.jpg,pre,o,1.4986599999829195,None,,,,,,,,00043,001,2026-01-17_17h25.10.870,MST_test,2024.2.0,59.928289803069134,2026-01-17 17h25.18.131215 +0530,
21,0,22,s,2.13718940000399,None,22,0,21,169.2375630000024,,,,,,,,,,,,,,,,,,,,,,,,,,,,,,,,,,,,,,,,,,,,,,,,,,169.22133040000335,169.2375630000024,169.7379263000039,169.72100460002548,169.72349900001427,169.7379263000039,169.7379263000039,169.7379263000039,171.8882196000195,Objects\231a.jpg,pre,s,2.13718940000399,None,,,,,,,,00043,001,2026-01-17_17h25.10.870,MST_test,2024.2.0,59.928289803069134,2026-01-17 17h25.18.131215 +0530,
22,0,23,o,3.1582398999889847,None,23,0,22,171.9041794000077,,,,,,,,,,,,,,,,,,,,,,,,,,,,,,,,,,,,,,,,,,,,,,,,,,171.8883124999993,171.9041794000077,172.40451439999742,172.38779730000533,172.39715920001618,172.40451439999742,172.40451439999742,172.40451439999742,175.57140290000825,Objects\232b.jpg,pre,o,3.1582398999889847,None,,,,,,,,00043,001,2026-01-17_17h25.10.870,MST_test,2024.2.0,59.928289803069134,2026-01-17 17h25.18.131215 +0530,
23,0,24,o,2.1464016000099946,None,24,0,23,175.5876834000228,,,,,,,,,,,,,,,,,,,,,,,,,,,,,,,,,,,,,,,,,,,,,,,,,,175.57149690002552,175.5876834000228,176.08802150000702,176.07116750002024,176.08074730000226,176.08802150000702,176.08802150000702,176.08802150000702,178.238213500008,Objects\270b.jpg,post,o,2.1464016000099946,None,,,,,,,,00043,001,2026-01-17_17h25.10.870,MST_test,2024.2.0,59.928289803069134,2026-01-17 17h25.18.131215 +0530,
24,0,25,o,1.8562818999926094,None,25,0,24,178.2543321000121,,,,,,,,,,,,,,,,,,,,,,,,,,,,,,,,,,,,,,,,,,,,,,,,,,178.2383045000024,178.2543321000121,178.75461920001544,178.73794469999848,178.74134269999922,178.75461920001544,178.75461920001544,178.75461920001544,180.6215693000122,Objects\288a.jpg,pre,o,1.8562818999926094,None,,,,,,,,00043,001,2026-01-17_17h25.10.870,MST_test,2024.2.0,59.928289803069134,2026-01-17 17h25.18.131215 +0530,
25,0,26,s,2.017052600014722,None,26,0,25,180.63769250002224,,,,,,,,,,,,,,,,,,,,,,,,,,,,,,,,,,,,,,,,,,,,,,,,,,180.62166160001652,180.63769250002224,181.13807750001433,181.12126740001258,181.1313737000164,181.13807750001433,181.13807750001433,181.13807750001433,183.1716349000053,Foils\074a.jpg,none,s,2.017052600014722,None,,,,,,,,00043,001,2026-01-17_17h25.10.870,MST_test,2024.2.0,59.928289803069134,2026-01-17 17h25.18.131215 +0530,
26,0,27,o,3.5073303999961354,None,27,0,26,183.18765180002083,,,,,,,,,,,,,,,,,,,,,,,,,,,,,,,,,,,,,,,,,,,,,,,,,,183.1717256999982,183.18765180002083,183.68787290001637,183.67126540001482,183.67379590001656,183.68787290001637,183.68787290001637,183.68787290001637,187.20484600000782,Objects\301a.jpg,pre,o,3.5073303999961354,None,,,,,,,,00043,001,2026-01-17_17h25.10.870,MST_test,2024.2.0,59.928289803069134,2026-01-17 17h25.18.131215 +0530,
27,0,28,s,1.7134167000185698,None,28,0,27,187.22098569999798,,,,,,,,,,,,,,,,,,,,,,,,,,,,,,,,,,,,,,,,,,,,,,,,,,187.2049387000152,187.22098569999798,187.72118990001036,187.70468240001355,187.71345900002052,187.72118990001036,187.72118990001036,187.72118990001036,189.43846460001078,Objects\010b.jpg,mid,s,1.7134167000185698,None,,,,,,,,00043,001,2026-01-17_17h25.10.870,MST_test,2024.2.0,59.928289803069134,2026-01-17 17h25.18.131215 +0530,
28,0,29,o,2.0483520999841858,None,29,0,28,189.45433720000437,,,,,,,,,,,,,,,,,,,,,,,,,,,,,,,,,,,,,,,,,,,,,,,,,,189.43856040001265,189.45433720000437,189.95448240000405,189.93793600000208,189.94013570001698,189.95448240000405,189.95448240000405,189.95448240000405,192.00507040001685,Objects\198a.jpg,pre,o,2.0483520999841858,None,,,,,,,,00043,001,2026-01-17_17h25.10.870,MST_test,2024.2.0,59.928289803069134,2026-01-17 17h25.18.131215 +0530,
29,0,30,s,1.753787800000282,None,30,0,29,192.02092790001188,,,,,,,,,,,,,,,,,,,,,,,,,,,,,,,,,,,,,,,,,,,,,,,,,,192.00516530001187,192.02092790001188,192.52143400002387,192.50465980000445,192.51443180002389,192.52143400002387,192.52143400002387,192.52143400002387,194.2882731000136,Objects\313b.jpg,mid,s,1.753787800000282,None,,,,,,,,00043,001,2026-01-17_17h25.10.870,MST_test,2024.2.0,59.928289803069134,2026-01-17 17h25.18.131215 +0530,
30,0,31,s,2.237833799998043,None,31,0,30,194.3042653000157,,,,,,,,,,,,,,,,,,,,,,,,,,,,,,,,,,,,,,,,,,,,,,,,,,194.28837100000237,194.3042653000157,194.80505070000072,194.7884141000104,194.79372950000106,194.80505070000072,194.80505070000072,194.80505070000072,197.05494709999766,Objects\355a.jpg,mid,s,2.237833799998043,None,,,,,,,,00043,001,2026-01-17_17h25.10.870,MST_test,2024.2.0,59.928289803069134,2026-01-17 17h25.18.131215 +0530,
31,0,32,n,2.7358206000062637,None,32,0,31,197.07090830002562,,,,,,,,,,,,,,,,,,,,,,,,,,,,,,,,,,,,,,,,,,,,,,,,,,197.05503879999742,197.07090830002562,197.5714439000003,197.55454740001005,197.5657964000129,197.5714439000003,197.5714439000003,197.5714439000003,200.32157340002595,Foils\082a.jpg,none,n,2.7358206000062637,None,,,,,,,,00043,001,2026-01-17_17h25.10.870,MST_test,2024.2.0,59.928289803069134,2026-01-17 17h25.18.131215 +0530,
32,0,33,o,4.093643700005487,None,33,0,32,200.3377561000234,,,,,,,,,,,,,,,,,,,,,,,,,,,,,,,,,,,,,,,,,,,,,,,,,,200.32166780001717,200.3377561000234,200.83801190002123,200.82121860000188,200.82458350001252,200.83801190002123,200.83801190002123,200.83801190002123,204.9382542000094,Objects\261a.jpg,post,o,4.093643700005487,None,,,,,,,,00043,001,2026-01-17_17h25.10.870,MST_test,2024.2.0,59.928289803069134,2026-01-17 17h25.18.131215 +0530,
33,0,34,s,2.05283369999961,None,34,0,33,204.9543563000043,,,,,,,,,,,,,,,,,,,,,,,,,,,,,,,,,,,,,,,,,,,,,,,,,,204.93834819999756,204.9543563000043,205.45476130000316,205.4379727000196,205.44773220000206,205.45476130000316,205.45476130000316,205.45476130000316,207.5216075000062,Objects\018b.jpg,mid,s,2.05283369999961,None,,,,,,,,00043,001,2026-01-17_17h25.10.870,MST_test,2024.2.0,59.928289803069134,2026-01-17 17h25.18.131215 +0530,
34,0,35,s,1.8049223000125494,None,35,0,34,207.53763130001607,,,,,,,,,,,,,,,,,,,,,,,,,,,,,,,,,,,,,,,,,,,,,,,,,,207.52169890000368,207.53763130001607,208.0377808000194,208.0211198000179,208.03067440001178,208.0377808000194,208.0377808000194,208.0377808000194,209.8549179000256,Objects\102b.jpg,mid,s,1.8049223000125494,None,,,,,,,,00043,001,2026-01-17_17h25.10.870,MST_test,2024.2.0,59.928289803069134,2026-01-17 17h25.18.131215 +0530,
35,0,36,s,1.887813500012271,None,36,0,35,209.87090610002633,,,,,,,,,,,,,,,,,,,,,,,,,,,,,,,,,,,,,,,,,,,,,,,,,,209.85501100000693,209.87090610002633,210.3709918000095,210.3545619000215,210.36379699999816,210.3709918000095,210.3709918000095,210.3709918000095,212.27178820001427,Foils\049a.jpg,none,s,1.887813500012271,None,,,,,,,,00043,001,2026-01-17_17h25.10.870,MST_test,2024.2.0,59.928289803069134,2026-01-17 17h25.18.131215 +0530,
36,0,37,o,1.5669547000143211,None,37,0,36,212.28769080000347,,,,,,,,,,,,,,,,,,,,,,,,,,,,,,,,,,,,,,,,,,,,,,,,,,212.2718815000262,212.28769080000347,212.78798610001104,212.7711452000076,212.78016940000816,212.78798610001104,212.78798610001104,212.78798610001104,214.37149180000415,Objects\062b.jpg,pre,o,1.5669547000143211,None,,,,,,,,00043,001,2026-01-17_17h25.10.870,MST_test,2024.2.0,59.928289803069134,2026-01-17 17h25.18.131215 +0530,
37,0,38,s,1.8989974000141956,None,38,0,37,214.3876825000043,,,,,,,,,,,,,,,,,,,,,,,,,,,,,,,,,,,,,,,,,,,,,,,,,,214.37158450001152,214.3876825000043,214.88808260002406,214.87131200000294,214.88088050001534,214.88808260002406,214.88808260002406,214.88808260002406,216.78836750000482,Objects\226b.jpg,mid,s,1.8989974000141956,None,,,,,,,,00043,001,2026-01-17_17h25.10.870,MST_test,2024.2.0,59.928289803069134,2026-01-17 17h25.18.131215 +0530,
38,0,39,s,4.482414800004335,None,39,0,38,216.80438340001274,,,,,,,,,,,,,,,,,,,,,,,,,,,,,,,,,,,,,,,,,,,,,,,,,,216.78846030001296,216.80438340001274,217.30476680002175,217.28793620000943,217.29808370000683,217.30476680002175,217.30476680002175,217.30476680002175,221.7882540000137,Foils\066a.jpg,none,s,4.482414800004335,None,,,,,,,,00043,001,2026-01-17_17h25.10.870,MST_test,2024.2.0,59.928289803069134,2026-01-17 17h25.18.131215 +0530,
39,0,40,o,1.2746904999949038,None,40,0,39,221.8043191000179,,,,,,,,,,,,,,,,,,,,,,,,,,,,,,,,,,,,,,,,,,,,,,,,,,221.78834630001802,221.8043191000179,222.30448450002586,222.28773520002142,222.29038310001488,222.30448450002586,222.30448450002586,222.30448450002586,223.58804400000372,Objects\107a.jpg,post,o,1.2746904999949038,None,,,,,,,,00043,001,2026-01-17_17h25.10.870,MST_test,2024.2.0,59.928289803069134,2026-01-17 17h25.18.131215 +0530,
40,0,41,o,7.610882200009655,None,41,0,40,223.60423300002003,,,,,,,,,,,,,,,,,,,,,,,,,,,,,,,,,,,,,,,,,,,,,,,,,,223.58813530000043,223.60423300002003,224.10452240001177,224.08790550002595,224.09051259999978,224.10452240001177,224.10452240001177,224.10452240001177,231.72179900002084,Objects\276a.jpg,post,o,7.610882200009655,None,,,,,,,,00043,001,2026-01-17_17h25.10.870,MST_test,2024.2.0,59.928289803069134,2026-01-17 17h25.18.131215 +0530,
41,0,42,o,2.6126545000006445,None,42,0,41,231.73760180000681,,,,,,,,,,,,,,,,,,,,,,,,,,,,,,,,,,,,,,,,,,,,,,,,,,231.72190060000867,231.73760180000681,232.2378890000109,232.22145199999795,232.2244019000209,232.2378890000109,232.2378890000109,232.2378890000109,234.85491340002045,Objects\148a.jpg,post,o,2.6126545000006445,None,,,,,,,,00043,001,2026-01-17_17h25.10.870,MST_test,2024.2.0,59.928289803069134,2026-01-17 17h25.18.131215 +0530,
42,0,43,s,2.056087499979185,None,43,0,42,234.8707817000104,,,,,,,,,,,,,,,,,,,,,,,,,,,,,,,,,,,,,,,,,,,,,,,,,,234.85500500001945,234.8707817000104,235.3711641000118,235.35444789999747,235.36378070001956,235.3711641000118,235.3711641000118,235.3711641000118,237.43822820001515,Objects\021b.jpg,pre,s,2.056087499979185,None,,,,,,,,00043,001,2026-01-17_17h25.10.870,MST_test,2024.2.0,59.928289803069134,2026-01-17 17h25.18.131215 +0530,
43,0,44,s,2.1999620999849867,None,44,0,43,237.4542285000207,,,,,,,,,,,,,,,,,,,,,,,,,,,,,,,,,,,,,,,,,,,,,,,,,,237.43832010001643,237.4542285000207,237.95459500001743,237.93789210001705,237.947819300025,237.95459500001743,237.95459500001743,237.95459500001743,240.1550958000007,Objects\239b.jpg,pre,s,2.1999620999849867,None,,,,,,,,00043,001,2026-01-17_17h25.10.870,MST_test,2024.2.0,59.928289803069134,2026-01-17 17h25.18.131215 +0530,
44,0,45,o,1.331880000012461,None,45,0,44,240.17078040001797,,,,,,,,,,,,,,,,,,,,,,,,,,,,,,,,,,,,,,,,,,,,,,,,,,240.1551892000134,240.17078040001797,240.67133870002,240.65454780001892,240.6574277000036,240.67133870002,240.67133870002,240.67133870002,242.0050334999978,Objects\128a.jpg,pre,o,1.331880000012461,None,,,,,,,,00043,001,2026-01-17_17h25.10.870,MST_test,2024.2.0,59.928289803069134,2026-01-17 17h25.18.131215 +0530,
45,0,46,s,3.9219933999993373,None,46,0,45,242.02085140001145,,,,,,,,,,,,,,,,,,,,,,,,,,,,,,,,,,,,,,,,,,,,,,,,,,242.0051357000193,242.02085140001145,242.52107000001706,242.50457290001214,242.50709410000127,242.52107000001706,242.52107000001706,242.52107000001706,246.4547752000217,Objects\061a.jpg,mid,s,3.9219933999993373,None,,,,,,,,00043,001,2026-01-17_17h25.10.870,MST_test,2024.2.0,59.928289803069134,2026-01-17 17h25.18.131215 +0530,
46,0,47,s,3.216183300013654,None,47,0,46,246.47079590000794,,,,,,,,,,,,,,,,,,,,,,,,,,,,,,,,,,,,,,,,,,,,,,,,,,246.45487020001747,246.47079590000794,246.97120130000985,246.95469330000924,246.96518130000914,246.97120130000985,246.97120130000985,246.97120130000985,250.18832470002235,Objects\361b.jpg,post,s,3.216183300013654,None,,,,,,,,00043,001,2026-01-17_17h25.10.870,MST_test,2024.2.0,59.928289803069134,2026-01-17 17h25.18.131215 +0530,
47,0,48,s,7.675283100019442,None,48,0,47,250.20424099999946,,,,,,,,,,,,,,,,,,,,,,,,,,,,,,,,,,,,,,,,,,,,,,,,,,250.18844870000612,250.20424099999946,250.70455150000635,250.68797550001182,250.69699900000705,250.70455150000635,250.70455150000635,250.70455150000635,258.3881648000097,Objects\343b.jpg,mid,s,7.675283100019442,None,,,,,,,,00043,001,2026-01-17_17h25.10.870,MST_test,2024.2.0,59.928289803069134,2026-01-17 17h25.18.131215 +0530,
48,0,49,s,1.7307352000207175,None,49,0,48,258.40425479999976,,,,,,,,,,,,,,,,,,,,,,,,,,,,,,,,,,,,,,,,,,,,,,,,,,258.3882625999977,258.40425479999976,258.9045768000069,258.88789690000704,258.89107380001224,258.9045768000069,258.9045768000069,258.9045768000069,260.6381668000249,Objects\203a.jpg,pre,s,1.7307352000207175,None,,,,,,,,00043,001,2026-01-17_17h25.10.870,MST_test,2024.2.0,59.928289803069134,2026-01-17 17h25.18.131215 +0530,
49,0,50,s,6.944707200018456,None,50,0,49,260.6542824000062,,,,,,,,,,,,,,,,,,,,,,,,,,,,,,,,,,,,,,,,,,,,,,,,,,260.63826990002417,260.6542824000062,261.1546176999982,261.1378823000123,261.1497236000141,261.1546176999982,261.1546176999982,261.1546176999982,268.10487120001926,Foils\073a.jpg,none,s,6.944707200018456,None,,,,,,,,00043,001,2026-01-17_17h25.10.870,MST_test,2024.2.0,59.928289803069134,2026-01-17 17h25.18.131215 +0530,
50,0,51,o,1.7182307999755722,None,51,0,50,268.12078370002564,,,,,,,,,,,,,,,,,,,,,,,,,,,,,,,,,,,,,,,,,,,,,,,,,,268.10497060001944,268.12078370002564,268.6209039000096,268.60449870000593,268.6073241000122,268.6209039000096,268.6209039000096,268.6209039000096,270.35473370002,Objects\150a.jpg,post,o,1.7182307999755722,None,,,,,,,,00043,001,2026-01-17_17h25.10.870,MST_test,2024.2.0,59.928289803069134,2026-01-17 17h25.18.131215 +0530,
51,0,52,s,1.716129100008402,None,52,0,51,270.3708297999983,,,,,,,,,,,,,,,,,,,,,,,,,,,,,,,,,,,,,,,,,,,,,,,,,,270.35482440001215,270.3708297999983,270.8711765000189,270.8544271000137,270.8573931000137,270.8711765000189,270.8711765000189,270.8711765000189,272.58814250002615,Objects\352a.jpg,post,s,1.716129100008402,None,,,,,,,,00043,001,2026-01-17_17h25.10.870,MST_test,2024.2.0,59.928289803069134,2026-01-17 17h25.18.131215 +0530,
52,0,53,s,1.6504345000139438,None,53,0,52,272.6042473000125,,,,,,,,,,,,,,,,,,,,,,,,,,,,,,,,,,,,,,,,,,,,,,,,,,272.5901147000259,272.6042473000125,273.10457160000806,273.087757900008,273.0910344000149,273.10457160000806,273.10457160000806,273.10457160000806,274.7713710000098,Objects\093a.jpg,post,s,1.6504345000139438,None,,,,,,,,00043,001,2026-01-17_17h25.10.870,MST_test,2024.2.0,59.928289803069134,2026-01-17 17h25.18.131215 +0530,
53,0,54,s,1.1310685999924317,None,54,0,53,274.78758120001294,,,,,,,,,,,,,,,,,,,,,,,,,,,,,,,,,,,,,,,,,,,,,,,,,,274.77146460002405,274.78758120001294,275.2878181000124,275.2710477000219,275.2734360000177,275.2878181000124,275.2878181000124,275.2878181000124,276.4213374000101,Objects\064a.jpg,pre,s,1.1310685999924317,None,,,,,,,,00043,001,2026-01-17_17h25.10.870,MST_test,2024.2.0,59.928289803069134,2026-01-17 17h25.18.131215 +0530,
54,0,55,o,1.3931280999968294,None,55,0,54,276.43759280000813,,,,,,,,,,,,,,,,,,,,,,,,,,,,,,,,,,,,,,,,,,,,,,,,,,276.4214364000072,276.43759280000813,276.9378046000202,276.92102000000887,276.9234938000154,276.9378046000202,276.9378046000202,276.9378046000202,278.33822990002227,Objects\158a.jpg,mid,o,1.3931280999968294,None,,,,,,,,00043,001,2026-01-17_17h25.10.870,MST_test,2024.2.0,59.928289803069134,2026-01-17 17h25.18.131215 +0530,
55,0,56,n,1.531946999981301,None,56,0,55,278.35425210001995,,,,,,,,,,,,,,,,,,,,,,,,,,,,,,,,,,,,,,,,,,,,,,,,,,278.338327400008,278.35425210001995,278.85459930001525,278.8381106000161,278.847865800024,278.85459930001525,278.85459930001525,278.85459930001525,280.3881762000092,Foils\033a.jpg,none,n,1.531946999981301,None,,,,,,,,00043,001,2026-01-17_17h25.10.870,MST_test,2024.2.0,59.928289803069134,2026-01-17 17h25.18.131215 +0530,
56,0,57,o,1.5226282000076026,None,57,0,56,280.4042599000095,,,,,,,,,,,,,,,,,,,,,,,,,,,,,,,,,,,,,,,,,,,,,,,,,,280.3882719000103,280.4042599000095,280.9044596000167,280.8878889000043,280.8903854000091,280.9044596000167,280.9044596000167,280.9044596000167,282.43824370001676,Objects\197a.jpg,mid,o,1.5226282000076026,None,,,,,,,,00043,001,2026-01-17_17h25.10.870,MST_test,2024.2.0,59.928289803069134,2026-01-17 17h25.18.131215 +0530,
57,0,58,o,1.640126699989196,None,58,0,57,282.4541842000035,,,,,,,,,,,,,,,,,,,,,,,,,,,,,,,,,,,,,,,,,,,,,,,,,,282.43833610002184,282.4541842000035,282.9543998000154,282.9378151000128,282.9404727000219,282.9543998000154,282.9543998000154,282.9543998000154,284.6048126000096,Objects\082a.jpg,post,o,1.640126699989196,None,,,,,,,,00043,001,2026-01-17_17h25.10.870,MST_test,2024.2.0,59.928289803069134,2026-01-17 17h25.18.131215 +0530,
58,0,59,s,1.474245500023244,None,59,0,58,284.62082320000627,,,,,,,,,,,,,,,,,,,,,,,,,,,,,,,,,,,,,,,,,,,,,,,,,,284.6049052000162,284.62082320000627,285.1210798000102,285.1045722000126,285.1134078000032,285.1210798000102,285.1210798000102,285.1210798000102,286.60481119999895,Objects\157b.jpg,post,s,1.474245500023244,None,,,,,,,,00043,001,2026-01-17_17h25.10.870,MST_test,2024.2.0,59.928289803069134,2026-01-17 17h25.18.131215 +0530,
59,0,60,o,1.4178873999917414,None,60,0,59,286.62085900001694,,,,,,,,,,,,,,,,,,,,,,,,,,,,,,,,,,,,,,,,,,,,,,,,,,286.6049048000132,286.62085900001694,287.1209077000094,287.1044944000023,287.10701500001596,287.1209077000094,287.1209077000094,287.1209077000094,288.55482740001753,Objects\071a.jpg,mid,o,1.4178873999917414,None,,,,,,,,00043,001,2026-01-17_17h25.10.870,MST_test,2024.2.0,59.928289803069134,2026-01-17 17h25.18.131215 +0530,
60,0,61,s,2.580329799995525,None,61,0,60,288.5707595999993,,,,,,,,,,,,,,,,,,,,,,,,,,,,,,,,,,,,,,,,,,,,,,,,,,288.5549222000118,288.5707595999993,289.0709110000171,289.0545028000197,289.0570135000162,289.0709110000171,289.0709110000171,289.0709110000171,291.65482950001024,Objects\025a.jpg,pre,s,2.580329799995525,None,,,,,,,,00043,001,2026-01-17_17h25.10.870,MST_test,2024.2.0,59.928289803069134,2026-01-17 17h25.18.131215 +0530,
61,0,62,n,2.3355578999908175,None,62,0,61,291.67092689999845,,,,,,,,,,,,,,,,,,,,,,,,,,,,,,,,,,,,,,,,,,,,,,,,,,291.6549259000167,291.67092689999845,292.1709974000114,292.15444450001814,292.16332340001827,292.1709974000114,292.1709974000114,292.1709974000114,294.52170500002103,Foils\018a.jpg,none,n,2.3355578999908175,None,,,,,,,,00043,001,2026-01-17_17h25.10.870,MST_test,2024.2.0,59.928289803069134,2026-01-17 17h25.18.131215 +0530,
62,0,63,s,2.901726399984909,None,63,0,62,294.5376806000131,,,,,,,,,,,,,,,,,,,,,,,,,,,,,,,,,,,,,,,,,,,,,,,,,,294.5217974999978,294.5376806000131,295.03799750001053,295.02142400000594,295.0240013000148,295.03799750001053,295.03799750001053,295.03799750001053,297.9549734000175,Objects\114a.jpg,pre,s,2.901726399984909,None,,,,,,,,00043,001,2026-01-17_17h25.10.870,MST_test,2024.2.0,59.928289803069134,2026-01-17 17h25.18.131215 +0530,
63,0,64,n,2.0511870000045747,None,64,0,63,297.97119229999953,,,,,,,,,,,,,,,,,,,,,,,,,,,,,,,,,,,,,,,,,,,,,,,,,,297.9550694000209,297.97119229999953,298.47130740000284,298.4546626000083,298.46383360002073,298.47130740000284,298.47130740000284,298.47130740000284,300.5381696000113,Foils\121a.jpg,none,n,2.0511870000045747,None,,,,,,,,00043,001,2026-01-17_17h25.10.870,MST_test,2024.2.0,59.928289803069134,2026-01-17 17h25.18.131215 +0530,
64,0,65,s,4.411751800013008,None,65,0,64,300.554377500026,,,,,,,,,,,,,,,,,,,,,,,,,,,,,,,,,,,,,,,,,,,,,,,,,,300.5382641000033,300.554377500026,301.0547224000038,301.03798870000173,301.0481559000036,301.0547224000038,301.0547224000038,301.0547224000038,305.4717150000215,Objects\218b.jpg,post,s,4.411751800013008,None,,,,,,,,00043,001,2026-01-17_17h25.10.870,MST_test,2024.2.0,59.928289803069134,2026-01-17 17h25.18.131215 +0530,
65,0,66,s,1.5508787999860942,None,66,0,65,305.48760920000495,,,,,,,,,,,,,,,,,,,,,,,,,,,,,,,,,,,,,,,,,,,,,,,,,,305.4718092000112,305.48760920000495,305.988059299998,305.97127270000055,305.97456339999917,305.988059299998,305.988059299998,305.988059299998,307.5549084000231,Objects\081a.jpg,mid,s,1.5508787999860942,None,,,,,,,,00043,001,2026-01-17_17h25.10.870,MST_test,2024.2.0,59.928289803069134,2026-01-17 17h25.18.131215 +0530,
66,0,67,o,2.867224300018279,None,67,0,66,307.57094080001116,,,,,,,,,,,,,,,,,,,,,,,,,,,,,,,,,,,,,,,,,,,,,,,,,,307.55499990002136,307.57094080001116,308.0714625000255,308.05473470001016,308.05778050000663,308.0714625000255,308.0714625000255,308.0714625000255,310.9550297000096,Objects\316a.jpg,mid,o,2.867224300018279,None,,,,,,,,00043,001,2026-01-17_17h25.10.870,MST_test,2024.2.0,59.928289803069134,2026-01-17 17h25.18.131215 +0530,
67,0,68,s,1.7870243999932427,None,68,0,67,310.9711173000105,,,,,,,,,,,,,,,,,,,,,,,,,,,,,,,,,,,,,,,,,,,,,,,,,,310.95512020000024,310.9711173000105,311.4714604000037,311.45457450000686,311.46440150000853,311.4714604000037,311.4714604000037,311.4714604000037,313.2716199000133,Objects\186b.jpg,pre,s,1.7870243999932427,None,,,,,,,,00043,001,2026-01-17_17h25.10.870,MST_test,2024.2.0,59.928289803069134,2026-01-17 17h25.18.131215 +0530,
68,0,69,o,1.6865606000064872,None,69,0,68,313.28778890002286,,,,,,,,,,,,,,,,,,,,,,,,,,,,,,,,,,,,,,,,,,,,,,,,,,313.2717116000131,313.28778890002286,313.7878687000193,313.7712559000065,313.7804570000153,313.7878687000193,313.7878687000193,313.7878687000193,315.4882843000232,Objects\129b.jpg,mid,o,1.6865606000064872,None,,,,,,,,00043,001,2026-01-17_17h25.10.870,MST_test,2024.2.0,59.928289803069134,2026-01-17 17h25.18.131215 +0530,
69,0,70,s,2.9104051999747753,None,70,0,69,315.50434800001676,,,,,,,,,,,,,,,,,,,,,,,,,,,,,,,,,,,,,,,,,,,,,,,,,,315.4883830000181,315.50434800001676,316.00461220002035,315.9879314000136,315.99865680001676,316.00461220002035,316.00461220002035,316.00461220002035,318.92167100001825,Foils\042a.jpg,none,s,2.9104051999747753,None,,,,,,,,00043,001,2026-01-17_17h25.10.870,MST_test,2024.2.0,59.928289803069134,2026-01-17 17h25.18.131215 +0530,
70,0,71,n,2.413024100009352,None,71,0,70,318.9377893000201,,,,,,,,,,,,,,,,,,,,,,,,,,,,,,,,,,,,,,,,,,,,,,,,,,318.9217730000091,318.9377893000201,319.438001100003,319.4212535000115,319.43213570001535,319.438001100003,319.438001100003,319.438001100003,321.8548859000148,Foils\090a.jpg,none,n,2.413024100009352,None,,,,,,,,00043,001,2026-01-17_17h25.10.870,MST_test,2024.2.0,59.928289803069134,2026-01-17 17h25.18.131215 +0530,
71,0,72,s,3.2160921999893617,None,72,0,71,321.87088020000374,,,,,,,,,,,,,,,,,,,,,,,,,,,,,,,,,,,,,,,,,,,,,,,,,,321.85499000002164,321.87088020000374,322.3713444000168,322.3545661000244,322.36346270001377,322.3713444000168,322.3713444000168,322.3713444000168,325.5882042000012,Objects\356b.jpg,mid,s,3.2160921999893617,None,,,,,,,,00043,001,2026-01-17_17h25.10.870,MST_test,2024.2.0,59.928289803069134,2026-01-17 17h25.18.131215 +0530,
72,0,73,o,1.4419330999953672,None,73,0,72,325.6043881000078,,,,,,,,,,,,,,,,,,,,,,,,,,,,,,,,,,,,,,,,,,,,,,,,,,325.58829750001314,325.6043881000078,326.1046835000161,326.0880334000103,326.09765040001366,326.1046835000161,326.1046835000161,326.1046835000161,327.5549649000168,Objects\173b.jpg,mid,o,1.4419330999953672,None,,,,,,,,00043,001,2026-01-17_17h25.10.870,MST_test,2024.2.0,59.928289803069134,2026-01-17 17h25.18.131215 +0530,
73,0,74,s,4.091130799992243,None,74,0,73,327.57081250002375,,,,,,,,,,,,,,,,,,,,,,,,,,,,,,,,,,,,,,,,,,,,,,,,,,327.5550727000227,327.57081250002375,328.0713442999986,328.054666800017,328.0645667000208,328.0713442999986,328.0713442999986,328.0713442999986,332.17140859999927,Objects\292b.jpg,pre,s,4.091130799992243,None,,,,,,,,00043,001,2026-01-17_17h25.10.870,MST_test,2024.2.0,59.928289803069134,2026-01-17 17h25.18.131215 +0530,
74,0,75,s,3.2835482000082266,None,75,0,74,332.18764530000044,,,,,,,,,,,,,,,,,,,,,,,,,,,,,,,,,,,,,,,,,,,,,,,,,,332.17150360002415,332.18764530000044,332.6880014000053,332.67133800001466,332.68133060002583,332.6880014000053,332.6880014000053,332.6880014000053,335.98845190001884,Objects\091b.jpg,pre,s,3.2835482000082266,None,,,,,,,,00043,001,2026-01-17_17h25.10.870,MST_test,2024.2.0,59.928289803069134,2026-01-17 17h25.18.131215 +0530,
75,0,76,s,2.8342477999976836,None,76,0,75,336.00437310000416,,,,,,,,,,,,,,,,,,,,,,,,,,,,,,,,,,,,,,,,,,,,,,,,,,335.9885500000091,336.00437310000416,336.5046139000042,336.4881433999981,336.4975075000257,336.5046139000042,336.5046139000042,336.5046139000042,339.3548900000169,Objects\052b.jpg,mid,s,2.8342477999976836,None,,,,,,,,00043,001,2026-01-17_17h25.10.870,MST_test,2024.2.0,59.928289803069134,2026-01-17 17h25.18.131215 +0530,
76,0,77,n,3.891785899992101,None,77,0,76,339.37080620002234,,,,,,,,,,,,,,,,,,,,,,,,,,,,,,,,,,,,,,,,,,,,,,,,,,339.35498820000794,339.37080620002234,339.87136450002436,339.8546000000206,339.8640379999997,339.87136450002436,339.87136450002436,339.87136450002436,343.77158310002415,Objects\030b.jpg,mid,n,3.891785899992101,None,,,,,,,,00043,001,2026-01-17_17h25.10.870,MST_test,2024.2.0,59.928289803069134,2026-01-17 17h25.18.131215 +0530,
77,0,78,n,5.8670056000119075,None,78,0,77,343.7876630000246,,,,,,,,,,,,,,,,,,,,,,,,,,,,,,,,,,,,,,,,,,,,,,,,,,343.7716774000146,343.7876630000246,344.28790429999935,344.2714199000038,344.28055780002614,344.28790429999935,344.28790429999935,344.28790429999935,350.17145439999877,Foils\058a.jpg,none,n,5.8670056000119075,None,,,,,,,,00043,001,2026-01-17_17h25.10.870,MST_test,2024.2.0,59.928289803069134,2026-01-17 17h25.18.131215 +0530,
78,0,79,o,1.691178699984448,None,79,0,78,350.1877448000014,,,,,,,,,,,,,,,,,,,,,,,,,,,,,,,,,,,,,,,,,,,,,,,,,,350.1715457000246,350.1877448000014,350.68806390001555,350.6712654000148,350.67443630000344,350.68806390001555,350.68806390001555,350.68806390001555,352.38837140001124,Objects\228a.jpg,pre,o,1.691178699984448,None,,,,,,,,00043,001,2026-01-17_17h25.10.870,MST_test,2024.2.0,59.928289803069134,2026-01-17 17h25.18.131215 +0530,
79,0,80,s,4.858669299981557,None,80,0,79,352.4043496000231,,,,,,,,,,,,,,,,,,,,,,,,,,,,,,,,,,,,,,,,,,,,,,,,,,352.3884639000171,352.4043496000231,352.90461420000065,352.88812430002145,352.89072320002015,352.90461420000065,352.90461420000065,352.90461420000065,357.7723689000122,Objects\334a.jpg,post,s,4.858669299981557,None,,,,,,,,00043,001,2026-01-17_17h25.10.870,MST_test,2024.2.0,59.928289803069134,2026-01-17 17h25.18.131215 +0530,
80,0,81,o,1.755442599998787,None,81,0,80,357.7877102000057,,,,,,,,,,,,,,,,,,,,,,,,,,,,,,,,,,,,,,,,,,,,,,,,,,357.772466000024,357.7877102000057,358.2878607000166,358.27098100000876,358.27406370002427,358.2878607000166,358.2878607000166,358.2878607000166,360.0547692000109,Objects\133a.jpg,post,o,1.755442599998787,None,,,,,,,,00043,001,2026-01-17_17h25.10.870,MST_test,2024.2.0,59.928289803069134,2026-01-17 17h25.18.131215 +0530,
81,0,82,n,5.823890699975891,None,82,0,81,360.07089480001014,,,,,,,,,,,,,,,,,,,,,,,,,,,,,,,,,,,,,,,,,,,,,,,,,,360.0548614000145,360.07089480001014,360.5710111000226,360.5545393000066,360.5638959000062,360.5710111000226,360.5710111000226,360.5710111000226,366.4050009000057,Foils\105a.jpg,none,n,5.823890699975891,None,,,,,,,,00043,001,2026-01-17_17h25.10.870,MST_test,2024.2.0,59.928289803069134,2026-01-17 17h25.18.131215 +0530,
82,0,83,s,3.105707500013523,None,83,0,82,366.42097220002324,,,,,,,,,,,,,,,,,,,,,,,,,,,,,,,,,,,,,,,,,,,,,,,,,,366.40509569999995,366.42097220002324,366.921027400007,366.9045269000053,366.91425250002067,366.921027400007,366.921027400007,366.921027400007,370.03854410001077,Objects\029b.jpg,mid,s,3.105707500013523,None,,,,,,,,00043,001,2026-01-17_17h25.10.870,MST_test,2024.2.0,59.928289803069134,2026-01-17 17h25.18.131215 +0530,
83,0,84,o,1.8644297000137158,None,84,0,83,370.05428969999775,,,,,,,,,,,,,,,,,,,,,,,,,,,,,,,,,,,,,,,,,,,,,,,,,,370.03865360000054,370.05428969999775,370.55461520000244,370.5377917000151,370.5409003000241,370.55461520000244,370.55461520000244,370.55461520000244,372.4214254000108,Objects\293a.jpg,mid,o,1.8644297000137158,None,,,,,,,,00043,001,2026-01-17_17h25.10.870,MST_test,2024.2.0,59.928289803069134,2026-01-17 17h25.18.131215 +0530,
84,0,85,o,9.777531200001249,None,85,0,84,372.43761910000467,,,,,,,,,,,,,,,,,,,,,,,,,,,,,,,,,,,,,,,,,,,,,,,,,,372.4215177000151,372.43761910000467,372.93799460001173,372.9211337000015,372.9312218000123,372.93799460001173,372.93799460001173,372.93799460001173,382.7214905000001,Objects\014b.jpg,pre,o,9.777531200001249,None,,,,,,,,00043,001,2026-01-17_17h25.10.870,MST_test,2024.2.0,59.928289803069134,2026-01-17 17h25.18.131215 +0530,
85,0,86,n,3.5010294999810867,None,86,0,85,382.7375786000048,,,,,,,,,,,,,,,,,,,,,,,,,,,,,,,,,,,,,,,,,,,,,,,,,,382.72158550002496,382.7375786000048,383.23786040002597,383.2211442000116,383.2324147000036,383.23786040002597,383.23786040002597,383.23786040002597,386.7548889000027,Foils\113a.jpg,none,n,3.5010294999810867,None,,,,,,,,00043,001,2026-01-17_17h25.10.870,MST_test,2024.2.0,59.928289803069134,2026-01-17 17h25.18.131215 +0530,
86,0,87,s,2.2834367000032216,None,87,0,86,386.7707964000001,,,,,,,,,,,,,,,,,,,,,,,,,,,,,,,,,,,,,,,,,,,,,,,,,,386.7549787000171,386.7707964000001,387.27124520001234,387.25444640000933,387.2582275000168,387.27124520001234,387.27124520001234,387.27124520001234,389.5712874000019,Objects\291a.jpg,post,s,2.2834367000032216,None,,,,,,,,00043,001,2026-01-17_17h25.10.870,MST_test,2024.2.0,59.928289803069134,2026-01-17 17h25.18.131215 +0530,
87,0,88,s,1.6510086999915075,None,88,0,87,389.58761780001805,,,,,,,,,,,,,,,,,,,,,,,,,,,,,,,,,,,,,,,,,,,,,,,,,,389.57137859999784,389.58761780001805,390.0879224000091,390.07104249999975,390.07436140000937,390.0879224000091,390.0879224000091,390.0879224000091,391.7548380000226,Objects\333a.jpg,mid,s,1.6510086999915075,None,,,,,,,,00043,001,2026-01-17_17h25.10.870,MST_test,2024.2.0,59.928289803069134,2026-01-17 17h25.18.131215 +0530,
88,0,89,s,1.244170700025279,None,89,0,88,391.7707824000099,,,,,,,,,,,,,,,,,,,,,,,,,,,,,,,,,,,,,,,,,,,,,,,,,,391.7549306000001,391.7707824000099,392.27136110002175,392.25447710001026,392.2645354999986,392.27136110002175,392.27136110002175,392.27136110002175,393.52152070001466,Objects\297b.jpg,pre,s,1.244170700025279,None,,,,,,,,00043,001,2026-01-17_17h25.10.870,MST_test,2024.2.0,59.928289803069134,2026-01-17 17h25.18.131215 +0530,
89,0,90,s,1.124525299994275,None,90,0,89,393.5376271000132,,,,,,,,,,,,,,,,,,,,,,,,,,,,,,,,,,,,,,,,,,,,,,,,,,393.52161750002415,393.5376271000132,394.03811420002603,394.0212221000111,394.02441430001636,394.03811420002603,394.03811420002603,394.03811420002603,395.17189320002217,Objects\054a.jpg,mid,s,1.124525299994275,None,,,,,,,,00043,001,2026-01-17_17h25.10.870,MST_test,2024.2.0,59.928289803069134,2026-01-17 17h25.18.131215 +0530,
90,0,91,s,2.419927999988431,None,91,0,90,395.18766880000476,,,,,,,,,,,,,,,,,,,,,,,,,,,,,,,,,,,,,,,,,,,,,,,,,,395.17198970000027,395.18766880000476,395.68792940001003,395.6711213000235,395.68027050001547,395.68792940001003,395.68792940001003,395.68792940001003,398.12145299999975,Objects\123b.jpg,post,s,2.419927999988431,None,,,,,,,,00043,001,2026-01-17_17h25.10.870,MST_test,2024.2.0,59.928289803069134,2026-01-17 17h25.18.131215 +0530,
91,0,92,s,1.2125942999846302,None,92,0,91,398.137659,,,,,,,,,,,,,,,,,,,,,,,,,,,,,,,,,,,,,,,,,,,,,,,,,,398.12154790002387,398.137659,398.6380476000195,398.6214356000128,398.63139220001176,398.6380476000195,398.6380476000195,398.6380476000195,399.8548753000214,Objects\332b.jpg,pre,s,1.2125942999846302,None,,,,,,,,00043,001,2026-01-17_17h25.10.870,MST_test,2024.2.0,59.928289803069134,2026-01-17 17h25.18.131215 +0530,
92,0,93,o,1.471762499975739,None,93,0,92,399.8708285000175,,,,,,,,,,,,,,,,,,,,,,,,,,,,,,,,,,,,,,,,,,,,,,,,,,399.85496750002494,399.8708285000175,400.3711504000239,400.35461070001475,400.35722150001675,400.3711504000239,400.3711504000239,400.3711504000239,401.85485260002315,Objects\258a.jpg,post,o,1.471762499975739,None,,,,,,,,00043,001,2026-01-17_17h25.10.870,MST_test,2024.2.0,59.928289803069134,2026-01-17 17h25.18.131215 +0530,
93,0,94,s,3.1364108999841847,None,94,0,93,401.8707383000001,,,,,,,,,,,,,,,,,,,,,,,,,,,,,,,,,,,,,,,,,,,,,,,,,,401.85496950001107,401.8707383000001,402.37127110001165,402.35453150002286,402.3646002000023,402.37127110001165,402.37127110001165,402.37127110001165,405.5213633000094,Objects\282b.jpg,pre,s,3.1364108999841847,None,,,,,,,,00043,001,2026-01-17_17h25.10.870,MST_test,2024.2.0,59.928289803069134,2026-01-17 17h25.18.131215 +0530,
94,0,95,o,1.3092011000262573,None,95,0,94,405.53766729999916,,,,,,,,,,,,,,,,,,,,,,,,,,,,,,,,,,,,,,,,,,,,,,,,,,405.5214556000137,405.53766729999916,406.0378555000061,406.02130750002107,406.03122190001886,406.0378555000061,406.0378555000061,406.0378555000061,407.35494630000903,Objects\189b.jpg,post,o,1.3092011000262573,None,,,,,,,,00043,001,2026-01-17_17h25.10.870,MST_test,2024.2.0,59.928289803069134,2026-01-17 17h25.18.131215 +0530,
95,0,96,s,4.419433899980504,None,96,0,95,407.3708322000166,,,,,,,,,,,,,,,,,,,,,,,,,,,,,,,,,,,,,,,,,,,,,,,,,,407.3550460000115,407.3708322000166,407.87113790001604,407.8545324000006,407.86343330002273,407.87113790001604,407.87113790001604,407.87113790001604,412.30507620002027,Foils\009a.jpg,none,s,4.419433899980504,None,,,,,,,,00043,001,2026-01-17_17h25.10.870,MST_test,2024.2.0,59.928289803069134,2026-01-17 17h25.18.131215 +0530,
96,0,97,s,1.6782217999862041,None,97,0,96,412.32087409999804,,,,,,,,,,,,,,,,,,,,,,,,,,,,,,,,,,,,,,,,,,,,,,,,,,412.3051750000159,412.32087409999804,412.8210620000027,412.80445560000953,412.8139874000044,412.8210620000027,412.8210620000027,412.8210620000027,414.50511070000357,Objects\165b.jpg,pre,s,1.6782217999862041,None,,,,,,,,00043,001,2026-01-17_17h25.10.870,MST_test,2024.2.0,59.928289803069134,2026-01-17 17h25.18.131215 +0530,
97,0,98,o,1.2062948999810033,None,98,0,97,414.5209098000196,,,,,,,,,,,,,,,,,,,,,,,,,,,,,,,,,,,,,,,,,,,,,,,,,,414.50521420000587,414.5209098000196,415.0214904000168,415.00472190001165,415.0079059000127,415.0214904000168,415.0214904000168,415.0214904000168,416.2384691000043,Objects\277a.jpg,post,o,1.2062948999810033,None,,,,,,,,00043,001,2026-01-17_17h25.10.870,MST_test,2024.2.0,59.928289803069134,2026-01-17 17h25.18.131215 +0530,
98,0,99,s,10.704452099977061,None,99,0,98,416.25433380002505,,,,,,,,,,,,,,,,,,,,,,,,,,,,,,,,,,,,,,,,,,,,,,,,,,416.23856180001167,416.25433380002505,416.754763200006,416.7379892000172,416.7476352000085,416.754763200006,416.754763200006,416.754763200006,427.4716047999973,Objects\076b.jpg,post,s,10.704452099977061,None,,,,,,,,00043,001,2026-01-17_17h25.10.870,MST_test,2024.2.0,59.928289803069134,2026-01-17 17h25.18.131215 +0530,
99,0,100,o,1.0952028000028804,None,100,0,99,427.4877485000179,,,,,,,,,,,,,,,,,,,,,,,,,,,,,,,,,,,,,,,,,,,,,,,,,,427.4717062000127,427.4877485000179,427.9880880000128,427.97132450001664,427.97401810000883,427.9880880000128,427.9880880000128,427.9880880000128,429.08837610000046,Objects\262a.jpg,pre,o,1.0952028000028804,None,,,,,,,,00043,001,2026-01-17_17h25.10.870,MST_test,2024.2.0,59.928289803069134,2026-01-17 17h25.18.131215 +0530,
100,0,101,s,3.206822199979797,None,101,0,100,429.1044026000018,,,,,,,,,,,,,,,,,,,,,,,,,,,,,,,,,,,,,,,,,,,,,,,,,,429.0884702000185,429.1044026000018,429.60486060002586,429.58806180002284,429.5982079000096,429.60486060002586,429.60486060002586,429.60486060002586,432.8216648000234,Foils\017a.jpg,none,s,3.206822199979797,None,,,,,,,,00043,001,2026-01-17_17h25.10.870,MST_test,2024.2.0,59.928289803069134,2026-01-17 17h25.18.131215 +0530,
101,0,102,s,7.872647399984999,None,102,0,101,432.83769700000994,,,,,,,,,,,,,,,,,,,,,,,,,,,,,,,,,,,,,,,,,,,,,,,,,,432.82175860001007,432.83769700000994,433.3378668000223,433.3212962000107,433.3301309000235,433.3378668000223,433.3378668000223,433.3378668000223,441.22170530000585,Foils\065a.jpg,none,s,7.872647399984999,None,,,,,,,,00043,001,2026-01-17_17h25.10.870,MST_test,2024.2.0,59.928289803069134,2026-01-17 17h25.18.131215 +0530,
102,0,103,o,1.6332712000003085,None,103,0,102,441.2376647000201,,,,,,,,,,,,,,,,,,,,,,,,,,,,,,,,,,,,,,,,,,,,,,,,,,441.22180100000696,441.2376647000201,441.73813080001855,441.72133380000014,441.7244818000181,441.73813080001855,441.73813080001855,441.73813080001855,443.38844330000575,Objects\319a.jpg,pre,o,1.6332712000003085,None,,,,,,,,00043,001,2026-01-17_17h25.10.870,MST_test,2024.2.0,59.928289803069134,2026-01-17 17h25.18.131215 +0530,
103,0,104,o,2.970182899996871,None,104,0,103,443.40440020000096,,,,,,,,,,,,,,,,,,,,,,,,,,,,,,,,,,,,,,,,,,,,,,,,,,443.38853850000305,443.40440020000096,443.90480509999907,443.88809170000604,443.9001443000161,443.90480509999907,443.90480509999907,443.90480509999907,446.8883124999993,Objects\381b.jpg,pre,o,2.970182899996871,None,,,,,,,,00043,001,2026-01-17_17h25.10.870,MST_test,2024.2.0,59.928289803069134,2026-01-17 17h25.18.131215 +0530,
104,0,105,s,2.7348736000130884,None,105,0,104,446.9042868000106,,,,,,,,,,,,,,,,,,,,,,,,,,,,,,,,,,,,,,,,,,,,,,,,,,446.8884040999983,446.9042868000106,447.40476820000913,447.3879466000071,447.3980158000195,447.40476820000913,447.40476820000913,447.40476820000913,450.15486410001176,Objects\259b.jpg,post,s,2.7348736000130884,None,,,,,,,,00043,001,2026-01-17_17h25.10.870,MST_test,2024.2.0,59.928289803069134,2026-01-17 17h25.18.131215 +0530,
105,0,106,o,1.3085190000128932,None,106,0,105,450.1708556000085,,,,,,,,,,,,,,,,,,,,,,,,,,,,,,,,,,,,,,,,,,,,,,,,,,450.1549605000182,450.1708556000085,450.67117730001337,450.6545126000128,450.6576898000203,450.67117730001337,450.67117730001337,450.67117730001337,451.9882399000053,Objects\132a.jpg,mid,o,1.3085190000128932,None,,,,,,,,00043,001,2026-01-17_17h25.10.870,MST_test,2024.2.0,59.928289803069134,2026-01-17 17h25.18.131215 +0530,
106,0,107,o,1.7785538000171073,None,107,0,106,452.004436200019,,,,,,,,,,,,,,,,,,,,,,,,,,,,,,,,,,,,,,,,,,,,,,,,,,451.98833469999954,452.004436200019,452.5045541000145,452.4880085000186,452.4967367000063,452.5045541000145,452.5045541000145,452.5045541000145,454.2882620000164,Objects\234b.jpg,post,o,1.7785538000171073,None,,,,,,,,00043,001,2026-01-17_17h25.10.870,MST_test,2024.2.0,59.928289803069134,2026-01-17 17h25.18.131215 +0530,
107,0,108,s,1.286105300008785,None,108,0,107,454.3042774000205,,,,,,,,,,,,,,,,,,,,,,,,,,,,,,,,,,,,,,,,,,,,,,,,,,454.2883673000033,454.3042774000205,454.8046482000209,454.78790970001137,454.7975790000055,454.8046482000209,454.8046482000209,454.8046482000209,456.10501170001226,Objects\092b.jpg,mid,s,1.286105300008785,None,,,,,,,,00043,001,2026-01-17_17h25.10.870,MST_test,2024.2.0,59.928289803069134,2026-01-17 17h25.18.131215 +0530,
108,0,109,s,1.3652884000039194,None,109,0,108,456.1208435000153,,,,,,,,,,,,,,,,,,,,,,,,,,,,,,,,,,,,,,,,,,,,,,,,,,456.10510200000135,456.1208435000153,456.6212252000114,456.6049559000239,456.6150295000116,456.6212252000114,456.6212252000114,456.6212252000114,457.98816550002084,Objects\005b.jpg,pre,s,1.3652884000039194,None,,,,,,,,00043,001,2026-01-17_17h25.10.870,MST_test,2024.2.0,59.928289803069134,2026-01-17 17h25.18.131215 +0530,
109,0,110,o,1.2591409000160638,None,110,0,109,458.004310600023,,,,,,,,,,,,,,,,,,,,,,,,,,,,,,,,,,,,,,,,,,,,,,,,,,457.98826300000655,458.004310600023,458.5045001000108,458.48789820002276,458.49027880001813,458.5045001000108,458.5045001000108,458.5045001000108,459.77153130000806,Objects\172a.jpg,mid,o,1.2591409000160638,None,,,,,,,,00043,001,2026-01-17_17h25.10.870,MST_test,2024.2.0,59.928289803069134,2026-01-17 17h25.18.131215 +0530,
110,0,111,s,5.3143506000051275,None,111,0,110,459.78764480000245,,,,,,,,,,,,,,,,,,,,,,,,,,,,,,,,,,,,,,,,,,,,,,,,,,459.77162240000325,459.78764480000245,460.28809529999853,460.27113500001724,460.28081750002457,460.28809529999853,460.28809529999853,460.28809529999853,465.6048744000145,Objects\299b.jpg,mid,s,5.3143506000051275,None,,,,,,,,00043,001,2026-01-17_17h25.10.870,MST_test,2024.2.0,59.928289803069134,2026-01-17 17h25.18.131215 +0530,
111,0,112,s,2.4492160999798216,None,112,0,111,465.6208824000205,,,,,,,,,,,,,,,,,,,,,,,,,,,,,,,,,,,,,,,,,,,,,,,,,,465.60496620001504,465.6208824000205,466.12132669999846,466.1046505999984,466.1138628000044,466.12132669999846,466.12132669999846,466.12132669999846,468.57145460002357,Objects\200b.jpg,mid,s,2.4492160999798216,None,,,,,,,,00043,001,2026-01-17_17h25.10.870,MST_test,2024.2.0,59.928289803069134,2026-01-17 17h25.18.131215 +0530,
112,0,113,n,1.402331100020092,None,113,0,112,468.5876462000015,,,,,,,,,,,,,,,,,,,,,,,,,,,,,,,,,,,,,,,,,,,,,,,,,,468.57155710001825,468.5876462000015,469.08815980001236,469.07112240002607,469.0818206000258,469.08815980001236,469.08815980001236,469.08815980001236,470.50487760000397,Foils\002a.jpg,none,n,1.402331100020092,None,,,,,,,,00043,001,2026-01-17_17h25.10.870,MST_test,2024.2.0,59.928289803069134,2026-01-17 17h25.18.131215 +0530,
113,0,114,o,2.1171912999998312,None,114,0,113,470.5209167000139,,,,,,,,,,,,,,,,,,,,,,,,,,,,,,,,,,,,,,,,,,,,,,,,,,470.50496660001227,470.5209167000139,471.02157770001213,471.00468750001164,471.0073413000209,471.02157770001213,471.02157770001213,471.02157770001213,473.15493530000094,Objects\353a.jpg,post,o,2.1171912999998312,None,,,,,,,,00043,001,2026-01-17_17h25.10.870,MST_test,2024.2.0,59.928289803069134,2026-01-17 17h25.18.131215 +0530,
114,0,115,s,2.227351200010162,None,115,0,114,473.17081820001476,,,,,,,,,,,,,,,,,,,,,,,,,,,,,,,,,,,,,,,,,,,,,,,,,,473.1550350000034,473.17081820001476,473.6712867000024,473.6545843000058,473.6637777000142,473.6712867000024,473.6712867000024,473.6712867000024,475.90499170002295,Objects\310b.jpg,post,s,2.227351200010162,None,,,,,,,,00043,001,2026-01-17_17h25.10.870,MST_test,2024.2.0,59.928289803069134,2026-01-17 17h25.18.131215 +0530,
115,0,116,s,4.869961499993224,None,116,0,115,475.9208173000079,,,,,,,,,,,,,,,,,,,,,,,,,,,,,,,,,,,,,,,,,,,,,,,,,,475.90508770002634,475.9208173000079,476.4215117999993,476.4045326000196,476.41414470001473,476.4215117999993,476.4215117999993,476.4215117999993,481.30487750002067,Foils\106a.jpg,none,s,4.869961499993224,None,,,,,,,,00043,001,2026-01-17_17h25.10.870,MST_test,2024.2.0,59.928289803069134,2026-01-17 17h25.18.131215 +0530,
116,0,117,n,3.333897699980298,None,117,0,116,481.3209192000213,,,,,,,,,,,,,,,,,,,,,,,,,,,,,,,,,,,,,,,,,,,,,,,,,,481.3049682000128,481.3209192000213,481.8211795000243,481.8044958000246,481.81468840001617,481.8211795000243,481.8211795000243,481.8211795000243,485.17145010002423,Foils\097a.jpg,none,n,3.333897699980298,None,,,,,,,,00043,001,2026-01-17_17h25.10.870,MST_test,2024.2.0,59.928289803069134,2026-01-17 17h25.18.131215 +0530,
117,0,118,o,1.5951720000011846,None,118,0,117,485.1876079000067,,,,,,,,,,,,,,,,,,,,,,,,,,,,,,,,,,,,,,,,,,,,,,,,,,485.17154219999793,485.1876079000067,485.6878358000249,485.6711612000072,485.6737107000081,485.6878358000249,485.6878358000249,485.6878358000249,487.28832240001066,Objects\146a.jpg,pre,o,1.5951720000011846,None,,,,,,,,00043,001,2026-01-17_17h25.10.870,MST_test,2024.2.0,59.928289803069134,2026-01-17 17h25.18.131215 +0530,
118,0,119,s,2.3341727000079118,None,119,0,118,487.3042932000244,,,,,,,,,,,,,,,,,,,,,,,,,,,,,,,,,,,,,,,,,,,,,,,,,,487.2884191000194,487.3042932000244,487.8046924000082,487.7878824000072,487.79095370002324,487.8046924000082,487.8046924000082,487.8046924000082,490.15490170000703,Foils\f7.jpg,none,s,2.3341727000079118,None,,,,,,,,00043,001,2026-01-17_17h25.10.870,MST_test,2024.2.0,59.928289803069134,2026-01-17 17h25.18.131215 +0530,
119,0,120,s,11.179885699995793,None,120,0,119,490.1708253000106,,,,,,,,,,,,,,,,,,,,,,,,,,,,,,,,,,,,,,,,,,,,,,,,,,490.1549959999975,490.1708253000106,490.6712288999988,490.6545735000109,490.6642522000184,490.6712288999988,490.6712288999988,490.6712288999988,501.854845200025,Foils\098a.jpg,none,s,11.179885699995793,None,,,,,,,,00043,001,2026-01-17_17h25.10.870,MST_test,2024.2.0,59.928289803069134,2026-01-17 17h25.18.131215 +0530,
120,0,121,s,2.6639243999961764,None,121,0,120,501.87085350000416,,,,,,,,,,,,,,,,,,,,,,,,,,,,,,,,,,,,,,,,,,,,,,,,,,501.8549453000014,501.87085350000416,502.37105770001654,502.3545030000096,502.3573352000094,502.37105770001654,502.37105770001654,502.37105770001654,505.0385420000239,Objects\273a.jpg,mid,s,2.6639243999961764,None,,,,,,,,00043,001,2026-01-17_17h25.10.870,MST_test,2024.2.0,59.928289803069134,2026-01-17 17h25.18.131215 +0530,
121,0,122,o,1.5448462000058498,None,122,0,121,505.054314900015,,,,,,,,,,,,,,,,,,,,,,,,,,,,,,,,,,,,,,,,,,,,,,,,,,505.0386333000206,505.054314900015,505.55447699999786,505.53799100001925,505.5404460999998,505.55447699999786,505.55447699999786,505.55447699999786,507.10481509999954,Objects\049a.jpg,post,o,1.5448462000058498,None,,,,,,,,00043,001,2026-01-17_17h25.10.870,MST_test,2024.2.0,59.928289803069134,2026-01-17 17h25.18.131215 +0530,
122,0,123,o,1.6382051999971736,None,123,0,122,507.12091590001364,,,,,,,,,,,,,,,,,,,,,,,,,,,,,,,,,,,,,,,,,,,,,,,,,,507.1049052000162,507.12091590001364,507.621295000019,507.60458559999825,507.61586610000813,507.621295000019,507.621295000019,507.621295000019,509.2716349000111,Objects\038b.jpg,pre,o,1.6382051999971736,None,,,,,,,,00043,001,2026-01-17_17h25.10.870,MST_test,2024.2.0,59.928289803069134,2026-01-17 17h25.18.131215 +0530,
123,0,124,s,1.7752390999812633,None,124,0,123,509.2875934000185,,,,,,,,,,,,,,,,,,,,,,,,,,,,,,,,,,,,,,,,,,,,,,,,,,509.27172740001697,509.2875934000185,509.7880863000173,509.771129700006,509.78108690000954,509.7880863000173,509.7880863000173,509.7880863000173,511.571542700025,Objects\202b.jpg,post,s,1.7752390999812633,None,,,,,,,,00043,001,2026-01-17_17h25.10.870,MST_test,2024.2.0,59.928289803069134,2026-01-17 17h25.18.131215 +0530,
124,0,125,o,1.2123395999951754,None,125,0,124,511.5876355000073,,,,,,,,,,,,,,,,,,,,,,,,,,,,,,,,,,,,,,,,,,,,,,,,,,511.571635100001,511.5876355000073,512.087983800011,512.0711184000247,512.074288200005,512.087983800011,512.087983800011,512.087983800011,513.3048755000054,Objects\170a.jpg,pre,o,1.2123395999951754,None,,,,,,,,00043,001,2026-01-17_17h25.10.870,MST_test,2024.2.0,59.928289803069134,2026-01-17 17h25.18.131215 +0530,
125,0,126,s,1.8382007000036538,None,126,0,125,513.3209236999974,,,,,,,,,,,,,,,,,,,,,,,,,,,,,,,,,,,,,,,,,,,,,,,,,,513.3049718000111,513.3209236999974,513.821168800001,513.8046995000041,513.8143122000038,513.821168800001,513.821168800001,513.821168800001,515.6715156999999,Objects\314b.jpg,pre,s,1.8382007000036538,None,,,,,,,,00043,001,2026-01-17_17h25.10.870,MST_test,2024.2.0,59.928289803069134,2026-01-17 17h25.18.131215 +0530,
126,0,127,s,1.599128900008509,None,127,0,126,515.6876786000212,,,,,,,,,,,,,,,,,,,,,,,,,,,,,,,,,,,,,,,,,,,,,,,,,,515.6716068000242,515.6876786000212,516.1878812000214,516.1712023,516.1740054000111,516.1878812000214,516.1878812000214,516.1878812000214,517.7883303000126,Objects\328a.jpg,pre,s,1.599128900008509,None,,,,,,,,00043,001,2026-01-17_17h25.10.870,MST_test,2024.2.0,59.928289803069134,2026-01-17 17h25.18.131215 +0530,
127,0,128,o,2.2037197000172455,None,128,0,127,517.8042978000012,,,,,,,,,,,,,,,,,,,,,,,,,,,,,,,,,,,,,,,,,,,,,,,,,,517.7884272000229,517.8042978000012,518.3047401000222,518.2881435000163,518.2981223000097,518.3047401000222,518.3047401000222,518.3047401000222,520.5215473000135,Objects\321b.jpg,mid,o,2.2037197000172455,None,,,,,,,,00043,001,2026-01-17_17h25.10.870,MST_test,2024.2.0,59.928289803069134,2026-01-17 17h25.18.131215 +0530,
128,0,129,o,1.1414897000067867,None,129,0,128,520.5375897000195,,,,,,,,,,,,,,,,,,,,,,,,,,,,,,,,,,,,,,,,,,,,,,,,,,520.5216396000178,520.5375897000195,521.0380460000015,521.02114300002,521.0244620000012,521.0380460000015,521.0380460000015,521.0380460000015,522.1882541000086,Objects\072a.jpg,mid,o,1.1414897000067867,None,,,,,,,,00043,001,2026-01-17_17h25.10.870,MST_test,2024.2.0,59.928289803069134,2026-01-17 17h25.18.131215 +0530,
129,0,130,s,10.314784799993504,None,130,0,129,522.2043226000096,,,,,,,,,,,,,,,,,,,,,,,,,,,,,,,,,,,,,,,,,,,,,,,,,,522.1883475000213,522.2043226000096,522.704570300004,522.687994900014,522.6977383000194,522.704570300004,522.704570300004,522.704570300004,533.0216124000144,Objects\015b.jpg,post,s,10.314784799993504,None,,,,,,,,00043,001,2026-01-17_17h25.10.870,MST_test,2024.2.0,59.928289803069134,2026-01-17 17h25.18.131215 +0530,
130,0,131,n,3.041342699987581,None,131,0,130,533.0376239000179,,,,,,,,,,,,,,,,,,,,,,,,,,,,,,,,,,,,,,,,,,,,,,,,,,533.0217069000064,533.0376239000179,533.5379875000217,533.5213360000052,533.5309763000114,533.5379875000217,533.5379875000217,533.5379875000217,536.588347300014,Foils\081a.jpg,none,n,3.041342699987581,None,,,,,,,,00043,001,2026-01-17_17h25.10.870,MST_test,2024.2.0,59.928289803069134,2026-01-17 17h25.18.131215 +0530,
131,0,132,n,1.2098542999883648,None,132,0,131,536.6043862000224,,,,,,,,,,,,,,,,,,,,,,,,,,,,,,,,,,,,,,,,,,,,,,,,,,536.5884445999982,536.6043862000224,537.1047700000054,537.0880163999973,537.0969411999977,537.1047700000054,537.1047700000054,537.1047700000054,538.3219007000152,Foils\057a.jpg,none,n,1.2098542999883648,None,,,,,,,,00043,001,2026-01-17_17h25.10.870,MST_test,2024.2.0,59.928289803069134,2026-01-17 17h25.18.131215 +0530,
132,0,133,s,1.5814859999809414,None,133,0,132,538.3376867000188,,,,,,,,,,,,,,,,,,,,,,,,,,,,,,,,,,,,,,,,,,,,,,,,,,538.32200070002,538.3376867000188,538.837844499998,538.8211858000141,538.8238565000065,538.837844499998,538.837844499998,538.837844499998,540.4216829000216,Objects\159a.jpg,mid,s,1.5814859999809414,None,,,,,,,,00043,001,2026-01-17_17h25.10.870,MST_test,2024.2.0,59.928289803069134,2026-01-17 17h25.18.131215 +0530,
133,0,134,s,2.144903999986127,None,134,0,133,540.4378342000127,,,,,,,,,,,,,,,,,,,,,,,,,,,,,,,,,,,,,,,,,,,,,,,,,,540.4217763000051,540.4378342000127,540.9383286000229,540.9213400000008,540.9313917000254,540.9383286000229,540.9383286000229,540.9383286000229,543.0883832000254,Objects\225b.jpg,pre,s,2.144903999986127,None,,,,,,,,00043,001,2026-01-17_17h25.10.870,MST_test,2024.2.0,59.928289803069134,2026-01-17 17h25.18.131215 +0530,
134,0,135,o,1.5349088999792002,None,135,0,134,543.1043575000076,,,,,,,,,,,,,,,,,,,,,,,,,,,,,,,,,,,,,,,,,,,,,,,,,,543.0884736000153,543.1043575000076,543.6047724000236,543.5882488000207,543.5995044000156,543.6047724000236,543.6047724000236,543.6047724000236,545.1550807000021,Objects\363b.jpg,post,o,1.5349088999792002,None,,,,,,,,00043,001,2026-01-17_17h25.10.870,MST_test,2024.2.0,59.928289803069134,2026-01-17 17h25.18.131215 +0530,
135,0,136,o,2.907079900003737,None,136,0,135,545.1711457000056,,,,,,,,,,,,,,,,,,,,,,,,,,,,,,,,,,,,,,,,,,,,,,,,,,545.1551715000242,545.1711457000056,545.6714602000138,545.6547291000024,545.6645662000228,545.6714602000138,545.6714602000138,545.6714602000138,548.5903175999993,Objects\280b.jpg,pre,o,2.907079900003737,None,,,,,,,,00043,001,2026-01-17_17h25.10.870,MST_test,2024.2.0,59.928289803069134,2026-01-17 17h25.18.131215 +0530,
136,0,137,s,1.058986999996705,None,137,0,136,548.6044381000102,,,,,,,,,,,,,,,,,,,,,,,,,,,,,,,,,,,,,,,,,,,,,,,,,,548.5904178000055,548.6044381000102,549.1047736000037,549.0879244000243,549.0980247000116,549.1047736000037,549.1047736000037,549.1047736000037,550.1718361000239,Objects\151b.jpg,post,s,1.058986999996705,None,,,,,,,,00043,001,2026-01-17_17h25.10.870,MST_test,2024.2.0,59.928289803069134,2026-01-17 17h25.18.131215 +0530,
137,0,138,o,0.9865804000000935,None,138,0,137,550.1877449000021,,,,,,,,,,,,,,,,,,,,,,,,,,,,,,,,,,,,,,,,,,,,,,,,,,550.1719307000167,550.1877449000021,550.6879301000154,550.6713299000112,550.6738155000203,550.6879301000154,550.6879301000154,550.6879301000154,551.6883010000165,Objects\141a.jpg,pre,o,0.9865804000000935,None,,,,,,,,00043,001,2026-01-17_17h25.10.870,MST_test,2024.2.0,59.928289803069134,2026-01-17 17h25.18.131215 +0530,
138,0,139,s,1.3338290999818128,None,139,0,138,551.7044255000073,,,,,,,,,,,,,,,,,,,,,,,,,,,,,,,,,,,,,,,,,,,,,,,,,,551.6884078000148,551.7044255000073,552.2047575000033,552.1880949000188,552.1979401000135,552.2047575000033,552.2047575000033,552.2047575000033,553.5550248000072,Objects\370b.jpg,mid,s,1.3338290999818128,None,,,,,,,,00043,001,2026-01-17_17h25.10.870,MST_test,2024.2.0,59.928289803069134,2026-01-17 17h25.18.131215 +0530,
139,0,140,s,2.931577200011816,None,140,0,139,553.5711262999976,,,,,,,,,,,,,,,,,,,,,,,,,,,,,,,,,,,,,,,,,,,,,,,,,,553.5551182000199,553.5711262999976,554.0714481000032,554.0545909000211,554.0641762000159,554.0714481000032,554.0714481000032,554.0714481000032,557.0050480000209,Objects\251b.jpg,post,s,2.931577200011816,None,,,,,,,,00043,001,2026-01-17_17h25.10.870,MST_test,2024.2.0,59.928289803069134,2026-01-17 17h25.18.131215 +0530,
140,0,141,o,1.3133658000151627,None,141,0,140,557.0209991000011,,,,,,,,,,,,,,,,,,,,,,,,,,,,,,,,,,,,,,,,,,,,,,,,,,557.0051389000146,557.0209991000011,557.5213143000146,557.5047582000261,557.5077559000056,557.5213143000146,557.5213143000146,557.5213143000146,558.8383365000191,Objects\253a.jpg,mid,o,1.3133658000151627,None,,,,,,,,00043,001,2026-01-17_17h25.10.870,MST_test,2024.2.0,59.928289803069134,2026-01-17 17h25.18.131215 +0530,
141,0,142,s,1.6482217999873683,None,142,0,141,558.8544385000132,,,,,,,,,,,,,,,,,,,,,,,,,,,,,,,,,,,,,,,,,,,,,,,,,,558.8384309000103,558.8544385000132,559.354839800013,559.3379972000257,559.3480513000104,559.354839800013,559.354839800013,559.354839800013,561.0050287000195,Foils\f5.jpg,none,s,1.6482217999873683,None,,,,,,,,00043,001,2026-01-17_17h25.10.870,MST_test,2024.2.0,59.928289803069134,2026-01-17 17h25.18.131215 +0530,
142,0,143,s,3.137623699993128,None,143,0,142,561.0210138999973,,,,,,,,,,,,,,,,,,,,,,,,,,,,,,,,,,,,,,,,,,,,,,,,,,561.0051236000145,561.0210138999973,561.5214557000145,561.5046893000253,561.5140377000207,561.5214557000145,561.5214557000145,561.5214557000145,564.6716304000001,Foils\026a.jpg,none,s,3.137623699993128,None,,,,,,,,00043,001,2026-01-17_17h25.10.870,MST_test,2024.2.0,59.928289803069134,2026-01-17 17h25.18.131215 +0530,
143,0,144,s,3.823065900010988,None,144,0,143,564.687649200001,,,,,,,,,,,,,,,,,,,,,,,,,,,,,,,,,,,,,,,,,,,,,,,,,,564.6717351000116,564.687649200001,565.1879557000066,565.1713279000251,565.1806989000179,565.1879557000066,565.1879557000066,565.1879557000066,569.0217088000209,Objects\192b.jpg,post,s,3.823065900010988,None,,,,,,,,00043,001,2026-01-17_17h25.10.870,MST_test,2024.2.0,59.928289803069134,2026-01-17 17h25.18.131215 +0530,
144,0,145,n,1.737311300006695,None,145,0,144,569.0377905000059,,,,,,,,,,,,,,,,,,,,,,,,,,,,,,,,,,,,,,,,,,,,,,,,,,569.0218154000177,569.0377905000059,569.5378429999982,569.521149600012,569.5305591000069,569.5378429999982,569.5378429999982,569.5378429999982,571.2883547000238,Foils\086a.jpg,none,n,1.737311300006695,None,,,,,,,,00043,001,2026-01-17_17h25.10.870,MST_test,2024.2.0,59.928289803069134,2026-01-17 17h25.18.131215 +0530,
145,0,146,s,4.487043600005563,None,146,0,145,571.3045119000017,,,,,,,,,,,,,,,,,,,,,,,,,,,,,,,,,,,,,,,,,,,,,,,,,,571.2884456000174,571.3045119000017,571.8046366000199,571.7881183999998,571.7977628000081,571.8046366000199,571.8046366000199,571.8046366000199,576.3051340000238,Objects\255b.jpg,post,s,4.487043600005563,None,,,,,,,,00043,001,2026-01-17_17h25.10.870,MST_test,2024.2.0,59.928289803069134,2026-01-17 17h25.18.131215 +0530,
146,0,147,o,1.5900559999863617,None,147,0,146,576.3209753000119,,,,,,,,,,,,,,,,,,,,,,,,,,,,,,,,,,,,,,,,,,,,,,,,,,576.3052282000135,576.3209753000119,576.8213376000058,576.8047212000238,576.8076104000211,576.8213376000058,576.8213376000058,576.8213376000058,578.421490400011,Objects\279a.jpg,mid,o,1.5900559999863617,None,,,,,,,,00043,001,2026-01-17_17h25.10.870,MST_test,2024.2.0,59.928289803069134,2026-01-17 17h25.18.131215 +0530,
147,0,148,s,2.6648680999933276,None,148,0,147,578.4376670000202,,,,,,,,,,,,,,,,,,,,,,,,,,,,,,,,,,,,,,,,,,,,,,,,,,578.4215848000022,578.4376670000202,578.9381796000234,578.9213691000186,578.9252636000165,578.9381796000234,578.9381796000234,578.9381796000234,581.6051412000088,Objects\372a.jpg,mid,s,2.6648680999933276,None,,,,,,,,00043,001,2026-01-17_17h25.10.870,MST_test,2024.2.0,59.928289803069134,2026-01-17 17h25.18.131215 +0530,
148,0,149,o,1.1140531999990344,None,149,0,148,581.6210567000089,,,,,,,,,,,,,,,,,,,,,,,,,,,,,,,,,,,,,,,,,,,,,,,,,,581.6052391999983,581.6210567000089,582.1215311000124,582.1050468000176,582.1088990000135,582.1215311000124,582.1215311000124,582.1215311000124,583.2385139000253,Objects\247a.jpg,pre,o,1.1140531999990344,None,,,,,,,,00043,001,2026-01-17_17h25.10.870,MST_test,2024.2.0,59.928289803069134,2026-01-17 17h25.18.131215 +0530,
149,0,150,s,8.320135899994057,None,150,0,149,583.2543709000165,,,,,,,,,,,,,,,,,,,,,,,,,,,,,,,,,,,,,,,,,,,,,,,,,,583.2386089000211,583.2543709000165,583.7548700000043,583.7380174999998,583.7414031000226,583.7548700000043,583.7548700000043,583.7548700000043,592.0883125000109,Objects\023a.jpg,post,s,8.320135899994057,None,,,,,,,,00043,001,2026-01-17_17h25.10.870,MST_test,2024.2.0,59.928289803069134,2026-01-17 17h25.18.131215 +0530,
,,,,,,,,,,,,,,,,,,,,,,,,,,,,,,,,,,,,,,,,,,,,,,,,,,,,,,,,,,,,,,,,,,,,,,,,,592.0883818000148,592.1044950000069,592.1044950000069,593.8048945000046,space,1.698067000019364,None,00043,001,2026-01-17_17h25.10.870,MST_test,2024.2.0,59.928289803069134,2026-01-17 17h25.18.131215 +0530,
