Sl_no,image_path,thisN,thisTrialN,thisRepN,key_resp_5.keys,key_resp_7.keys,key_resp_7.rt,key_resp_7.duration,key_resp_5.rt,key_resp_5.duration,key_resp_9.keys,key_resp_9.rt,key_resp_9.duration,key_resp_8.keys,key_resp_8.rt,key_resp_8.duration,practice.thisRepN,practice.thisTrialN,practice.thisN,trials.thisRepN,trials.thisTrialN,trials.thisN,thisRow.t,notes,welcome_page.started,text.started,key_resp.started,welcome_page.stopped,key_resp.keys,key_resp.rt,key_resp.duration,instructions.started,ins.started,key_resp_2.started,instructions.stopped,key_resp_2.keys,key_resp_2.rt,key_resp_2.duration,objects_only_instruction.started,text_3.started,key_resp_3.started,objects_only_instruction.stopped,key_resp_3.keys,key_resp_3.rt,key_resp_3.duration,ISI.started,text_4.started,text_4.stopped,ISI.stopped,practice_block.started,image.started,key_resp_5.started,text_5.started,image.stopped,key_resp_5.stopped,text_5.stopped,practice_block.stopped,practice.key_resp_5.keys,indoor_outdoor.started,text_7.started,key_resp_7.started,indoor_outdoor.stopped,practice.key_resp_7.keys,practice.key_resp_7.rt,practice.key_resp_7.duration,practice.key_resp_5.rt,practice.key_resp_5.duration,practice_to_main.started,text_2.started,key_resp_4.started,practice_to_main.stopped,key_resp_4.keys,key_resp_4.rt,key_resp_4.duration,objects.started,image_2.started,text_9.started,key_resp_9.started,image_2.stopped,text_9.stopped,key_resp_9.stopped,objects.stopped,category,trials.key_resp_9.keys,trials.key_resp_9.rt,trials.key_resp_9.duration,encoding_task.started,encoding_task.stopped,trials.key_resp_8.keys,text_8.started,key_resp_8.started,trials.key_resp_8.rt,trials.key_resp_8.duration,end_experiment.started,text_6.started,key_resp_6.started,end_experiment.stopped,key_resp_6.keys,key_resp_6.rt,key_resp_6.duration,list_of_stimuli,encoding_task_accuracy,participant,session,date,expName,psychopyVersion,frameRate,expStart,
,,,,,,,,,,,,,,,,,,,,,,,,,0.0012309000012464821,0.002707200008444488,0.002707200008444488,646.7956868000038,space,646.7856697000097,None,,,,,,,,,,,,,,,,,,,,,,,,,,,,,,,,,,,,,,,,,,,,,,,,,,,,,,,,,,,,,,,,,,,,,,,,00040,001,2026-01-17_15h03.47.022,MST_task,2024.2.0,60.01820952368501,2026-01-17 15h04.11.938514 +0530,
,,,,,,,,,,,,,,,,,,,,,,,,,,,,,,,,646.7957268000173,646.8102284000197,646.8102284000197,668.1938867999997,space,21.377970900008222,None,,,,,,,,,,,,,,,,,,,,,,,,,,,,,,,,,,,,,,,,,,,,,,,,,,,,,,,,,,,,,,,,,00040,001,2026-01-17_15h03.47.022,MST_task,2024.2.0,60.01820952368501,2026-01-17 15h04.11.938514 +0530,
,,,,,,,,,,,,,,,,,,,,,,,,,,,,,,,,,,,,,,,668.1939172999992,668.2100768000237,668.2100768000237,677.1270821000217,space,8.906813199981116,None,,,,,,,,,,,,,,,,,,,,,,,,,,,,,,,,,,,,,,,,,,,,,,,,,,,,,,,,,,00040,001,2026-01-17_15h03.47.022,MST_task,2024.2.0,60.01820952368501,2026-01-17 15h04.11.938514 +0530,
10,practice_images/182a.jpg,0,0,1,None,f,2.2967067999998108,None,,,,,,,,,1,0,0,,,,677.1434517000162,,,,,,,,,,,,,,,,,,,,,,,677.1310048000014,677.1434517000162,677.6439243000059,677.6269803000032,677.632652100001,677.6439243000059,677.6439243000059,677.6439243000059,680.6434586000105,680.6434586000105,680.6434586000105,680.6270011000161,None,680.6285896000045,680.6434586000105,680.6434586000105,682.9437883000064,f,2.2967067999998108,None,,,,,,,,,,,,,,,,,,,,,,,,,,,,,,,,,,,,,,00040,001,2026-01-17_15h03.47.022,MST_task,2024.2.0,60.01820952368501,2026-01-17 15h04.11.938514 +0530,
2,practice_images/031a.jpg,1,1,1,None,f,0.2886496999999508,None,,,,,,,,,1,1,1,,,,682.9602592000156,,,,,,,,,,,,,,,,,,,,,,,682.9438721000042,682.9602592000156,683.4602344000014,683.443674500013,683.4453878000204,683.4602344000014,683.4602344000014,683.4602344000014,686.460114800022,686.460114800022,686.460114800022,686.4438565000019,None,686.443890399998,686.460114800022,686.460114800022,686.76051740002,f,0.2886496999999508,None,,,,,,,,,,,,,,,,,,,,,,,,,,,,,,,,,,,,,,00040,001,2026-01-17_15h03.47.022,MST_task,2024.2.0,60.01820952368501,2026-01-17 15h04.11.938514 +0530,
7,practice_images/166a.jpg,2,2,1,f,None,,,2.8171052999969106,0.12637899999390356,,,,,,,1,2,2,,,,686.7766069000063,,,,,,,,,,,,,,,,,,,,,,,686.7605985000264,686.7766069000063,687.2767236000218,687.2603568000195,687.261806399998,687.2767236000218,687.2767236000218,687.2767236000218,690.2767284000001,690.2767284000001,690.2767284000001,690.2607995000144,f,690.2608398000011,,,690.2608522000082,None,,,2.8171052999969106,0.12637899999390356,,,,,,,,,,,,,,,,,,,,,,,,,,,,,,,,,,,,00040,001,2026-01-17_15h03.47.022,MST_task,2024.2.0,60.01820952368501,2026-01-17 15h04.11.938514 +0530,
3,practice_images/037a.jpg,3,3,1,None,f,0.18033699999796227,None,,,,,,,,,1,3,3,,,,690.2767284000001,,,,,,,,,,,,,,,,,,,,,,,690.2609161,690.2767284000001,690.7769126000057,690.7604774000065,690.7619848000177,690.7769126000057,690.7769126000057,690.7769126000057,693.7766476000252,693.7766476000252,693.7766476000252,693.7605294000241,None,693.7605619000096,693.7766476000252,693.7766476000252,693.9606849000265,f,0.18033699999796227,None,,,,,,,,,,,,,,,,,,,,,,,,,,,,,,,,,,,,,,00040,001,2026-01-17_15h03.47.022,MST_task,2024.2.0,60.01820952368501,2026-01-17 15h04.11.938514 +0530,
6,practice_images/158a.jpg,4,4,1,j,None,,,2.0800526999810245,0.12743500000215136,,,,,,,1,4,4,,,,693.9766321000061,,,,,,,,,,,,,,,,,,,,,,,693.9607745000103,693.9766321000061,694.4768931000144,694.4604025000008,694.4618924000242,694.4768931000144,694.4768931000144,694.4768931000144,697.476667400013,697.476667400013,697.476667400013,697.460462100018,j,697.460499000008,,,697.4605103000067,None,,,2.0800526999810245,0.12743500000215136,,,,,,,,,,,,,,,,,,,,,,,,,,,,,,,,,,,,00040,001,2026-01-17_15h03.47.022,MST_task,2024.2.0,60.01820952368501,2026-01-17 15h04.11.938514 +0530,
4,practice_images/002b.jpg,5,5,1,None,j,0.9161387000058312,None,,,,,,,,,1,5,5,,,,697.476667400013,,,,,,,,,,,,,,,,,,,,,,,697.4605725000147,697.476667400013,697.9768125000119,697.9604396000213,697.9654138000042,697.9768125000119,697.9768125000119,697.9768125000119,,,,700.9609090000158,None,700.9631550000049,700.9766689000244,700.9766689000244,701.894005500013,j,0.9161387000058312,None,,,,,,,,,,,,,,,,,,,,,,,,,,,,,,,,,,,,,,00040,001,2026-01-17_15h03.47.022,MST_task,2024.2.0,60.01820952368501,2026-01-17 15h04.11.938514 +0530,
1,practice_images/013a.jpg,6,6,1,None,f,0.7142364000028465,None,,,,,,,,,1,6,6,,,,701.9101136000245,,,,,,,,,,,,,,,,,,,,,,,701.8940883000032,701.9101136000245,702.4102959000156,702.3937410000071,702.395391900005,702.4102959000156,702.4102959000156,702.4102959000156,705.4101017000212,705.4101017000212,705.4101017000212,705.3939330000139,None,705.3939671000117,705.4101017000212,705.4101017000212,706.127089000016,f,0.7142364000028465,None,,,,,,,,,,,,,,,,,,,,,,,,,,,,,,,,,,,,,,00040,001,2026-01-17_15h03.47.022,MST_task,2024.2.0,60.01820952368501,2026-01-17 15h04.11.938514 +0530,
9,practice_images/180a.jpg,7,7,1,None,j,0.8343242999981157,None,,,,,,,,,1,7,7,,,,706.1434973000141,,,,,,,,,,,,,,,,,,,,,,,706.1271714000031,706.1434973000141,706.6435869999987,706.6268801999977,706.628560400015,706.6435869999987,706.6435869999987,706.6435869999987,709.6434001000016,709.6434001000016,709.6434001000016,709.6271156000148,None,709.6271487000049,709.6434001000016,709.6434001000016,710.4940369000251,j,0.8343242999981157,None,,,,,,,,,,,,,,,,,,,,,,,,,,,,,,,,,,,,,,00040,001,2026-01-17_15h03.47.022,MST_task,2024.2.0,60.01820952368501,2026-01-17 15h04.11.938514 +0530,
5,practice_images/139a.jpg,8,8,1,j,None,,,2.4259490000258666,0.11302789999172091,,,,,,,1,8,8,,,,710.5101803000143,,,,,,,,,,,,,,,,,,,,,,,710.4941218000022,710.5101803000143,711.0103381000226,710.9938871000195,710.9956112000218,711.0103381000226,711.0103381000226,711.0103381000226,714.0101252000022,714.0101252000022,714.0101252000022,713.9937891000009,j,713.9938263000222,,,713.9938382000255,None,,,2.4259490000258666,0.11302789999172091,,,,,,,,,,,,,,,,,,,,,,,,,,,,,,,,,,,,00040,001,2026-01-17_15h03.47.022,MST_task,2024.2.0,60.01820952368501,2026-01-17 15h04.11.938514 +0530,
8,practice_images/178a.jpg,9,9,1,f,None,,,1.6388723000127356,0.14387649999116547,,,,,,,1,9,9,,,,714.0101252000022,,,,,,,,,,,,,,,,,,,,,,,713.9938994000258,714.0101252000022,714.5102394999994,714.4936981000064,714.4950705000083,714.5102394999994,714.5102394999994,714.5102394999994,717.5101500000164,717.5101500000164,717.5101500000164,717.4938696000027,f,717.493907600001,,,717.493919200002,None,,,1.6388723000127356,0.14387649999116547,,,,,,,,,,,,,,,,,,,,,,,,,,,,,,,,,,,,00040,001,2026-01-17_15h03.47.022,MST_task,2024.2.0,60.01820952368501,2026-01-17 15h04.11.938514 +0530,
,,,,,,,,,,,,,,,,,,,,,,,,,,,,,,,,,,,,,,,,,,,,,,,,,,,,,,,,,,,,,,,,,,,,717.493961900007,717.5101500000164,717.5101500000164,744.3939788000134,space,26.878111099998932,None,,,,,,,,,,,,,,,,,,,,,,,,,,,,,00040,001,2026-01-17_15h03.47.022,MST_task,2024.2.0,60.01820952368501,2026-01-17 15h04.11.938514 +0530,
,Objects\077a.jpg,0,0,1,,,,,,,j,1.6698876000009477,0.16833559999940917,None,,,,,,1,0,0,744.4102756000066,,,,,,,,,,,,,,,,,,,,,,,744.3947207000165,744.4102756000066,744.9103468000249,744.8938467999978,,,,,,,,,,,,,,,,,,,,,,,,,,744.8992071000102,744.9103468000249,744.9103468000249,744.9103468000249,747.9102185000083,747.9102185000083,747.9102185000083,747.8941441000206,indoor,j,1.6698876000009477,0.16833559999940917,747.8957789000124,747.8957987000176,None,,,,,,,,,,,,,,00040,001,2026-01-17_15h03.47.022,MST_task,2024.2.0,60.01820952368501,2026-01-17 15h04.11.938514 +0530,
,Objects\357a.jpg,1,0,2,,,,,,,j,1.2824255999876186,0.19209419999970123,None,,,,,,2,0,1,747.9102185000083,,,,,,,,,,,,,,,,,,,,,,,747.8958691000007,747.9102185000083,748.4104708000086,748.3937563000072,,,,,,,,,,,,,,,,,,,,,,,,,,748.3966551000194,748.4104708000086,748.4104708000086,748.4104708000086,751.4102314000193,751.4102314000193,751.4102314000193,751.3940107000235,indoor,j,1.2824255999876186,0.19209419999970123,751.3940527000232,751.3940645000257,None,,,,,,,,,,,,,,00040,001,2026-01-17_15h03.47.022,MST_task,2024.2.0,60.01820952368501,2026-01-17 15h04.11.938514 +0530,
,Objects\054a.jpg,2,0,3,,,,,,,f,1.5749826999963261,0.18317750000278465,None,,,,,,3,0,2,751.4102314000193,,,,,,,,,,,,,,,,,,,,,,,751.3941329000227,751.4102314000193,751.9104905000131,751.8939374000183,,,,,,,,,,,,,,,,,,,,,,,,,,751.8966966000153,751.9104905000131,751.9104905000131,751.9104905000131,754.9101048000157,754.9101048000157,754.9101048000157,754.8942450000031,indoor,f,1.5749826999963261,0.18317750000278465,754.8942910000042,754.894303100009,None,,,,,,,,,,,,,,00040,001,2026-01-17_15h03.47.022,MST_task,2024.2.0,60.01820952368501,2026-01-17 15h04.11.938514 +0530,
,Objects\383a.jpg,3,0,4,,,,,,,None,,,f,0.026533299998845905,None,,,,4,0,3,754.9101048000157,,,,,,,,,,,,,,,,,,,,,,,754.8943676000054,754.9101048000157,755.4107437000202,755.3937764000148,,,,,,,,,,,,,,,,,,,,,,,,,,755.3970206000085,755.4107437000202,755.4107437000202,755.4107437000202,758.410323100019,758.410323100019,758.410323100019,758.3940801999997,indoor,None,,,758.3941216000239,758.4439867000037,f,758.410323100019,758.410323100019,0.026533299998845905,None,,,,,,,,,,00040,001,2026-01-17_15h03.47.022,MST_task,2024.2.0,60.01820952368501,2026-01-17 15h04.11.938514 +0530,
,Objects\324a.jpg,4,0,5,,,,,,,f,1.307855599996401,0.13599869998870417,None,,,,,,5,0,4,758.4603451000003,,,,,,,,,,,,,,,,,,,,,,,758.4440689000185,758.4603451000003,758.9606310000236,758.943839900021,,,,,,,,,,,,,,,,,,,,,,,,,,758.9476009000209,758.9606310000236,758.9606310000236,758.9606310000236,761.9601551000087,761.9601551000087,761.9601551000087,761.9441999000264,indoor,f,1.307855599996401,0.13599869998870417,761.9442474000098,761.9442602000199,None,,,,,,,,,,,,,,00040,001,2026-01-17_15h03.47.022,MST_task,2024.2.0,60.01820952368501,2026-01-17 15h04.11.938514 +0530,
,Objects\337a.jpg,5,0,6,,,,,,,f,1.8644777000008617,0.14395590001367964,None,,,,,,6,0,5,761.9601551000087,,,,,,,,,,,,,,,,,,,,,,,761.9443358000135,761.9601551000087,762.4604804000119,762.443841100001,,,,,,,,,,,,,,,,,,,,,,,,,,762.4550760000129,762.4604804000119,762.4604804000119,762.4604804000119,765.4602802000009,765.4602802000009,765.4602802000009,765.4441221000161,indoor,f,1.8644777000008617,0.14395590001367964,765.4441635000112,765.4441749000107,None,,,,,,,,,,,,,,00040,001,2026-01-17_15h03.47.022,MST_task,2024.2.0,60.01820952368501,2026-01-17 15h04.11.938514 +0530,
,Objects\205a.jpg,6,0,7,,,,,,,f,2.500270200020168,0.13573879998875782,None,,,,,,7,0,6,765.4602802000009,,,,,,,,,,,,,,,,,,,,,,,765.444244000013,765.4602802000009,765.9606084000261,765.9437563000247,,,,,,,,,,,,,,,,,,,,,,,,,,765.9539051000029,765.9606084000261,765.9606084000261,765.9606084000261,768.9601444000145,768.9601444000145,768.9601444000145,768.9441847999988,indoor,f,2.500270200020168,0.13573879998875782,768.9442285000114,768.9442409000185,None,,,,,,,,,,,,,,00040,001,2026-01-17_15h03.47.022,MST_task,2024.2.0,60.01820952368501,2026-01-17 15h04.11.938514 +0530,
,Objects\297a.jpg,7,0,8,,,,,,,f,2.9360723000136204,None,None,,,,,,8,0,7,768.9601444000145,,,,,,,,,,,,,,,,,,,,,,,768.9443118000054,768.9601444000145,769.4604048000183,769.4438770000124,,,,,,,,,,,,,,,,,,,,,,,,,,769.450419300003,769.4604048000183,769.4604048000183,769.4604048000183,772.4602783000155,772.4602783000155,772.4602783000155,772.4440732000221,shoe,f,2.9360723000136204,None,772.4462602999993,772.4462782000192,None,,,,,,,,,,,,,,00040,001,2026-01-17_15h03.47.022,MST_task,2024.2.0,60.01820952368501,2026-01-17 15h04.11.938514 +0530,
,Objects\197a.jpg,8,0,9,,,,,,,j,2.499531500012381,0.16800420000799932,None,,,,,,9,0,8,772.4602783000155,,,,,,,,,,,,,,,,,,,,,,,772.4463467000169,772.4602783000155,772.9606901000079,772.943893800024,,,,,,,,,,,,,,,,,,,,,,,,,,772.9474420000042,772.9606901000079,772.9606901000079,772.9606901000079,775.9601389000018,775.9601389000018,775.9601389000018,775.9441458000219,shoe,j,2.499531500012381,0.16800420000799932,775.9441932000045,775.9442056000116,None,,,,,,,,,,,,,,00040,001,2026-01-17_15h03.47.022,MST_task,2024.2.0,60.01820952368501,2026-01-17 15h04.11.938514 +0530,
,Objects\281a.jpg,9,0,10,,,,,,,j,2.311754300026223,0.15329089999431744,None,,,,,,10,0,9,775.9601389000018,,,,,,,,,,,,,,,,,,,,,,,775.9443122000084,775.9601389000018,776.4606065000116,776.4442459999991,,,,,,,,,,,,,,,,,,,,,,,,,,776.4547860000166,776.4606065000116,776.4606065000116,776.4606065000116,779.4602741000126,779.4602741000126,779.4602741000126,779.4440050999983,shoe,j,2.311754300026223,0.15329089999431744,779.444046300021,779.4440580000228,None,,,,,,,,,,,,,,00040,001,2026-01-17_15h03.47.022,MST_task,2024.2.0,60.01820952368501,2026-01-17 15h04.11.938514 +0530,
,Objects\267a.jpg,10,0,11,,,,,,,j,1.7482884999772068,0.15193640001234598,None,,,,,,11,0,10,779.4602741000126,,,,,,,,,,,,,,,,,,,,,,,779.4441215000115,779.4602741000126,779.9604960000142,779.9437158000073,,,,,,,,,,,,,,,,,,,,,,,,,,779.9470847000193,779.9604960000142,779.9604960000142,779.9604960000142,782.9601309999998,782.9601309999998,782.9601309999998,782.9441999999981,shoe,j,1.7482884999772068,0.15193640001234598,782.9442458000267,782.9442583000055,None,,,,,,,,,,,,,,00040,001,2026-01-17_15h03.47.022,MST_task,2024.2.0,60.01820952368501,2026-01-17 15h04.11.938514 +0530,
,Objects\115a.jpg,11,0,12,,,,,,,f,1.2162338999914937,0.1760569000034593,None,,,,,,12,0,11,782.9601309999998,,,,,,,,,,,,,,,,,,,,,,,782.9443630000169,782.9601309999998,783.4605561000062,783.4437206000148,,,,,,,,,,,,,,,,,,,,,,,,,,783.4469318000192,783.4605561000062,783.4605561000062,783.4605561000062,786.4601821000106,786.4601821000106,786.4601821000106,786.4440168000001,shoe,f,1.2162338999914937,0.1760569000034593,786.4440684000147,786.444081100024,None,,,,,,,,,,,,,,00040,001,2026-01-17_15h03.47.022,MST_task,2024.2.0,60.01820952368501,2026-01-17 15h04.11.938514 +0530,
,Objects\182a.jpg,12,0,13,,,,,,,f,1.0764759999874514,0.17699959999299608,None,,,,,,13,0,12,786.4601821000106,,,,,,,,,,,,,,,,,,,,,,,786.4441760000191,786.4601821000106,786.9603153000062,786.9436665000103,,,,,,,,,,,,,,,,,,,,,,,,,,786.9465212000068,786.9603153000062,786.9603153000062,786.9603153000062,789.9601240000047,789.9601240000047,789.9601240000047,789.944227,shoe,f,1.0764759999874514,0.17699959999299608,789.9442727999995,789.9442859000119,None,,,,,,,,,,,,,,00040,001,2026-01-17_15h03.47.022,MST_task,2024.2.0,60.01820952368501,2026-01-17 15h04.11.938514 +0530,
,Objects\143a.jpg,13,0,14,,,,,,,j,1.569721000007121,0.18303899999591522,None,,,,,,14,0,13,789.9601240000047,,,,,,,,,,,,,,,,,,,,,,,789.9443527000258,789.9601240000047,790.4604088000196,790.4436643000226,,,,,,,,,,,,,,,,,,,,,,,,,,790.4549833000056,790.4604088000196,790.4604088000196,790.4604088000196,793.4601318000059,793.4601318000059,793.4601318000059,793.4439655000169,shoe,j,1.569721000007121,0.18303899999591522,793.4440088999982,793.4440208000015,None,,,,,,,,,,,,,,00040,001,2026-01-17_15h03.47.022,MST_task,2024.2.0,60.01820952368501,2026-01-17 15h04.11.938514 +0530,
,Objects\109a.jpg,14,0,15,,,,,,,None,,,f,1.0450643000076525,None,,,,15,0,14,793.4601318000059,,,,,,,,,,,,,,,,,,,,,,,793.4440862000047,793.4601318000059,793.9603214000235,793.9436601000198,,,,,,,,,,,,,,,,,,,,,,,,,,793.9477568000148,793.9603214000235,793.9603214000235,793.9603214000235,796.9602796000254,796.9602796000254,796.9602796000254,796.9441987000173,indoor,None,,,796.9458836000122,798.0107004000165,f,796.9602796000254,796.9602796000254,1.0450643000076525,None,,,,,,,,,,00040,001,2026-01-17_15h03.47.022,MST_task,2024.2.0,60.01820952368501,2026-01-17 15h04.11.938514 +0530,
,Objects\286a.jpg,15,0,16,,,,,,,None,,,f,4.67759050001041,None,,,,16,0,15,798.0267456000147,,,,,,,,,,,,,,,,,,,,,,,798.010786400002,798.0267456000147,798.5271622000146,798.5103883000265,,,,,,,,,,,,,,,,,,,,,,,,,,798.5127747000079,798.5271622000146,798.5271622000146,798.5271622000146,801.5266883000149,801.5266883000149,801.5266883000149,801.5107905000041,indoor,None,,,801.5108294000092,806.2106019000057,f,801.5266883000149,801.5266883000149,4.67759050001041,None,,,,,,,,,,00040,001,2026-01-17_15h03.47.022,MST_task,2024.2.0,60.01820952368501,2026-01-17 15h04.11.938514 +0530,
,Objects\306a.jpg,16,0,17,,,,,,,f,1.381571299978532,0.19209360002423637,None,,,,,,17,0,16,806.2265836000151,,,,,,,,,,,,,,,,,,,,,,,806.2106889999995,806.2265836000151,806.7270436000254,806.7104167000216,,,,,,,,,,,,,,,,,,,,,,,,,,806.7135457000113,806.7270436000254,806.7270436000254,806.7270436000254,809.7267487000208,809.7267487000208,809.7267487000208,809.7106451000145,indoor,f,1.381571299978532,0.19209360002423637,809.7106882000226,809.7107002999983,None,,,,,,,,,,,,,,00040,001,2026-01-17_15h03.47.022,MST_task,2024.2.0,60.01820952368501,2026-01-17 15h04.11.938514 +0530,
,Objects\057a.jpg,17,0,18,,,,,,,f,2.7701823000097647,0.1669285999960266,None,,,,,,18,0,17,809.7267487000208,,,,,,,,,,,,,,,,,,,,,,,809.710770500009,809.7267487000208,810.2271651000192,810.2104481999995,,,,,,,,,,,,,,,,,,,,,,,,,,810.213819800003,810.2271651000192,810.2271651000192,810.2271651000192,813.2267466000048,813.2267466000048,813.2267466000048,813.2107069000194,indoor,f,2.7701823000097647,0.1669285999960266,813.2107499999984,813.2107621000032,None,,,,,,,,,,,,,,00040,001,2026-01-17_15h03.47.022,MST_task,2024.2.0,60.01820952368501,2026-01-17 15h04.11.938514 +0530,
,Objects\309a.jpg,18,0,19,,,,,,,f,2.9091256999818143,None,None,,,,,,19,0,18,813.2267466000048,,,,,,,,,,,,,,,,,,,,,,,813.2108237000066,813.2267466000048,813.7272338000184,813.7105091000267,,,,,,,,,,,,,,,,,,,,,,,,,,813.7132997000008,813.7272338000184,813.7272338000184,813.7272338000184,816.7267597000173,816.7267597000173,816.7267597000173,816.7107262000209,indoor,f,2.9091256999818143,None,816.7107692999998,816.7107812000031,None,,,,,,,,,,,,,,00040,001,2026-01-17_15h03.47.022,MST_task,2024.2.0,60.01820952368501,2026-01-17 15h04.11.938514 +0530,
,Objects\278a.jpg,19,0,20,,,,,,,f,1.3300546999962535,0.16770369998994283,None,,,,,,20,0,19,816.7267597000173,,,,,,,,,,,,,,,,,,,,,,,816.7108452000248,816.7267597000173,817.2273361000116,817.2108006000053,,,,,,,,,,,,,,,,,,,,,,,,,,817.2209158000187,817.2273361000116,817.2273361000116,817.2273361000116,820.2266449000163,820.2266449000163,820.2266449000163,820.2106854000012,indoor,f,1.3300546999962535,0.16770369998994283,820.2107342000236,820.2107460999978,None,,,,,,,,,,,,,,00040,001,2026-01-17_15h03.47.022,MST_task,2024.2.0,60.01820952368501,2026-01-17 15h04.11.938514 +0530,
,Objects\146a.jpg,20,0,21,,,,,,,f,2.550824999983888,0.15837570000439882,None,,,,,,21,0,20,820.2266449000163,,,,,,,,,,,,,,,,,,,,,,,820.2108212000167,820.2266449000163,820.727115000016,820.7103974000202,,,,,,,,,,,,,,,,,,,,,,,,,,820.7136817999999,820.727115000016,820.727115000016,820.727115000016,823.7267592000135,823.7267592000135,823.7267592000135,823.7106771000254,indoor,f,2.550824999983888,0.15837570000439882,823.7107215000142,823.7107340000221,None,,,,,,,,,,,,,,00040,001,2026-01-17_15h03.47.022,MST_task,2024.2.0,60.01820952368501,2026-01-17 15h04.11.938514 +0530,
,Objects\121a.jpg,21,0,22,,,,,,,f,1.465498999983538,0.16067560002557002,None,,,,,,22,0,21,823.7267592000135,,,,,,,,,,,,,,,,,,,,,,,823.7108028000221,823.7267592000135,824.2269674999989,824.2104528000054,,,,,,,,,,,,,,,,,,,,,,,,,,824.2153517999977,824.2269674999989,824.2269674999989,824.2269674999989,827.2267616000026,827.2267616000026,827.2267616000026,827.210797000007,shoe,f,1.465498999983538,0.16067560002557002,827.212892600015,827.2129111000104,None,,,,,,,,,,,,,,00040,001,2026-01-17_15h03.47.022,MST_task,2024.2.0,60.01820952368501,2026-01-17 15h04.11.938514 +0530,
,Objects\256a.jpg,22,0,23,,,,,,,f,2.6850930000073276,0.1759852000104729,None,,,,,,23,0,22,827.2267616000026,,,,,,,,,,,,,,,,,,,,,,,827.212980500015,827.2267616000026,827.7272042000259,827.7105513999995,,,,,,,,,,,,,,,,,,,,,,,,,,827.7133281000133,827.7272042000259,827.7272042000259,827.7272042000259,830.7266946000163,830.7266946000163,830.7266946000163,830.7109307000064,shoe,f,2.6850930000073276,0.1759852000104729,830.7109742000175,830.7109861000208,None,,,,,,,,,,,,,,00040,001,2026-01-17_15h03.47.022,MST_task,2024.2.0,60.01820952368501,2026-01-17 15h04.11.938514 +0530,
,Objects\028a.jpg,23,0,24,,,,,,,j,1.6496218999964185,0.19995350000681356,None,,,,,,24,0,23,830.7266946000163,,,,,,,,,,,,,,,,,,,,,,,830.7110500000126,830.7266946000163,831.2271482000069,831.2104659000179,,,,,,,,,,,,,,,,,,,,,,,,,,831.213724900008,831.2271482000069,831.2271482000069,831.2271482000069,834.2268289000203,834.2268289000203,834.2268289000203,834.2107026000158,shoe,j,1.6496218999964185,0.19995350000681356,834.2107489000191,834.2107606000209,None,,,,,,,,,,,,,,00040,001,2026-01-17_15h03.47.022,MST_task,2024.2.0,60.01820952368501,2026-01-17 15h04.11.938514 +0530,
,Objects\110a.jpg,24,0,25,,,,,,,f,2.3018078999884892,0.19218980000005104,None,,,,,,25,0,24,834.2268289000203,,,,,,,,,,,,,,,,,,,,,,,834.2108578000043,834.2268289000203,834.7270159000182,834.710458400019,,,,,,,,,,,,,,,,,,,,,,,,,,834.7130394999986,834.7270159000182,834.7270159000182,834.7270159000182,837.7266926000011,837.7266926000011,837.7266926000011,837.7107943000156,shoe,f,2.3018078999884892,0.19218980000005104,837.7108363000152,837.7108482000185,None,,,,,,,,,,,,,,00040,001,2026-01-17_15h03.47.022,MST_task,2024.2.0,60.01820952368501,2026-01-17 15h04.11.938514 +0530,
,Objects\060a.jpg,25,0,26,,,,,,,j,2.7299020999926142,0.18401060000178404,None,,,,,,26,0,25,837.7266926000011,,,,,,,,,,,,,,,,,,,,,,,837.7109131000179,837.7266926000011,838.2270678000059,838.2103941000241,,,,,,,,,,,,,,,,,,,,,,,,,,838.2131204000034,838.2270678000059,838.2270678000059,838.2270678000059,841.2268967000127,841.2268967000127,841.2268967000127,841.2107259000186,shoe,j,2.7299020999926142,0.18401060000178404,841.2107722000219,841.2107840000244,None,,,,,,,,,,,,,,00040,001,2026-01-17_15h03.47.022,MST_task,2024.2.0,60.01820952368501,2026-01-17 15h04.11.938514 +0530,
,Objects\104a.jpg,26,0,27,,,,,,,f,1.405270700022811,0.1846069000021089,None,,,,,,27,0,26,841.2268967000127,,,,,,,,,,,,,,,,,,,,,,,841.2108478000155,841.2268967000127,841.727151900006,841.7105220000085,,,,,,,,,,,,,,,,,,,,,,,,,,841.7130674000073,841.727151900006,841.727151900006,841.727151900006,844.7269374000025,844.7269374000025,844.7269374000025,844.7110541000147,shoe,f,1.405270700022811,0.1846069000021089,844.7111014000257,844.7111142000067,None,,,,,,,,,,,,,,00040,001,2026-01-17_15h03.47.022,MST_task,2024.2.0,60.01820952368501,2026-01-17 15h04.11.938514 +0530,
,Objects\089a.jpg,27,0,28,,,,,,,j,1.9691875999851618,0.1840006000129506,None,,,,,,28,0,27,844.7269374000025,,,,,,,,,,,,,,,,,,,,,,,844.711219800025,844.7269374000025,845.2272010000015,845.2105271000182,,,,,,,,,,,,,,,,,,,,,,,,,,845.221514600009,845.2272010000015,845.2272010000015,845.2272010000015,848.2268451999989,848.2268451999989,848.2268451999989,848.2108818000124,shoe,j,1.9691875999851618,0.1840006000129506,848.2109297999996,848.2109421000059,None,,,,,,,,,,,,,,00040,001,2026-01-17_15h03.47.022,MST_task,2024.2.0,60.01820952368501,2026-01-17 15h04.11.938514 +0530,
,Objects\319a.jpg,28,0,29,,,,,,,f,2.572881200001575,0.17659400001866743,None,,,,,,29,0,28,848.2268451999989,,,,,,,,,,,,,,,,,,,,,,,848.2110403999977,848.2268451999989,848.7273363000131,848.710496500018,,,,,,,,,,,,,,,,,,,,,,,,,,848.7146829999983,848.7273363000131,848.7273363000131,848.7273363000131,851.7269788999984,851.7269788999984,851.7269788999984,851.7109786000219,indoor,f,2.572881200001575,0.17659400001866743,851.7126055000117,851.7126226000255,None,,,,,,,,,,,,,,00040,001,2026-01-17_15h03.47.022,MST_task,2024.2.0,60.01820952368501,2026-01-17 15h04.11.938514 +0530,
,Objects\352a.jpg,29,0,30,,,,,,,None,,,f,0.13742380001349375,None,,,,30,0,29,851.7269788999984,,,,,,,,,,,,,,,,,,,,,,,851.7126908000209,851.7269788999984,852.227257600025,852.2105013000255,,,,,,,,,,,,,,,,,,,,,,,,,,852.2135656000173,852.227257600025,852.227257600025,852.227257600025,855.2269150000066,855.2269150000066,855.2269150000066,855.2109422000067,indoor,None,,,855.2109966000135,855.3774556000135,f,855.2269150000066,855.2269150000066,0.13742380001349375,None,,,,,,,,,,00040,001,2026-01-17_15h03.47.022,MST_task,2024.2.0,60.01820952368501,2026-01-17 15h04.11.938514 +0530,
,Objects\134a.jpg,30,0,31,,,,,,,f,2.382464099995559,0.16798080000444315,None,,,,,,31,0,30,855.3935365000216,,,,,,,,,,,,,,,,,,,,,,,855.3775529999984,855.3935365000216,855.8940419999999,855.8770971000195,,,,,,,,,,,,,,,,,,,,,,,,,,855.887618800014,855.8940419999999,855.8940419999999,855.8940419999999,858.8935613000067,858.8935613000067,858.8935613000067,858.877353000018,indoor,f,2.382464099995559,0.16798080000444315,858.8773967000016,858.8774189000251,None,,,,,,,,,,,,,,00040,001,2026-01-17_15h03.47.022,MST_task,2024.2.0,60.01820952368501,2026-01-17 15h04.11.938514 +0530,
,Objects\071a.jpg,31,0,32,,,,,,,j,2.2103870999999344,0.20796509998035617,None,,,,,,32,0,31,858.8935613000067,,,,,,,,,,,,,,,,,,,,,,,858.8774855000083,858.8935613000067,859.3938120000239,859.3770813000156,,,,,,,,,,,,,,,,,,,,,,,,,,859.379831600003,859.3938120000239,859.3938120000239,859.3938120000239,862.3935253000236,862.3935253000236,862.3935253000236,862.3775436000142,indoor,j,2.2103870999999344,0.20796509998035617,862.3775917000021,862.3776047000138,None,,,,,,,,,,,,,,00040,001,2026-01-17_15h03.47.022,MST_task,2024.2.0,60.01820952368501,2026-01-17 15h04.11.938514 +0530,
,Objects\073a.jpg,32,0,33,,,,,,,f,1.4865334999922197,0.19999860000098124,None,,,,,,33,0,32,862.3935253000236,,,,,,,,,,,,,,,,,,,,,,,862.3776725000062,862.3935253000236,862.8938289000071,862.8770625000179,,,,,,,,,,,,,,,,,,,,,,,,,,862.8796436000266,862.8938289000071,862.8938289000071,862.8938289000071,865.8936115000106,865.8936115000106,865.8936115000106,865.8773133000068,indoor,f,1.4865334999922197,0.19999860000098124,865.8773556000087,865.8773674000113,None,,,,,,,,,,,,,,00040,001,2026-01-17_15h03.47.022,MST_task,2024.2.0,60.01820952368501,2026-01-17 15h04.11.938514 +0530,
,Objects\183a.jpg,33,0,34,,,,,,,f,1.4023790000064764,0.16860119998455048,None,,,,,,34,0,33,865.8936115000106,,,,,,,,,,,,,,,,,,,,,,,865.8774311000016,865.8936115000106,866.3939047000022,866.377062900021,,,,,,,,,,,,,,,,,,,,,,,,,,866.3797991000174,866.3939047000022,866.3939047000022,866.3939047000022,869.3935707000201,869.3935707000201,869.3935707000201,869.3774260000209,indoor,f,1.4023790000064764,0.16860119998455048,869.3774681000214,869.3774802000262,None,,,,,,,,,,,,,,00040,001,2026-01-17_15h03.47.022,MST_task,2024.2.0,60.01820952368501,2026-01-17 15h04.11.938514 +0530,
,Objects\027a.jpg,34,0,35,,,,,,,j,2.111475999990944,0.2072766000055708,None,,,,,,35,0,34,869.3935707000201,,,,,,,,,,,,,,,,,,,,,,,869.3775440000172,869.3935707000201,869.8938475000032,869.8772459000174,,,,,,,,,,,,,,,,,,,,,,,,,,869.8804912000196,869.8938475000032,869.8938475000032,869.8938475000032,872.8935348000086,872.8935348000086,872.8935348000086,872.8775267000019,indoor,j,2.111475999990944,0.2072766000055708,872.8775685,872.8775811000087,None,,,,,,,,,,,,,,00040,001,2026-01-17_15h03.47.022,MST_task,2024.2.0,60.01820952368501,2026-01-17 15h04.11.938514 +0530,
,Objects\114a.jpg,35,0,36,,,,,,,f,1.9872253000212368,0.21599929998046719,None,,,,,,36,0,35,872.8935348000086,,,,,,,,,,,,,,,,,,,,,,,872.8776428000128,872.8935348000086,873.3937901000027,873.3770899000228,,,,,,,,,,,,,,,,,,,,,,,,,,873.381887000025,873.3937901000027,873.3937901000027,873.3937901000027,876.3935656000103,876.3935656000103,876.3935656000103,876.3774534000258,shoe,f,1.9872253000212368,0.21599929998046719,876.3797992000182,876.3798203000042,None,,,,,,,,,,,,,,00040,001,2026-01-17_15h03.47.022,MST_task,2024.2.0,60.01820952368501,2026-01-17 15h04.11.938514 +0530,
,Objects\148a.jpg,36,0,37,,,,,,,None,,,f,0.8306460000167135,None,,,,37,0,36,876.3935656000103,,,,,,,,,,,,,,,,,,,,,,,876.3799035999982,876.3935656000103,876.8937643000099,876.8775794000248,,,,,,,,,,,,,,,,,,,,,,,,,,876.8870014999993,876.8937643000099,876.8937643000099,876.8937643000099,879.8936991000082,879.8936991000082,879.8936991000082,879.8772901000048,shoe,None,,,879.8773290000099,880.7272935000074,f,879.8936991000082,879.8936991000082,0.8306460000167135,None,,,,,,,,,,00040,001,2026-01-17_15h03.47.022,MST_task,2024.2.0,60.01820952368501,2026-01-17 15h04.11.938514 +0530,
,Objects\188a.jpg,37,0,38,,,,,,,f,1.8257381000148598,0.15890340000623837,None,,,,,,38,0,37,880.7435646000085,,,,,,,,,,,,,,,,,,,,,,,880.7273926000053,880.7435646000085,881.2437498000218,881.2273654000019,,,,,,,,,,,,,,,,,,,,,,,,,,881.2376381000213,881.2437498000218,881.2437498000218,881.2437498000218,884.2436085000227,884.2436085000227,884.2436085000227,884.2276134999993,shoe,f,1.8257381000148598,0.15890340000623837,884.2276545000204,884.2276668999984,None,,,,,,,,,,,,,,00040,001,2026-01-17_15h03.47.022,MST_task,2024.2.0,60.01820952368501,2026-01-17 15h04.11.938514 +0530,
,Objects\288a.jpg,38,0,39,,,,,,,f,1.1968982000253163,0.1840483999985736,None,,,,,,39,0,38,884.2436085000227,,,,,,,,,,,,,,,,,,,,,,,884.2277665000001,884.2436085000227,884.7439621000085,884.7272401000082,,,,,,,,,,,,,,,,,,,,,,,,,,884.7305578000087,884.7439621000085,884.7439621000085,884.7439621000085,887.7437158000248,887.7437158000248,887.7437158000248,887.7273373000207,shoe,f,1.1968982000253163,0.1840483999985736,887.7273791000189,887.7273913000245,None,,,,,,,,,,,,,,00040,001,2026-01-17_15h03.47.022,MST_task,2024.2.0,60.01820952368501,2026-01-17 15h04.11.938514 +0530,
,Objects\066a.jpg,39,0,40,,,,,,,f,2.4966432999935932,0.16746630001580343,None,,,,,,40,0,39,887.7437158000248,,,,,,,,,,,,,,,,,,,,,,,887.7274560000224,887.7437158000248,888.2441054000228,888.2273349000025,,,,,,,,,,,,,,,,,,,,,,,,,,888.2393620000221,888.2441054000228,888.2441054000228,888.2441054000228,891.2435372000036,891.2435372000036,891.2435372000036,891.227572600008,shoe,f,2.4966432999935932,0.16746630001580343,891.2276139000023,891.2276253000018,None,,,,,,,,,,,,,,00040,001,2026-01-17_15h03.47.022,MST_task,2024.2.0,60.01820952368501,2026-01-17 15h04.11.938514 +0530,
,Objects\123a.jpg,40,0,41,,,,,,,f,2.9656085000024177,None,None,,,,,,41,0,40,891.2435372000036,,,,,,,,,,,,,,,,,,,,,,,891.2276881000143,891.2435372000036,891.7437941000098,891.7269122000143,,,,,,,,,,,,,,,,,,,,,,,,,,891.7366035000014,891.7437941000098,891.7437941000098,891.7437941000098,894.7436895999999,894.7436895999999,894.7436895999999,894.7278016000055,shoe,f,2.9656085000024177,None,894.7278515000071,894.7278642000165,None,,,,,,,,,,,,,,00040,001,2026-01-17_15h03.47.022,MST_task,2024.2.0,60.01820952368501,2026-01-17 15h04.11.938514 +0530,
,Objects\078a.jpg,41,0,42,,,,,,,f,1.361259400000563,0.1360106999927666,None,,,,,,42,0,41,894.7436895999999,,,,,,,,,,,,,,,,,,,,,,,894.7279314000043,894.7436895999999,895.2436895999999,895.2271340000152,,,,,,,,,,,,,,,,,,,,,,,,,,895.2298579000053,895.2436895999999,895.2436895999999,895.2436895999999,898.2436366000038,898.2436366000038,898.2436366000038,898.2274809000082,shoe,f,1.361259400000563,0.1360106999927666,898.2275247000216,898.2275361000211,None,,,,,,,,,,,,,,00040,001,2026-01-17_15h03.47.022,MST_task,2024.2.0,60.01820952368501,2026-01-17 15h04.11.938514 +0530,
,Objects\084a.jpg,42,0,43,,,,,,,f,2.508948500006227,0.16110399999888614,None,,,,,,43,0,42,898.2436366000038,,,,,,,,,,,,,,,,,,,,,,,898.2276017000258,898.2436366000038,898.7438434000069,898.7272659000009,,,,,,,,,,,,,,,,,,,,,,,,,,898.7320260000124,898.7438434000069,898.7438434000069,898.7438434000069,901.7435103000025,901.7435103000025,901.7435103000025,901.7274521000218,indoor,f,2.508948500006227,0.16110399999888614,901.7291134000116,901.7291325000115,None,,,,,,,,,,,,,,00040,001,2026-01-17_15h03.47.022,MST_task,2024.2.0,60.01820952368501,2026-01-17 15h04.11.938514 +0530,
,Objects\159a.jpg,43,0,44,,,,,,,f,1.3777576000138652,0.12820430001011118,None,,,,,,44,0,43,901.7435103000025,,,,,,,,,,,,,,,,,,,,,,,901.7292002000031,901.7435103000025,902.2437065000122,902.2270637000038,,,,,,,,,,,,,,,,,,,,,,,,,,902.2296834000153,902.2437065000122,902.2437065000122,902.2437065000122,905.2435189000098,905.2435189000098,905.2435189000098,905.2273623000074,indoor,f,1.3777576000138652,0.12820430001011118,905.2274061000207,905.2274182000256,None,,,,,,,,,,,,,,00040,001,2026-01-17_15h03.47.022,MST_task,2024.2.0,60.01820952368501,2026-01-17 15h04.11.938514 +0530,
,Objects\163a.jpg,44,0,45,,,,,,,j,1.5166563000238966,0.17599419999169186,None,,,,,,45,0,44,905.2435189000098,,,,,,,,,,,,,,,,,,,,,,,905.2274936000176,905.2435189000098,905.7436600000074,905.7269818000204,,,,,,,,,,,,,,,,,,,,,,,,,,905.7293326000217,905.7436600000074,905.7436600000074,905.7436600000074,908.7435175999999,908.7435175999999,908.7435175999999,908.7273809000035,indoor,j,1.5166563000238966,0.17599419999169186,908.7274231000047,908.7274352000095,None,,,,,,,,,,,,,,00040,001,2026-01-17_15h03.47.022,MST_task,2024.2.0,60.01820952368501,2026-01-17 15h04.11.938514 +0530,
,Objects\216a.jpg,45,0,46,,,,,,,f,2.1618556000175886,0.17509380000410601,None,,,,,,46,0,45,908.7435175999999,,,,,,,,,,,,,,,,,,,,,,,908.7274991000013,908.7435175999999,909.2437045000261,909.2271201000258,,,,,,,,,,,,,,,,,,,,,,,,,,909.2383950000221,909.2437045000261,909.2437045000261,909.2437045000261,912.2435534000106,912.2435534000106,912.2435534000106,912.2275229000079,indoor,f,2.1618556000175886,0.17509380000410601,912.2275694000127,912.2275816000183,None,,,,,,,,,,,,,,00040,001,2026-01-17_15h03.47.022,MST_task,2024.2.0,60.01820952368501,2026-01-17 15h04.11.938514 +0530,
,Objects\326a.jpg,46,0,47,,,,,,,f,1.9725963000091724,0.21599480000440963,None,,,,,,47,0,46,912.2435534000106,,,,,,,,,,,,,,,,,,,,,,,912.2276470000215,912.2435534000106,912.7437459000212,912.7270666000259,,,,,,,,,,,,,,,,,,,,,,,,,,912.7312046000152,912.7437459000212,912.7437459000212,912.7437459000212,915.7434659000137,915.7434659000137,915.7434659000137,915.7274778000137,indoor,f,1.9725963000091724,0.21599480000440963,915.7275211000233,915.727533199999,None,,,,,,,,,,,,,,00040,001,2026-01-17_15h03.47.022,MST_task,2024.2.0,60.01820952368501,2026-01-17 15h04.11.938514 +0530,
,Objects\362a.jpg,47,0,48,,,,,,,j,1.7926357999967877,0.18403179998858832,None,,,,,,48,0,47,915.7434659000137,,,,,,,,,,,,,,,,,,,,,,,915.7275965000154,915.7434659000137,916.2438698000042,916.2271634000062,,,,,,,,,,,,,,,,,,,,,,,,,,916.2298531999986,916.2438698000042,916.2438698000042,916.2438698000042,919.2434598000254,919.2434598000254,919.2434598000254,919.2274913000001,indoor,j,1.7926357999967877,0.18403179998858832,919.2275343000074,919.2275462000107,None,,,,,,,,,,,,,,00040,001,2026-01-17_15h03.47.022,MST_task,2024.2.0,60.01820952368501,2026-01-17 15h04.11.938514 +0530,
,Objects\304a.jpg,48,0,49,,,,,,,f,2.8613084999960847,None,None,,,,,,49,0,48,919.2434598000254,,,,,,,,,,,,,,,,,,,,,,,919.227610300004,919.2434598000254,919.7438685000234,919.727006400004,,,,,,,,,,,,,,,,,,,,,,,,,,919.7375390000234,919.7438685000234,919.7438685000234,919.7438685000234,922.743678800005,922.743678800005,922.743678800005,922.727546500013,indoor,f,2.8613084999960847,None,922.7275918000087,922.7276046000188,None,,,,,,,,,,,,,,00040,001,2026-01-17_15h03.47.022,MST_task,2024.2.0,60.01820952368501,2026-01-17 15h04.11.938514 +0530,
,Objects\360a.jpg,49,0,50,,,,,,,f,1.472566900018137,0.16002309997566044,None,,,,,,50,0,49,922.743678800005,,,,,,,,,,,,,,,,,,,,,,,922.7276693000167,922.743678800005,923.2438693000004,923.2270191000134,,,,,,,,,,,,,,,,,,,,,,,,,,923.2316049000074,923.2438693000004,923.2438693000004,923.2438693000004,926.24353170002,926.24353170002,926.24353170002,926.2273424000014,shoe,f,1.472566900018137,0.16002309997566044,926.2294640000036,926.2294822000258,None,,,,,,,,,,,,,,00040,001,2026-01-17_15h03.47.022,MST_task,2024.2.0,60.01820952368501,2026-01-17 15h04.11.938514 +0530,
,Objects\361a.jpg,50,0,51,,,,,,,j,1.0608598999970127,0.1677182000130415,None,,,,,,51,0,50,926.24353170002,,,,,,,,,,,,,,,,,,,,,,,926.2295495000144,926.24353170002,926.7439446000208,926.7270040000149,,,,,,,,,,,,,,,,,,,,,,,,,,926.7376362000068,926.7439446000208,926.7439446000208,926.7439446000208,929.7435262000072,929.7435262000072,929.7435262000072,929.727234400023,shoe,j,1.0608598999970127,0.1677182000130415,929.7272776000027,929.7272893000045,None,,,,,,,,,,,,,,00040,001,2026-01-17_15h03.47.022,MST_task,2024.2.0,60.01820952368501,2026-01-17 15h04.11.938514 +0530,
,Objects\287a.jpg,51,0,52,,,,,,,f,1.3365687000041362,0.1360008000046946,None,,,,,,52,0,51,929.7435262000072,,,,,,,,,,,,,,,,,,,,,,,929.7273939000152,929.7435262000072,930.2438777000061,930.2272053000052,,,,,,,,,,,,,,,,,,,,,,,,,,930.2298759999976,930.2438777000061,930.2438777000061,930.2438777000061,933.2434667000198,933.2434667000198,933.2434667000198,933.2272375000175,shoe,f,1.3365687000041362,0.1360008000046946,933.2272808999987,933.2272924999997,None,,,,,,,,,,,,,,00040,001,2026-01-17_15h03.47.022,MST_task,2024.2.0,60.01820952368501,2026-01-17 15h04.11.938514 +0530,
,Objects\277a.jpg,52,0,53,,,,,,,f,0.9894611999916378,0.18371049998677336,None,,,,,,53,0,52,933.2434667000198,,,,,,,,,,,,,,,,,,,,,,,933.2273556000146,933.2434667000198,933.7439431000093,933.7270015000249,,,,,,,,,,,,,,,,,,,,,,,,,,933.7299858000188,933.7439431000093,933.7439431000093,933.7439431000093,,,,936.7274157000065,shoe,f,0.9894611999916378,0.18371049998677336,936.7274677000241,936.7274807000067,None,,,,,,,,,,,,,,00040,001,2026-01-17_15h03.47.022,MST_task,2024.2.0,60.01820952368501,2026-01-17 15h04.11.938514 +0530,
,Objects\158a.jpg,53,0,54,,,,,,,f,1.0964228000084404,0.18400009998003952,None,,,,,,54,0,53,936.7434686000051,,,,,,,,,,,,,,,,,,,,,,,936.7275501000113,936.7434686000051,937.2438842000265,937.226897000015,,,,,,,,,,,,,,,,,,,,,,,,,,937.2302645000163,937.2438842000265,937.2438842000265,937.2438842000265,940.2434982999985,940.2434982999985,940.2434982999985,940.2274191000033,shoe,f,1.0964228000084404,0.18400009998003952,940.2274626000144,940.2274742000154,None,,,,,,,,,,,,,,00040,001,2026-01-17_15h03.47.022,MST_task,2024.2.0,60.01820952368501,2026-01-17 15h04.11.938514 +0530,
,Objects\218a.jpg,54,0,55,,,,,,,j,1.5173336000007112,0.1918133000144735,None,,,,,,55,0,54,940.2434982999985,,,,,,,,,,,,,,,,,,,,,,,940.2275714999996,940.2434982999985,940.7439815000107,940.7269356000179,,,,,,,,,,,,,,,,,,,,,,,,,,940.737457900017,940.7439815000107,940.7439815000107,940.7439815000107,943.7435997000139,943.7435997000139,943.7435997000139,943.7273481000157,shoe,j,1.5173336000007112,0.1918133000144735,943.7273972000112,943.7274090000137,None,,,,,,,,,,,,,,00040,001,2026-01-17_15h03.47.022,MST_task,2024.2.0,60.01820952368501,2026-01-17 15h04.11.938514 +0530,
,Objects\268a.jpg,55,0,56,,,,,,,f,1.0170804999943357,0.16932710001128726,None,,,,,,56,0,55,943.7435997000139,,,,,,,,,,,,,,,,,,,,,,,943.7275155000098,943.7435997000139,944.2439204000111,944.227223599999,,,,,,,,,,,,,,,,,,,,,,,,,,944.2367541000131,944.2439204000111,944.2439204000111,944.2439204000111,947.2435390000173,947.2435390000173,947.2435390000173,947.2273151000263,shoe,f,1.0170804999943357,0.16932710001128726,947.2273585000075,947.2273710000154,None,,,,,,,,,,,,,,00040,001,2026-01-17_15h03.47.022,MST_task,2024.2.0,60.01820952368501,2026-01-17 15h04.11.938514 +0530,
,Objects\250a.jpg,56,0,57,,,,,,,j,1.6603966999973636,0.20003060001181439,None,,,,,,57,0,56,947.2435390000173,,,,,,,,,,,,,,,,,,,,,,,947.2274358000141,947.2435390000173,947.7438779000076,947.7270705000265,,,,,,,,,,,,,,,,,,,,,,,,,,947.7314060000062,947.7438779000076,947.7438779000076,947.7438779000076,950.7434523000265,950.7434523000265,950.7434523000265,950.7275109000038,indoor,j,1.6603966999973636,0.20003060001181439,950.7291396000073,950.729158400005,None,,,,,,,,,,,,,,00040,001,2026-01-17_15h03.47.022,MST_task,2024.2.0,60.01820952368501,2026-01-17 15h04.11.938514 +0530,
,Objects\244a.jpg,57,0,58,,,,,,,f,1.4409030000097118,0.1680606999725569,None,,,,,,58,0,57,950.7434523000265,,,,,,,,,,,,,,,,,,,,,,,950.7292357000115,950.7434523000265,951.2438729999994,951.2269620000152,,,,,,,,,,,,,,,,,,,,,,,,,,951.2364384000248,951.2438729999994,951.2438729999994,951.2438729999994,954.2435381000105,954.2435381000105,954.2435381000105,954.2274063000223,indoor,f,1.4409030000097118,0.1680606999725569,954.2274548000132,954.2274672000203,None,,,,,,,,,,,,,,00040,001,2026-01-17_15h03.47.022,MST_task,2024.2.0,60.01820952368501,2026-01-17 15h04.11.938514 +0530,
,Objects\284a.jpg,58,0,59,,,,,,,j,1.7731340999889653,0.19131409999681637,None,,,,,,59,0,58,954.2435381000105,,,,,,,,,,,,,,,,,,,,,,,954.2275328000251,954.2435381000105,954.743882300012,954.7270728000149,,,,,,,,,,,,,,,,,,,,,,,,,,954.7370771999995,954.743882300012,954.743882300012,954.743882300012,957.7435370000021,957.7435370000021,957.7435370000021,957.727332600014,indoor,j,1.7731340999889653,0.19131409999681637,957.7273762000259,957.7273886000039,None,,,,,,,,,,,,,,00040,001,2026-01-17_15h03.47.022,MST_task,2024.2.0,60.01820952368501,2026-01-17 15h04.11.938514 +0530,
,Objects\100a.jpg,59,0,60,,,,,,,j,1.7772779999941122,0.1760018999921158,None,,,,,,60,0,59,957.7435370000021,,,,,,,,,,,,,,,,,,,,,,,957.7274526000256,957.7435370000021,958.2439052000118,958.2270979000023,,,,,,,,,,,,,,,,,,,,,,,,,,958.2305988000007,958.2439052000118,958.2439052000118,958.2439052000118,961.2435610000102,961.2435610000102,961.2435610000102,961.2275820000214,indoor,j,1.7772779999941122,0.1760018999921158,961.2276229000126,961.2276354000205,None,,,,,,,,,,,,,,00040,001,2026-01-17_15h03.47.022,MST_task,2024.2.0,60.01820952368501,2026-01-17 15h04.11.938514 +0530,
,Objects\210a.jpg,60,0,61,,,,,,,j,0.844291700021131,0.16863259999081492,None,,,,,,61,0,60,961.2435610000102,,,,,,,,,,,,,,,,,,,,,,,961.2276992000116,961.2435610000102,961.7440453000017,961.7272187000199,,,,,,,,,,,,,,,,,,,,,,,,,,961.7301380000135,961.7440453000017,961.7440453000017,961.7440453000017,964.7436769000196,964.7436769000196,964.7436769000196,964.727394400019,indoor,j,0.844291700021131,0.16863259999081492,964.7274375999987,964.7274497000035,None,,,,,,,,,,,,,,00040,001,2026-01-17_15h03.47.022,MST_task,2024.2.0,60.01820952368501,2026-01-17 15h04.11.938514 +0530,
,Objects\290a.jpg,61,0,62,,,,,,,j,1.0082240999909118,0.18399600000702776,None,,,,,,62,0,61,964.7436769000196,,,,,,,,,,,,,,,,,,,,,,,964.7275119000115,964.7436769000196,965.2440122000116,965.2271583000256,,,,,,,,,,,,,,,,,,,,,,,,,,965.2302646000171,965.2440122000116,965.2440122000116,965.2440122000116,968.2436518000031,968.2436518000031,968.2436518000031,968.2277648000163,indoor,j,1.0082240999909118,0.18399600000702776,968.2278096000082,968.227822100016,None,,,,,,,,,,,,,,00040,001,2026-01-17_15h03.47.022,MST_task,2024.2.0,60.01820952368501,2026-01-17 15h04.11.938514 +0530,
,Objects\124a.jpg,62,0,63,,,,,,,f,2.324454899993725,0.1840100999979768,None,,,,,,63,0,62,968.2436518000031,,,,,,,,,,,,,,,,,,,,,,,968.227887200017,968.2436518000031,968.7439891000104,968.7271276000247,,,,,,,,,,,,,,,,,,,,,,,,,,968.7305124000122,968.7439891000104,968.7439891000104,968.7439891000104,971.743554900022,971.743554900022,971.743554900022,971.7274988999998,indoor,f,2.324454899993725,0.1840100999979768,971.7275393000164,971.7275510000181,None,,,,,,,,,,,,,,00040,001,2026-01-17_15h03.47.022,MST_task,2024.2.0,60.01820952368501,2026-01-17 15h04.11.938514 +0530,
,Objects\087a.jpg,63,0,64,,,,,,,j,1.5207536999951117,0.17606500000692904,None,,,,,,64,0,63,971.743554900022,,,,,,,,,,,,,,,,,,,,,,,971.7276167000236,971.743554900022,972.2437959000235,972.2272367000114,,,,,,,,,,,,,,,,,,,,,,,,,,972.231760900002,972.2437959000235,972.2437959000235,972.2437959000235,975.2436433000257,975.2436433000257,975.2436433000257,975.2273882000009,shoe,j,1.5207536999951117,0.17606500000692904,975.2295954000147,975.2296129000024,None,,,,,,,,,,,,,,00040,001,2026-01-17_15h03.47.022,MST_task,2024.2.0,60.01820952368501,2026-01-17 15h04.11.938514 +0530,
,Objects\329a.jpg,64,0,65,,,,,,,f,1.6614745000260882,0.1674631999921985,None,,,,,,65,0,64,975.2436433000257,,,,,,,,,,,,,,,,,,,,,,,975.2297149000224,975.2436433000257,975.7439194000035,975.7270744999987,,,,,,,,,,,,,,,,,,,,,,,,,,975.7304859000142,975.7439194000035,975.7439194000035,975.7439194000035,978.7436721000122,978.7436721000122,978.7436721000122,978.7273361000116,shoe,f,1.6614745000260882,0.1674631999921985,978.7273773000052,978.7273911000229,None,,,,,,,,,,,,,,00040,001,2026-01-17_15h03.47.022,MST_task,2024.2.0,60.01820952368501,2026-01-17 15h04.11.938514 +0530,
,Objects\176a.jpg,65,0,66,,,,,,,j,1.8164723999798298,0.19196440000087023,None,,,,,,66,0,65,978.7436721000122,,,,,,,,,,,,,,,,,,,,,,,978.7274948999984,978.7436721000122,979.2440011000144,979.2272591000074,,,,,,,,,,,,,,,,,,,,,,,,,,979.2376539000252,979.2440011000144,979.2440011000144,979.2440011000144,982.2437305000203,982.2437305000203,982.2437305000203,982.2274974000175,shoe,j,1.8164723999798298,0.19196440000087023,982.2275387000118,982.2275507000159,None,,,,,,,,,,,,,,00040,001,2026-01-17_15h03.47.022,MST_task,2024.2.0,60.01820952368501,2026-01-17 15h04.11.938514 +0530,
,Objects\195a.jpg,66,0,67,,,,,,,j,2.4444564000004902,0.1837803999951575,None,,,,,,67,0,66,982.2437305000203,,,,,,,,,,,,,,,,,,,,,,,982.2276474000246,982.2437305000203,982.7440494000039,982.7272421000234,,,,,,,,,,,,,,,,,,,,,,,,,,982.7304442000168,982.7440494000039,982.7440494000039,982.7440494000039,985.743757600023,985.743757600023,985.743757600023,985.7274326000188,shoe,j,2.4444564000004902,0.1837803999951575,985.7274728000048,985.7274847000081,None,,,,,,,,,,,,,,00040,001,2026-01-17_15h03.47.022,MST_task,2024.2.0,60.01820952368501,2026-01-17 15h04.11.938514 +0530,
,Objects\177a.jpg,67,0,68,,,,,,,j,1.1131432999973185,0.16704050000407733,None,,,,,,68,0,67,985.743757600023,,,,,,,,,,,,,,,,,,,,,,,985.7275484999991,985.743757600023,986.2440591000195,986.2271860000037,,,,,,,,,,,,,,,,,,,,,,,,,,986.230816700001,986.2440591000195,986.2440591000195,986.2440591000195,989.2436486000079,989.2436486000079,989.2436486000079,989.2274374000262,shoe,j,1.1131432999973185,0.16704050000407733,989.2274792000244,989.2274910999986,None,,,,,,,,,,,,,,00040,001,2026-01-17_15h03.47.022,MST_task,2024.2.0,60.01820952368501,2026-01-17 15h04.11.938514 +0530,
,Objects\379a.jpg,68,0,69,,,,,,,j,0.9883968999783974,0.15998480000416748,None,,,,,,69,0,68,989.2436486000079,,,,,,,,,,,,,,,,,,,,,,,989.2275872000027,989.2436486000079,989.7438653999998,989.7273018000124,,,,,,,,,,,,,,,,,,,,,,,,,,989.729977400013,989.7438653999998,989.7438653999998,989.7438653999998,992.743512200017,992.743512200017,992.743512200017,992.7273590000113,shoe,j,0.9883968999783974,0.15998480000416748,992.727403500001,992.7274164000119,None,,,,,,,,,,,,,,00040,001,2026-01-17_15h03.47.022,MST_task,2024.2.0,60.01820952368501,2026-01-17 15h04.11.938514 +0530,
,Objects\106a.jpg,69,0,70,,,,,,,f,1.232870300009381,0.18406599998706952,None,,,,,,70,0,69,992.743512200017,,,,,,,,,,,,,,,,,,,,,,,992.7275214000256,992.743512200017,993.2438366000133,993.2270615000161,,,,,,,,,,,,,,,,,,,,,,,,,,993.2364121999999,993.2438366000133,993.2438366000133,993.2438366000133,996.2434852000151,996.2434852000151,996.2434852000151,996.2274141000235,shoe,f,1.232870300009381,0.18406599998706952,996.2274566999986,996.2274687000026,None,,,,,,,,,,,,,,00040,001,2026-01-17_15h03.47.022,MST_task,2024.2.0,60.01820952368501,2026-01-17 15h04.11.938514 +0530,
,Objects\149a.jpg,70,0,71,,,,,,,f,1.8533527000108734,0.1685272999748122,None,,,,,,71,0,70,996.2434852000151,,,,,,,,,,,,,,,,,,,,,,,996.2275655000121,996.2434852000151,996.7437290000089,996.7269944,,,,,,,,,,,,,,,,,,,,,,,,,,996.7310844000021,996.7437290000089,996.7437290000089,996.7437290000089,999.743561100011,999.743561100011,999.743561100011,999.7274738000124,indoor,f,1.8533527000108734,0.1685272999748122,999.7291650999978,999.72918200001,None,,,,,,,,,,,,,,00040,001,2026-01-17_15h03.47.022,MST_task,2024.2.0,60.01820952368501,2026-01-17 15h04.11.938514 +0530,
,Objects\092a.jpg,71,0,72,,,,,,,j,2.5698002999997698,0.16689759999280795,None,,,,,,72,0,71,999.743561100011,,,,,,,,,,,,,,,,,,,,,,,999.7292501000047,999.743561100011,1000.2439723999996,1000.2269901000254,,,,,,,,,,,,,,,,,,,,,,,,,,1000.2367740000191,1000.2439723999996,1000.2439723999996,1000.2439723999996,1003.2435439000255,1003.2435439000255,1003.2435439000255,1003.2273567000229,indoor,j,2.5698002999997698,0.16689759999280795,1003.2274004000064,1003.227412600012,None,,,,,,,,,,,,,,00040,001,2026-01-17_15h03.47.022,MST_task,2024.2.0,60.01820952368501,2026-01-17 15h04.11.938514 +0530,
,Objects\330a.jpg,72,0,73,,,,,,,j,2.173015500011388,0.15926389998639934,None,,,,,,73,0,72,1003.2435439000255,,,,,,,,,,,,,,,,,,,,,,,1003.2274771000084,1003.2435439000255,1003.7439545000088,1003.7271357999998,,,,,,,,,,,,,,,,,,,,,,,,,,1003.7314251000062,1003.7439545000088,1003.7439545000088,1003.7439545000088,1006.7435444000002,1006.7435444000002,1006.7435444000002,1006.7272349999985,indoor,j,2.173015500011388,0.15926389998639934,1006.7272789000126,1006.727291200019,None,,,,,,,,,,,,,,00040,001,2026-01-17_15h03.47.022,MST_task,2024.2.0,60.01820952368501,2026-01-17 15h04.11.938514 +0530,
,Objects\291a.jpg,73,0,74,,,,,,,f,1.8246472000028007,0.18439239999861456,None,,,,,,74,0,73,1006.7435444000002,,,,,,,,,,,,,,,,,,,,,,,1006.7273548000085,1006.7435444000002,1007.2438928000047,1007.2270848000189,,,,,,,,,,,,,,,,,,,,,,,,,,1007.2303871000186,1007.2438928000047,1007.2438928000047,1007.2438928000047,1010.2435832000047,1010.2435832000047,1010.2435832000047,1010.2272701000038,indoor,f,1.8246472000028007,0.18439239999861456,1010.2273184000223,1010.2273305999988,None,,,,,,,,,,,,,,00040,001,2026-01-17_15h03.47.022,MST_task,2024.2.0,60.01820952368501,2026-01-17 15h04.11.938514 +0530,
,Objects\164a.jpg,74,0,75,,,,,,,j,2.5885857999965083,0.17602089999127202,None,,,,,,75,0,74,1010.2435832000047,,,,,,,,,,,,,,,,,,,,,,,1010.2273953000258,1010.2435832000047,1010.7438547000056,1010.7270741000248,,,,,,,,,,,,,,,,,,,,,,,,,,1010.730581300013,1010.7438547000056,1010.7438547000056,1010.7438547000056,1013.7435626000224,1013.7435626000224,1013.7435626000224,1013.7273743000114,indoor,j,2.5885857999965083,0.17602089999127202,1013.7274269000045,1013.7274397000147,None,,,,,,,,,,,,,,00040,001,2026-01-17_15h03.47.022,MST_task,2024.2.0,60.01820952368501,2026-01-17 15h04.11.938514 +0530,
,Objects\137a.jpg,75,0,76,,,,,,,f,2.312533899996197,0.15999630000442266,None,,,,,,76,0,75,1013.7435626000224,,,,,,,,,,,,,,,,,,,,,,,1013.7275061000255,1013.7435626000224,1014.2437259000144,1014.2270826000022,,,,,,,,,,,,,,,,,,,,,,,,,,1014.2299911000009,1014.2437259000144,1014.2437259000144,1014.2437259000144,1017.243566500023,1017.243566500023,1017.243566500023,1017.2273505000048,indoor,f,2.312533899996197,0.15999630000442266,1017.227395599999,1017.2274079000053,None,,,,,,,,,,,,,,00040,001,2026-01-17_15h03.47.022,MST_task,2024.2.0,60.01820952368501,2026-01-17 15h04.11.938514 +0530,
,Objects\031a.jpg,76,0,77,,,,,,,f,2.0443573000084143,0.17655449997982942,None,,,,,,77,0,76,1017.243566500023,,,,,,,,,,,,,,,,,,,,,,,1017.2274732000078,1017.243566500023,1017.7439008000074,1017.727120800002,,,,,,,,,,,,,,,,,,,,,,,,,,1017.7365170000121,1017.7439008000074,1017.7439008000074,1017.7439008000074,1020.7434869999997,1020.7434869999997,1020.7434869999997,1020.727432500018,indoor,f,2.0443573000084143,0.17655449997982942,1020.7274730000063,1020.7274850000103,None,,,,,,,,,,,,,,00040,001,2026-01-17_15h03.47.022,MST_task,2024.2.0,60.01820952368501,2026-01-17 15h04.11.938514 +0530,
,Objects\373a.jpg,77,0,78,,,,,,,j,1.4166490999923553,0.18452010001055896,None,,,,,,78,0,77,1020.7434869999997,,,,,,,,,,,,,,,,,,,,,,,1020.7275496000075,1020.7434869999997,1021.243970200012,1021.2275346000097,,,,,,,,,,,,,,,,,,,,,,,,,,1021.2327051000029,1021.243970200012,1021.243970200012,1021.243970200012,1024.2434841000068,1024.2434841000068,1024.2434841000068,1024.2274169000157,shoe,j,1.4166490999923553,0.18452010001055896,1024.2295556000026,1024.2295734000218,None,,,,,,,,,,,,,,00040,001,2026-01-17_15h03.47.022,MST_task,2024.2.0,60.01820952368501,2026-01-17 15h04.11.938514 +0530,
,Objects\003a.jpg,78,0,79,,,,,,,j,2.1722860999871045,0.16800570001942106,None,,,,,,79,0,78,1024.2434841000068,,,,,,,,,,,,,,,,,,,,,,,1024.2296743000043,1024.2434841000068,1024.7439754000225,1024.7269999000127,,,,,,,,,,,,,,,,,,,,,,,,,,1024.7305922000087,1024.7439754000225,1024.7439754000225,1024.7439754000225,1027.7435543000174,1027.7435543000174,1027.7435543000174,1027.727245200018,shoe,j,2.1722860999871045,0.16800570001942106,1027.727290300012,1027.7273017000116,None,,,,,,,,,,,,,,00040,001,2026-01-17_15h03.47.022,MST_task,2024.2.0,60.01820952368501,2026-01-17 15h04.11.938514 +0530,
,Objects\266a.jpg,79,0,80,,,,,,,j,2.056779300008202,0.16801540000597015,None,,,,,,80,0,79,1027.7435543000174,,,,,,,,,,,,,,,,,,,,,,,1027.7273673000163,1027.7435543000174,1028.243944100017,1028.2270696000196,,,,,,,,,,,,,,,,,,,,,,,,,,1028.230796800024,1028.243944100017,1028.243944100017,1028.243944100017,1031.2436483000056,1031.2436483000056,1031.2436483000056,1031.227442000003,shoe,j,2.056779300008202,0.16801540000597015,1031.2274830000242,1031.2274949999992,None,,,,,,,,,,,,,,00040,001,2026-01-17_15h03.47.022,MST_task,2024.2.0,60.01820952368501,2026-01-17 15h04.11.938514 +0530,
,Objects\339a.jpg,80,0,81,,,,,,,j,0.949846899980912,0.17497420002473518,None,,,,,,81,0,80,1031.2436483000056,,,,,,,,,,,,,,,,,,,,,,,1031.2275596000254,1031.2436483000056,1031.743919600005,1031.7270152000128,,,,,,,,,,,,,,,,,,,,,,,,,,1031.730033300002,1031.743919600005,1031.743919600005,1031.743919600005,1034.743545300007,1034.743545300007,1034.743545300007,1034.7273718000215,shoe,j,0.949846899980912,0.17497420002473518,1034.7274137000204,1034.727425500023,None,,,,,,,,,,,,,,00040,001,2026-01-17_15h03.47.022,MST_task,2024.2.0,60.01820952368501,2026-01-17 15h04.11.938514 +0530,
,Objects\101a.jpg,81,0,82,,,,,,,f,1.7450772000011057,0.17600140001741238,None,,,,,,82,0,81,1034.743545300007,,,,,,,,,,,,,,,,,,,,,,,1034.7274892000132,1034.743545300007,1035.244021999999,1035.2270199000195,,,,,,,,,,,,,,,,,,,,,,,,,,1035.2387630000012,1035.244021999999,1035.244021999999,1035.244021999999,1038.2436283999996,1038.2436283999996,1038.2436283999996,1038.2274434000137,shoe,f,1.7450772000011057,0.17600140001741238,1038.2274878000026,1038.2275003000104,None,,,,,,,,,,,,,,00040,001,2026-01-17_15h03.47.022,MST_task,2024.2.0,60.01820952368501,2026-01-17 15h04.11.938514 +0530,
,Objects\039a.jpg,82,0,83,,,,,,,f,2.548627400014084,0.1840033000044059,None,,,,,,83,0,82,1038.2436283999996,,,,,,,,,,,,,,,,,,,,,,,1038.2275658000144,1038.2436283999996,1038.7437379000185,1038.7270062000025,,,,,,,,,,,,,,,,,,,,,,,,,,1038.7298020000162,1038.7437379000185,1038.7437379000185,1038.7437379000185,1041.7434874000028,1041.7434874000028,1041.7434874000028,1041.7273557000153,shoe,f,2.548627400014084,0.1840033000044059,1041.7273978000158,1041.7274102000229,None,,,,,,,,,,,,,,00040,001,2026-01-17_15h03.47.022,MST_task,2024.2.0,60.01820952368501,2026-01-17 15h04.11.938514 +0530,
,Objects\040a.jpg,83,0,84,,,,,,,f,1.7931741999927908,0.15997019998030737,None,,,,,,84,0,83,1041.7434874000028,,,,,,,,,,,,,,,,,,,,,,,1041.727510800003,1041.7434874000028,1042.2437054000038,1042.2270148000098,,,,,,,,,,,,,,,,,,,,,,,,,,1042.2295715000073,1042.2437054000038,1042.2437054000038,1042.2437054000038,1045.2436094000004,1045.2436094000004,1045.2436094000004,1045.2273840999987,shoe,f,1.7931741999927908,0.15997019998030737,1045.2274256000237,1045.227437900001,None,,,,,,,,,,,,,,00040,001,2026-01-17_15h03.47.022,MST_task,2024.2.0,60.01820952368501,2026-01-17 15h04.11.938514 +0530,
,Objects\002a.jpg,84,0,85,,,,,,,j,1.892960099998163,0.17703099999926053,None,,,,,,85,0,84,1045.2436094000004,,,,,,,,,,,,,,,,,,,,,,,1045.2275032000034,1045.2436094000004,1045.7437734999985,1045.7271176000067,,,,,,,,,,,,,,,,,,,,,,,,,,1045.7314203999995,1045.7437734999985,1045.7437734999985,1045.7437734999985,1048.7434817000176,1048.7434817000176,1048.7434817000176,1048.727533600002,indoor,j,1.892960099998163,0.17703099999926053,1048.7292149999994,1048.7292325000162,None,,,,,,,,,,,,,,00040,001,2026-01-17_15h03.47.022,MST_task,2024.2.0,60.01820952368501,2026-01-17 15h04.11.938514 +0530,
,Objects\237a.jpg,85,0,86,,,,,,,None,,,f,0.6493453000148293,None,,,,86,0,85,1048.7434817000176,,,,,,,,,,,,,,,,,,,,,,,1048.729299700004,1048.7434817000176,1049.2440337000007,1049.2270503000182,,,,,,,,,,,,,,,,,,,,,,,,,,1049.2306606000056,1049.2440337000007,1049.2440337000007,1049.2440337000007,1052.2435551000235,1052.2435551000235,1052.2435551000235,1052.2276351000182,indoor,None,,,1052.227677500021,1052.8939922999998,f,1052.2435551000235,1052.2435551000235,0.6493453000148293,None,,,,,,,,,,00040,001,2026-01-17_15h03.47.022,MST_task,2024.2.0,60.01820952368501,2026-01-17 15h04.11.938514 +0530,
,Objects\235a.jpg,86,0,87,,,,,,,j,1.9784359999757726,0.16796890000114217,None,,,,,,87,0,86,1052.9101742000203,,,,,,,,,,,,,,,,,,,,,,,1052.8940799999982,1052.9101742000203,1053.410641000024,1053.3940056000138,,,,,,,,,,,,,,,,,,,,,,,,,,1053.3973999000154,1053.410641000024,1053.410641000024,1053.410641000024,1056.4102181000053,1056.4102181000053,1056.4102181000053,1056.3939992000232,indoor,j,1.9784359999757726,0.16796890000114217,1056.394039900013,1056.3940520000178,None,,,,,,,,,,,,,,00040,001,2026-01-17_15h03.47.022,MST_task,2024.2.0,60.01820952368501,2026-01-17 15h04.11.938514 +0530,
,Objects\212a.jpg,87,0,88,,,,,,,j,0.9983801000053063,0.17706709998310544,None,,,,,,88,0,87,1056.4102181000053,,,,,,,,,,,,,,,,,,,,,,,1056.394114499999,1056.4102181000053,1056.9105742000102,1056.893804100022,,,,,,,,,,,,,,,,,,,,,,,,,,1056.8969758000167,1056.9105742000102,1056.9105742000102,1056.9105742000102,1059.9101807000116,1059.9101807000116,1059.9101807000116,1059.8941554000194,indoor,j,0.9983801000053063,0.17706709998310544,1059.89419620001,1059.8942077000102,None,,,,,,,,,,,,,,00040,001,2026-01-17_15h03.47.022,MST_task,2024.2.0,60.01820952368501,2026-01-17 15h04.11.938514 +0530,
,Objects\273a.jpg,88,0,89,,,,,,,j,0.9624317999987397,0.1681426000141073,None,,,,,,89,0,88,1059.9101807000116,,,,,,,,,,,,,,,,,,,,,,,1059.8942718000035,1059.9101807000116,1060.4106355000113,1060.3937984000077,,,,,,,,,,,,,,,,,,,,,,,,,,1060.3970305000257,1060.4106355000113,1060.4106355000113,1060.4106355000113,1063.4102193000144,1063.4102193000144,1063.4102193000144,1063.3940911000245,indoor,j,0.9624317999987397,0.1681426000141073,1063.3941313000105,1063.394143100013,None,,,,,,,,,,,,,,00040,001,2026-01-17_15h03.47.022,MST_task,2024.2.0,60.01820952368501,2026-01-17 15h04.11.938514 +0530,
,Objects\022a.jpg,89,0,90,,,,,,,f,1.3262003000127152,0.16825419999076985,None,,,,,,90,0,89,1063.4102193000144,,,,,,,,,,,,,,,,,,,,,,,1063.3942062999995,1063.4102193000144,1063.9104659000004,1063.8938794000132,,,,,,,,,,,,,,,,,,,,,,,,,,1063.8965352000087,1063.9104659000004,1063.9104659000004,1063.9104659000004,1066.9102525000053,1066.9102525000053,1066.9102525000053,1066.8943295000063,indoor,f,1.3262003000127152,0.16825419999076985,1066.8943758000096,1066.8943884000182,None,,,,,,,,,,,,,,00040,001,2026-01-17_15h03.47.022,MST_task,2024.2.0,60.01820952368501,2026-01-17 15h04.11.938514 +0530,
,Objects\325a.jpg,90,0,91,,,,,,,f,2.0822645999724045,0.1599500000011176,None,,,,,,91,0,90,1066.9102525000053,,,,,,,,,,,,,,,,,,,,,,,1066.8944562000106,1066.9102525000053,1067.4106557000196,1067.393822300015,,,,,,,,,,,,,,,,,,,,,,,,,,1067.3969551000046,1067.4106557000196,1067.4106557000196,1067.4106557000196,1070.4102152000123,1070.4102152000123,1070.4102152000123,1070.3940231000015,indoor,f,2.0822645999724045,0.1599500000011176,1070.3940695000056,1070.3940816000104,None,,,,,,,,,,,,,,00040,001,2026-01-17_15h03.47.022,MST_task,2024.2.0,60.01820952368501,2026-01-17 15h04.11.938514 +0530,
,Objects\046a.jpg,91,0,92,,,,,,,f,1.758425999985775,0.1679339000256732,None,,,,,,92,0,91,1070.4102152000123,,,,,,,,,,,,,,,,,,,,,,,1070.3941462000075,1070.4102152000123,1070.91066340002,1070.8938879000198,,,,,,,,,,,,,,,,,,,,,,,,,,1070.898863200011,1070.91066340002,1070.91066340002,1070.91066340002,1073.9101662000176,1073.9101662000176,1073.9101662000176,1073.8941164000134,shoe,f,1.758425999985775,0.1679339000256732,1073.8962343000167,1073.8962513000006,None,,,,,,,,,,,,,,00040,001,2026-01-17_15h03.47.022,MST_task,2024.2.0,60.01820952368501,2026-01-17 15h04.11.938514 +0530,
,Objects\099a.jpg,92,0,93,,,,,,,j,1.76223559997743,0.16802110002026893,None,,,,,,93,0,92,1073.9101662000176,,,,,,,,,,,,,,,,,,,,,,,1073.8963213000097,1073.9101662000176,1074.410456600017,1074.3938390000258,,,,,,,,,,,,,,,,,,,,,,,,,,1074.3967913000088,1074.410456600017,1074.410456600017,1074.410456600017,1077.410214500007,1077.410214500007,1077.410214500007,1077.3940589000122,shoe,j,1.76223559997743,0.16802110002026893,1077.3941015000164,1077.394113300019,None,,,,,,,,,,,,,,00040,001,2026-01-17_15h03.47.022,MST_task,2024.2.0,60.01820952368501,2026-01-17 15h04.11.938514 +0530,
,Objects\355a.jpg,93,0,94,,,,,,,f,2.1102226999937557,0.16021620001993142,None,,,,,,94,0,93,1077.410214500007,,,,,,,,,,,,,,,,,,,,,,,1077.3941776000138,1077.410214500007,1077.9106201000104,1077.8938938000065,,,,,,,,,,,,,,,,,,,,,,,,,,1077.8968399000005,1077.9106201000104,1077.9106201000104,1077.9106201000104,1080.9103371000092,1080.9103371000092,1080.9103371000092,1080.8941109000007,shoe,f,2.1102226999937557,0.16021620001993142,1080.894152200024,1080.8941636000236,None,,,,,,,,,,,,,,00040,001,2026-01-17_15h03.47.022,MST_task,2024.2.0,60.01820952368501,2026-01-17 15h04.11.938514 +0530,
,Objects\366a.jpg,94,0,95,,,,,,,f,2.8176502999849617,None,None,,,,,,95,0,94,1080.9103371000092,,,,,,,,,,,,,,,,,,,,,,,1080.8942273000139,1080.9103371000092,1081.410779800004,1081.3941563999979,,,,,,,,,,,,,,,,,,,,,,,,,,1081.3974664999987,1081.410779800004,1081.410779800004,1081.410779800004,1084.410431299999,1084.410431299999,1084.410431299999,1084.3943332000053,shoe,f,2.8176502999849617,None,1084.3943746000004,1084.3943871000083,None,,,,,,,,,,,,,,00040,001,2026-01-17_15h03.47.022,MST_task,2024.2.0,60.01820952368501,2026-01-17 15h04.11.938514 +0530,
,Objects\014a.jpg,95,0,96,,,,,,,f,1.0070440999988932,0.14391269997577183,None,,,,,,96,0,95,1084.410431299999,,,,,,,,,,,,,,,,,,,,,,,1084.3944557000068,1084.410431299999,1084.9105423,1084.8940020000155,,,,,,,,,,,,,,,,,,,,,,,,,,1084.8968442000041,1084.9105423,1084.9105423,1084.9105423,1087.910352100007,1087.910352100007,1087.910352100007,1087.894112000009,shoe,f,1.0070440999988932,0.14391269997577183,1087.8941542000102,1087.894165900012,None,,,,,,,,,,,,,,00040,001,2026-01-17_15h03.47.022,MST_task,2024.2.0,60.01820952368501,2026-01-17 15h04.11.938514 +0530,
,Objects\222a.jpg,96,0,97,,,,,,,j,1.3617949000035878,0.17573710001306608,None,,,,,,97,0,96,1087.910352100007,,,,,,,,,,,,,,,,,,,,,,,1087.894260800007,1087.910352100007,1088.4108946000051,1088.3938817000017,,,,,,,,,,,,,,,,,,,,,,,,,,1088.4053538000153,1088.4108946000051,1088.4108946000051,1088.4108946000051,1091.4103278000257,1091.4103278000257,1091.4103278000257,1091.3942411000025,shoe,j,1.3617949000035878,0.17573710001306608,1091.3943014000251,1091.394315100013,None,,,,,,,,,,,,,,00040,001,2026-01-17_15h03.47.022,MST_task,2024.2.0,60.01820952368501,2026-01-17 15h04.11.938514 +0530,
,Objects\079a.jpg,97,0,98,,,,,,,j,1.598042900004657,0.2000011999916751,None,,,,,,98,0,97,1091.4103278000257,,,,,,,,,,,,,,,,,,,,,,,1091.3943793000071,1091.4103278000257,1091.9106890000112,1091.893865800026,,,,,,,,,,,,,,,,,,,,,,,,,,1091.8973912000074,1091.9106890000112,1091.9106890000112,1091.9106890000112,1094.910348400008,1094.910348400008,1094.910348400008,1094.8942030000035,shoe,j,1.598042900004657,0.2000011999916751,1094.8942454000062,1094.8942570000072,None,,,,,,,,,,,,,,00040,001,2026-01-17_15h03.47.022,MST_task,2024.2.0,60.01820952368501,2026-01-17 15h04.11.938514 +0530,
,Objects\166a.jpg,98,0,99,,,,,,,j,1.7065310000034515,0.18395299999974668,None,,,,,,99,0,98,1094.910348400008,,,,,,,,,,,,,,,,,,,,,,,1094.8943517000007,1094.910348400008,1095.4105474000098,1095.3940260000236,,,,,,,,,,,,,,,,,,,,,,,,,,1095.405121400021,1095.4105474000098,1095.4105474000098,1095.4105474000098,1098.4103461000195,1098.4103461000195,1098.4103461000195,1098.3943667999993,indoor,j,1.7065310000034515,0.18395299999974668,1098.3959497000033,1098.3959662000125,None,,,,,,,,,,,,,,00040,001,2026-01-17_15h03.47.022,MST_task,2024.2.0,60.01820952368501,2026-01-17 15h04.11.938514 +0530,
,Objects\367a.jpg,99,0,100,,,,,,,f,1.3662860000040382,0.1686811999825295,None,,,,,,100,0,99,1098.4103461000195,,,,,,,,,,,,,,,,,,,,,,,1098.3960341000056,1098.4103461000195,1098.9106673000206,1098.8939567000198,,,,,,,,,,,,,,,,,,,,,,,,,,1098.896593100013,1098.9106673000206,1098.9106673000206,1098.9106673000206,1101.9102741000243,1101.9102741000243,1101.9102741000243,1101.8942688000097,indoor,f,1.3662860000040382,0.1686811999825295,1101.8943090000248,1101.8943203000235,None,,,,,,,,,,,,,,00040,001,2026-01-17_15h03.47.022,MST_task,2024.2.0,60.01820952368501,2026-01-17 15h04.11.938514 +0530,
,Objects\275a.jpg,100,0,101,,,,,,,j,1.0016545999969821,0.17677829999593087,None,,,,,,101,0,100,1101.9102741000243,,,,,,,,,,,,,,,,,,,,,,,1101.8943844000169,1101.9102741000243,1102.4107503000123,1102.3939269000257,,,,,,,,,,,,,,,,,,,,,,,,,,1102.3975516000064,1102.4107503000123,1102.4107503000123,1102.4107503000123,1105.410537000018,1105.410537000018,1105.410537000018,1105.3944783000043,indoor,j,1.0016545999969821,0.17677829999593087,1105.394520700007,1105.3945324000088,None,,,,,,,,,,,,,,00040,001,2026-01-17_15h03.47.022,MST_task,2024.2.0,60.01820952368501,2026-01-17 15h04.11.938514 +0530,
,Objects\264a.jpg,101,0,102,,,,,,,j,1.2541052000015043,0.16796000002068467,None,,,,,,102,0,101,1105.410537000018,,,,,,,,,,,,,,,,,,,,,,,1105.3945971000066,1105.410537000018,1105.9105459999992,1105.893913900014,,,,,,,,,,,,,,,,,,,,,,,,,,1105.8964520000154,1105.9105459999992,1105.9105459999992,1105.9105459999992,1108.9103222000122,1108.9103222000122,1108.9103222000122,1108.8943434000248,indoor,j,1.2541052000015043,0.16796000002068467,1108.8943877000129,1108.8943998000177,None,,,,,,,,,,,,,,00040,001,2026-01-17_15h03.47.022,MST_task,2024.2.0,60.01820952368501,2026-01-17 15h04.11.938514 +0530,
,Objects\048a.jpg,102,0,103,,,,,,,j,0.9705729999986943,0.1518948000157252,None,,,,,,103,0,102,1108.9103222000122,,,,,,,,,,,,,,,,,,,,,,,1108.894465600024,1108.9103222000122,1109.4107403000235,1109.3938710000075,,,,,,,,,,,,,,,,,,,,,,,,,,1109.3973200000182,1109.4107403000235,1109.4107403000235,1109.4107403000235,1112.410314000008,1112.410314000008,1112.410314000008,1112.3943252000026,indoor,j,0.9705729999986943,0.1518948000157252,1112.3943660000223,1112.3943778000248,None,,,,,,,,,,,,,,00040,001,2026-01-17_15h03.47.022,MST_task,2024.2.0,60.01820952368501,2026-01-17 15h04.11.938514 +0530,
,Objects\382a.jpg,103,0,104,,,,,,,j,1.8545459999877494,0.1671241000003647,None,,,,,,104,0,103,1112.410314000008,,,,,,,,,,,,,,,,,,,,,,,1112.3944432999997,1112.410314000008,1112.9106102000223,1112.8938523000106,,,,,,,,,,,,,,,,,,,,,,,,,,1112.9040345000103,1112.9106102000223,1112.9106102000223,1112.9106102000223,1115.91026840001,1115.91026840001,1115.91026840001,1115.894225199998,indoor,j,1.8545459999877494,0.1671241000003647,1115.8942656000145,1115.8942769000132,None,,,,,,,,,,,,,,00040,001,2026-01-17_15h03.47.022,MST_task,2024.2.0,60.01820952368501,2026-01-17 15h04.11.938514 +0530,
,Objects\064a.jpg,104,0,105,,,,,,,j,1.2498923000239301,0.16065229999367148,None,,,,,,105,0,104,1115.91026840001,,,,,,,,,,,,,,,,,,,,,,,1115.8943410000065,1115.91026840001,1116.410745900008,1116.3939573000243,,,,,,,,,,,,,,,,,,,,,,,,,,1116.3969563000137,1116.410745900008,1116.410745900008,1116.410745900008,1119.410220700025,1119.410220700025,1119.410220700025,1119.394250500016,indoor,j,1.2498923000239301,0.16065229999367148,1119.3942921000125,1119.394303900015,None,,,,,,,,,,,,,,00040,001,2026-01-17_15h03.47.022,MST_task,2024.2.0,60.01820952368501,2026-01-17 15h04.11.938514 +0530,
,Objects\363a.jpg,105,0,106,,,,,,,f,1.7178644000086933,0.1758348000003025,None,,,,,,106,0,105,1119.410220700025,,,,,,,,,,,,,,,,,,,,,,,1119.394370300026,1119.410220700025,1119.910581700009,1119.8939319000056,,,,,,,,,,,,,,,,,,,,,,,,,,1119.8987524000113,1119.910581700009,1119.910581700009,1119.910581700009,1122.910281700024,1122.910281700024,1122.910281700024,1122.8942344000097,shoe,f,1.7178644000086933,0.1758348000003025,1122.8963756000157,1122.896393300005,None,,,,,,,,,,,,,,00040,001,2026-01-17_15h03.47.022,MST_task,2024.2.0,60.01820952368501,2026-01-17 15h04.11.938514 +0530,
,Objects\260a.jpg,106,0,107,,,,,,,f,1.458511200005887,0.18330790000618435,None,,,,,,107,0,106,1122.910281700024,,,,,,,,,,,,,,,,,,,,,,,1122.8964623000065,1122.910281700024,1123.4107212000235,1123.393828900007,,,,,,,,,,,,,,,,,,,,,,,,,,1123.397042000026,1123.4107212000235,1123.4107212000235,1123.4107212000235,1126.410340100003,1126.410340100003,1126.410340100003,1126.394110000023,shoe,f,1.458511200005887,0.18330790000618435,1126.3941507000127,1126.3941620000114,None,,,,,,,,,,,,,,00040,001,2026-01-17_15h03.47.022,MST_task,2024.2.0,60.01820952368501,2026-01-17 15h04.11.938514 +0530,
,Objects\091a.jpg,107,0,108,,,,,,,j,1.5984801000158768,0.17591170000378042,None,,,,,,108,0,107,1126.410340100003,,,,,,,,,,,,,,,,,,,,,,,1126.3942251000262,1126.410340100003,1126.910676600004,1126.8939000000246,,,,,,,,,,,,,,,,,,,,,,,,,,1126.8970659000042,1126.910676600004,1126.910676600004,1126.910676600004,1129.9103508999979,1129.9103508999979,1129.9103508999979,1129.8941063000239,shoe,j,1.5984801000158768,0.17591170000378042,1129.8941475000174,1129.8941596000222,None,,,,,,,,,,,,,,00040,001,2026-01-17_15h03.47.022,MST_task,2024.2.0,60.01820952368501,2026-01-17 15h04.11.938514 +0530,
,Objects\051a.jpg,108,0,109,,,,,,,j,2.226013100007549,0.1840004000114277,None,,,,,,109,0,108,1129.9103508999979,,,,,,,,,,,,,,,,,,,,,,,1129.8942551000218,1129.9103508999979,1130.4104929000023,1130.3939134000102,,,,,,,,,,,,,,,,,,,,,,,,,,1130.4037537000258,1130.4104929000023,1130.4104929000023,1130.4104929000023,1133.41042510001,1133.41042510001,1133.41042510001,1133.3941998000082,shoe,j,2.226013100007549,0.1840004000114277,1133.394240100024,1133.3942521999998,None,,,,,,,,,,,,,,00040,001,2026-01-17_15h03.47.022,MST_task,2024.2.0,60.01820952368501,2026-01-17 15h04.11.938514 +0530,
,Objects\296a.jpg,109,0,110,,,,,,,j,1.5582284999836702,0.15944519999902695,None,,,,,,110,0,109,1133.41042510001,,,,,,,,,,,,,,,,,,,,,,,1133.3943175000022,1133.41042510001,1133.9107624000171,1133.8939199000015,,,,,,,,,,,,,,,,,,,,,,,,,,1133.8971143000235,1133.9107624000171,1133.9107624000171,1133.9107624000171,1136.9103680000117,1136.9103680000117,1136.9103680000117,1136.8942017000227,shoe,j,1.5582284999836702,0.15944519999902695,1136.8942442000262,1136.8942561000003,None,,,,,,,,,,,,,,00040,001,2026-01-17_15h03.47.022,MST_task,2024.2.0,60.01820952368501,2026-01-17 15h04.11.938514 +0530,
,Objects\341a.jpg,110,0,111,,,,,,,None,,,f,0.6590611000137869,None,,,,111,0,110,1136.9103680000117,,,,,,,,,,,,,,,,,,,,,,,1136.8943192000152,1136.9103680000117,1137.410709400021,1137.3941075000039,,,,,,,,,,,,,,,,,,,,,,,,,,1137.3975396000023,1137.410709400021,1137.410709400021,1137.410709400021,1140.410200800019,1140.410200800019,1140.410200800019,1140.3941579000093,shoe,None,,,1140.39419620001,1141.0772043000034,f,1140.410200800019,1140.410200800019,0.6590611000137869,None,,,,,,,,,,00040,001,2026-01-17_15h03.47.022,MST_task,2024.2.0,60.01820952368501,2026-01-17 15h04.11.938514 +0530,
,Objects\129a.jpg,111,0,112,,,,,,,f,1.915241100010462,0.16760419998900034,None,,,,,,112,0,111,1141.0936793000146,,,,,,,,,,,,,,,,,,,,,,,1141.0772968000092,1141.0936793000146,1141.5937502000015,1141.577076400019,,,,,,,,,,,,,,,,,,,,,,,,,,1141.5867107000086,1141.5937502000015,1141.5937502000015,1141.5937502000015,1144.5935800000152,1144.5935800000152,1144.5935800000152,1144.577355800022,shoe,f,1.915241100010462,0.16760419998900034,1144.577398000023,1144.577410400001,None,,,,,,,,,,,,,,00040,001,2026-01-17_15h03.47.022,MST_task,2024.2.0,60.01820952368501,2026-01-17 15h04.11.938514 +0530,
,Objects\153a.jpg,112,0,113,,,,,,,f,1.8308893000066746,0.16061309998622164,None,,,,,,113,0,112,1144.5935800000152,,,,,,,,,,,,,,,,,,,,,,,1144.57750460002,1144.5935800000152,1145.0937845000008,1145.0771317000035,,,,,,,,,,,,,,,,,,,,,,,,,,1145.0814990000217,1145.0937845000008,1145.0937845000008,1145.0937845000008,1148.093612000026,1148.093612000026,1148.093612000026,1148.0777233000263,indoor,f,1.8308893000066746,0.16061309998622164,1148.079617600015,1148.0796368000156,None,,,,,,,,,,,,,,00040,001,2026-01-17_15h03.47.022,MST_task,2024.2.0,60.01820952368501,2026-01-17 15h04.11.938514 +0530,
,Objects\253a.jpg,113,0,114,,,,,,,f,0.9386001999955624,0.15198370002326556,None,,,,,,114,0,113,1148.093612000026,,,,,,,,,,,,,,,,,,,,,,,1148.0797189000004,1148.093612000026,1148.5937860000122,1148.5774129000201,,,,,,,,,,,,,,,,,,,,,,,,,,1148.5797281000123,1148.5937860000122,1148.5937860000122,1148.5937860000122,1151.5935757000116,1151.5935757000116,1151.5935757000116,1151.577342500008,indoor,f,0.9386001999955624,0.15198370002326556,1151.5773837000015,1151.5773960000079,None,,,,,,,,,,,,,,00040,001,2026-01-17_15h03.47.022,MST_task,2024.2.0,60.01820952368501,2026-01-17 15h04.11.938514 +0530,
,Objects\202a.jpg,114,0,115,,,,,,,j,0.9192527999985032,0.1912534000002779,None,,,,,,115,0,114,1151.5935757000116,,,,,,,,,,,,,,,,,,,,,,,1151.5774583000166,1151.5935757000116,1152.094002800004,1152.0770410000114,,,,,,,,,,,,,,,,,,,,,,,,,,1152.0800484000065,1152.094002800004,1152.094002800004,1152.094002800004,1155.0936024000112,1155.0936024000112,1155.0936024000112,1155.0773629000178,indoor,j,0.9192527999985032,0.1912534000002779,1155.0774039000098,1155.0774153000093,None,,,,,,,,,,,,,,00040,001,2026-01-17_15h03.47.022,MST_task,2024.2.0,60.01820952368501,2026-01-17 15h04.11.938514 +0530,
,Objects\187a.jpg,115,0,116,,,,,,,None,,,j,1.2435069999773987,None,,,,116,0,115,1155.0936024000112,,,,,,,,,,,,,,,,,,,,,,,1155.077478799998,1155.0936024000112,1155.593993700022,1155.5770290000073,,,,,,,,,,,,,,,,,,,,,,,,,,1155.5800600000075,1155.593993700022,1155.593993700022,1155.593993700022,1158.5935271000199,1158.5935271000199,1158.5935271000199,1158.577393500018,indoor,None,,,1158.57743200002,1159.8443977000134,j,1158.5935271000199,1158.5935271000199,1.2435069999773987,None,,,,,,,,,,00040,001,2026-01-17_15h03.47.022,MST_task,2024.2.0,60.01820952368501,2026-01-17 15h04.11.938514 +0530,
,Objects\172a.jpg,116,0,117,,,,,,,j,1.1486294000060298,0.14399589999811724,None,,,,,,117,0,116,1159.8602272999997,,,,,,,,,,,,,,,,,,,,,,,1159.8444933000137,1159.8602272999997,1160.3604204000148,1160.3438026000222,,,,,,,,,,,,,,,,,,,,,,,,,,1160.355026300007,1160.3604204000148,1160.3604204000148,1160.3604204000148,1163.3602500999987,1163.3602500999987,1163.3602500999987,1163.3441694000212,indoor,j,1.1486294000060298,0.14399589999811724,1163.3442115000216,1163.3442240000004,None,,,,,,,,,,,,,,00040,001,2026-01-17_15h03.47.022,MST_task,2024.2.0,60.01820952368501,2026-01-17 15h04.11.938514 +0530,
,Objects\206a.jpg,117,0,118,,,,,,,j,1.128449300013017,0.1600025999941863,None,,,,,,118,0,117,1163.3602500999987,,,,,,,,,,,,,,,,,,,,,,,1163.344287600019,1163.3602500999987,1163.8606488000078,1163.843829200021,,,,,,,,,,,,,,,,,,,,,,,,,,1163.8540894000034,1163.8606488000078,1163.8606488000078,1163.8606488000078,1166.8602253000136,1166.8602253000136,1166.8602253000136,1166.8443305000255,indoor,j,1.128449300013017,0.1600025999941863,1166.8443756000197,1166.8443873000215,None,,,,,,,,,,,,,,00040,001,2026-01-17_15h03.47.022,MST_task,2024.2.0,60.01820952368501,2026-01-17 15h04.11.938514 +0530,
,Objects\248a.jpg,118,0,119,,,,,,,f,1.8205756999959704,0.17605159999220632,None,,,,,,119,0,118,1166.8602253000136,,,,,,,,,,,,,,,,,,,,,,,1166.8444551000139,1166.8602253000136,1167.3606240000227,1167.3438430000097,,,,,,,,,,,,,,,,,,,,,,,,,,1167.3560381999996,1167.3606240000227,1167.3606240000227,1167.3606240000227,1170.360229300015,1170.360229300015,1170.360229300015,1170.3442174000083,indoor,f,1.8205756999959704,0.17605159999220632,1170.3442606000172,1170.3442725000205,None,,,,,,,,,,,,,,00040,001,2026-01-17_15h03.47.022,MST_task,2024.2.0,60.01820952368501,2026-01-17 15h04.11.938514 +0530,
,Objects\282a.jpg,119,0,120,,,,,,,j,1.7997491999994963,0.17596720001893118,None,,,,,,120,0,119,1170.360229300015,,,,,,,,,,,,,,,,,,,,,,,1170.3443393000052,1170.360229300015,1170.8607213000068,1170.8437847000023,,,,,,,,,,,,,,,,,,,,,,,,,,1170.849819200026,1170.8607213000068,1170.8607213000068,1170.8607213000068,1173.8603371000208,1173.8603371000208,1173.8603371000208,1173.8442620999995,shoe,j,1.7997491999994963,0.17596720001893118,1173.8464787999983,1173.8464970000205,None,,,,,,,,,,,,,,00040,001,2026-01-17_15h03.47.022,MST_task,2024.2.0,60.01820952368501,2026-01-17 15h04.11.938514 +0530,
,Objects\095a.jpg,120,0,121,,,,,,,f,1.4519734000205062,0.1679946999938693,None,,,,,,121,0,120,1173.8603371000208,,,,,,,,,,,,,,,,,,,,,,,1173.8465710000019,1173.8603371000208,1174.3604870999989,1174.3438237000082,,,,,,,,,,,,,,,,,,,,,,,,,,1174.3471681000083,1174.3604870999989,1174.3604870999989,1174.3604870999989,1177.3602384999976,1177.3602384999976,1177.3602384999976,1177.344123500021,shoe,f,1.4519734000205062,0.1679946999938693,1177.3441669000022,1177.3441789000062,None,,,,,,,,,,,,,,00040,001,2026-01-17_15h03.47.022,MST_task,2024.2.0,60.01820952368501,2026-01-17 15h04.11.938514 +0530,
,Objects\174a.jpg,121,0,122,,,,,,,j,2.512479600001825,0.18398820000584237,None,,,,,,122,0,121,1177.3602384999976,,,,,,,,,,,,,,,,,,,,,,,1177.3442758000165,1177.3602384999976,1177.8604665000166,1177.8438932000136,,,,,,,,,,,,,,,,,,,,,,,,,,1177.8463381000038,1177.8604665000166,1177.8604665000166,1177.8604665000166,1180.8602451000188,1180.8602451000188,1180.8602451000188,1180.8444237000076,shoe,j,2.512479600001825,0.18398820000584237,1180.844470400014,1180.8444839000003,None,,,,,,,,,,,,,,00040,001,2026-01-17_15h03.47.022,MST_task,2024.2.0,60.01820952368501,2026-01-17 15h04.11.938514 +0530,
,Objects\058a.jpg,122,0,123,,,,,,,f,1.7078034000005573,0.17592310000327416,None,,,,,,123,0,122,1180.8602451000188,,,,,,,,,,,,,,,,,,,,,,,1180.8446042000141,1180.8602451000188,1181.3604926000116,1181.3442539000243,,,,,,,,,,,,,,,,,,,,,,,,,,1181.3537627000187,1181.3604926000116,1181.3604926000116,1181.3604926000116,1184.3607502000232,1184.3607502000232,1184.3607502000232,1184.344326600025,shoe,f,1.7078034000005573,0.17592310000327416,1184.344373800006,1184.344386700017,None,,,,,,,,,,,,,,00040,001,2026-01-17_15h03.47.022,MST_task,2024.2.0,60.01820952368501,2026-01-17 15h04.11.938514 +0530,
,Objects\368a.jpg,123,0,124,,,,,,,f,1.2563592999940738,0.16800599999260157,None,,,,,,124,0,123,1184.3607502000232,,,,,,,,,,,,,,,,,,,,,,,1184.3444541000063,1184.3607502000232,1184.8606105000072,1184.8438276000088,,,,,,,,,,,,,,,,,,,,,,,,,,1184.8532501000154,1184.8606105000072,1184.8606105000072,1184.8606105000072,1187.8602274000004,1187.8602274000004,1187.8602274000004,1187.84436800002,shoe,f,1.2563592999940738,0.16800599999260157,1187.8444170000148,1187.844430199999,None,,,,,,,,,,,,,,00040,001,2026-01-17_15h03.47.022,MST_task,2024.2.0,60.01820952368501,2026-01-17 15h04.11.938514 +0530,
,Objects\251a.jpg,124,0,125,,,,,,,f,0.9407000000064727,0.15195430000312626,None,,,,,,125,0,124,1187.8602274000004,,,,,,,,,,,,,,,,,,,,,,,1187.8444993000012,1187.8602274000004,1188.360571199999,1188.3439314000134,,,,,,,,,,,,,,,,,,,,,,,,,,1188.3467398000066,1188.360571199999,1188.360571199999,1188.360571199999,1191.3602603000181,1191.3602603000181,1191.3602603000181,1191.344141700014,shoe,f,0.9407000000064727,0.15195430000312626,1191.344183600013,1191.344195600017,None,,,,,,,,,,,,,,00040,001,2026-01-17_15h03.47.022,MST_task,2024.2.0,60.01820952368501,2026-01-17 15h04.11.938514 +0530,
,Objects\168a.jpg,125,0,126,,,,,,,f,2.504898699990008,0.1755252000002656,None,,,,,,126,0,125,1191.3602603000181,,,,,,,,,,,,,,,,,,,,,,,1191.3442600000126,1191.3602603000181,1191.8605996000115,1191.8438038000022,,,,,,,,,,,,,,,,,,,,,,,,,,1191.8470145000028,1191.8605996000115,1191.8605996000115,1191.8605996000115,1194.8603801999998,1194.8603801999998,1194.8603801999998,1194.8445448999992,shoe,f,2.504898699990008,0.1755252000002656,1194.8446019000257,1194.844616700022,None,,,,,,,,,,,,,,00040,001,2026-01-17_15h03.47.022,MST_task,2024.2.0,60.01820952368501,2026-01-17 15h04.11.938514 +0530,
,Objects\131a.jpg,126,0,127,,,,,,,j,2.1803975999937393,0.16801850000047125,None,,,,,,127,0,126,1194.8603801999998,,,,,,,,,,,,,,,,,,,,,,,1194.8447388000204,1194.8603801999998,1195.3604913000017,1195.3438298000256,,,,,,,,,,,,,,,,,,,,,,,,,,1195.348280300008,1195.3604913000017,1195.3604913000017,1195.3604913000017,1198.3601934000035,1198.3601934000035,1198.3601934000035,1198.3448211000068,indoor,j,2.1803975999937393,0.16801850000047125,1198.3464817000204,1198.346500500018,None,,,,,,,,,,,,,,00040,001,2026-01-17_15h03.47.022,MST_task,2024.2.0,60.01820952368501,2026-01-17 15h04.11.938514 +0530,
,Objects\243a.jpg,127,0,128,,,,,,,j,2.4397360000002664,0.17600350000429899,None,,,,,,128,0,127,1198.3601934000035,,,,,,,,,,,,,,,,,,,,,,,1198.3465694000188,1198.3601934000035,1198.8606924000196,1198.8439459000074,,,,,,,,,,,,,,,,,,,,,,,,,,1198.8475159000081,1198.8606924000196,1198.8606924000196,1198.8606924000196,1201.8602440000104,1201.8602440000104,1201.8602440000104,1201.8443169000093,indoor,j,2.4397360000002664,0.17600350000429899,1201.844364700024,1201.844377900008,None,,,,,,,,,,,,,,00040,001,2026-01-17_15h03.47.022,MST_task,2024.2.0,60.01820952368501,2026-01-17 15h04.11.938514 +0530,
,Objects\241a.jpg,128,0,129,,,,,,,f,2.2279327000142075,0.1603457999881357,None,,,,,,129,0,128,1201.8602440000104,,,,,,,,,,,,,,,,,,,,,,,1201.8444450000243,1201.8602440000104,1202.3608036000223,1202.3439733000123,,,,,,,,,,,,,,,,,,,,,,,,,,1202.3538238000183,1202.3608036000223,1202.3608036000223,1202.3608036000223,1205.3603949000244,1205.3603949000244,1205.3603949000244,1205.3441420000163,indoor,f,2.2279327000142075,0.1603457999881357,1205.3441833000106,1205.344195200014,None,,,,,,,,,,,,,,00040,001,2026-01-17_15h03.47.022,MST_task,2024.2.0,60.01820952368501,2026-01-17 15h04.11.938514 +0530,
,Objects\113a.jpg,129,0,130,,,,,,,j,2.032186799973715,0.17600260002654977,None,,,,,,130,0,129,1205.3603949000244,,,,,,,,,,,,,,,,,,,,,,,1205.3442605000164,1205.3603949000244,1205.8606512999977,1205.8439401000214,,,,,,,,,,,,,,,,,,,,,,,,,,1205.8552375000145,1205.8606512999977,1205.8606512999977,1205.8606512999977,1208.8602298000187,1208.8602298000187,1208.8602298000187,1208.8443778000074,indoor,j,2.032186799973715,0.17600260002654977,1208.8444262000266,1208.8444396000123,None,,,,,,,,,,,,,,00040,001,2026-01-17_15h03.47.022,MST_task,2024.2.0,60.01820952368501,2026-01-17 15h04.11.938514 +0530,
,Objects\140a.jpg,130,0,131,,,,,,,j,1.8044206999766175,0.16025500002433546,None,,,,,,131,0,130,1208.8602298000187,,,,,,,,,,,,,,,,,,,,,,,1208.8445121000113,1208.8602298000187,1209.360663600004,1209.3439828000264,,,,,,,,,,,,,,,,,,,,,,,,,,1209.346537400008,1209.360663600004,1209.360663600004,1209.360663600004,1212.360378100013,1212.360378100013,1212.360378100013,1212.3441651000176,indoor,j,1.8044206999766175,0.16025500002433546,1212.3442074000195,1212.344219600025,None,,,,,,,,,,,,,,00040,001,2026-01-17_15h03.47.022,MST_task,2024.2.0,60.01820952368501,2026-01-17 15h04.11.938514 +0530,
,Objects\254a.jpg,131,0,132,,,,,,,j,0.9675593999854755,0.15201210000668652,None,,,,,,132,0,131,1212.360378100013,,,,,,,,,,,,,,,,,,,,,,,1212.344283000013,1212.360378100013,1212.8607362000039,1212.844002400001,,,,,,,,,,,,,,,,,,,,,,,,,,1212.8480959000008,1212.8607362000039,1212.8607362000039,1212.8607362000039,1215.8603848000057,1215.8603848000057,1215.8603848000057,1215.8441677000083,indoor,j,0.9675593999854755,0.15201210000668652,1215.8442140000116,1215.8442270000232,None,,,,,,,,,,,,,,00040,001,2026-01-17_15h03.47.022,MST_task,2024.2.0,60.01820952368501,2026-01-17 15h04.11.938514 +0530,
,Objects\232a.jpg,132,0,133,,,,,,,j,2.5636254999844823,0.16110009999829344,None,,,,,,133,0,132,1215.8603848000057,,,,,,,,,,,,,,,,,,,,,,,1215.844293400005,1215.8603848000057,1216.3608045,1216.3439503000118,,,,,,,,,,,,,,,,,,,,,,,,,,1216.346912100009,1216.3608045,1216.3608045,1216.3608045,1219.3603007000056,1219.3603007000056,1219.3603007000056,1219.3444543000078,indoor,j,2.5636254999844823,0.16110009999829344,1219.344500600011,1219.3445136000228,None,,,,,,,,,,,,,,00040,001,2026-01-17_15h03.47.022,MST_task,2024.2.0,60.01820952368501,2026-01-17 15h04.11.938514 +0530,
,Objects\047a.jpg,133,0,134,,,,,,,f,1.2008967000001576,0.17591920000268146,None,,,,,,134,0,133,1219.3603007000056,,,,,,,,,,,,,,,,,,,,,,,1219.3445866000257,1219.3603007000056,1219.8607803000195,1219.843956800003,,,,,,,,,,,,,,,,,,,,,,,,,,1219.8491836000176,1219.8607803000195,1219.8607803000195,1219.8607803000195,1222.860279400018,1222.860279400018,1222.860279400018,1222.8441752000072,shoe,f,1.2008967000001576,0.17591920000268146,1222.8463338000001,1222.846351300017,None,,,,,,,,,,,,,,00040,001,2026-01-17_15h03.47.022,MST_task,2024.2.0,60.01820952368501,2026-01-17 15h04.11.938514 +0530,
,Objects\069a.jpg,134,0,135,,,,,,,j,1.501039300026605,0.15903999999864027,None,,,,,,135,0,134,1222.860279400018,,,,,,,,,,,,,,,,,,,,,,,1222.846466900024,1222.860279400018,1223.3605920000118,1223.3441781000001,,,,,,,,,,,,,,,,,,,,,,,,,,1223.3470892000187,1223.3605920000118,1223.3605920000118,1223.3605920000118,1226.3603974000143,1226.3603974000143,1226.3603974000143,1226.3441889000242,shoe,j,1.501039300026605,0.15903999999864027,1226.3442298000155,1226.344241600018,None,,,,,,,,,,,,,,00040,001,2026-01-17_15h03.47.022,MST_task,2024.2.0,60.01820952368501,2026-01-17 15h04.11.938514 +0530,
,Objects\005a.jpg,135,0,136,,,,,,,f,1.887695600016741,0.15241749997949228,None,,,,,,136,0,135,1226.3603974000143,,,,,,,,,,,,,,,,,,,,,,,1226.3443356000062,1226.3603974000143,1226.8606232000166,1226.8439524999994,,,,,,,,,,,,,,,,,,,,,,,,,,1226.846462000016,1226.8606232000166,1226.8606232000166,1226.8606232000166,1229.8602585000044,1229.8602585000044,1229.8602585000044,1229.8443847000017,shoe,f,1.887695600016741,0.15241749997949228,1229.8444291000196,1229.8444418,None,,,,,,,,,,,,,,00040,001,2026-01-17_15h03.47.022,MST_task,2024.2.0,60.01820952368501,2026-01-17 15h04.11.938514 +0530,
,Objects\263a.jpg,136,0,137,,,,,,,j,1.8356189000187442,0.16897729999618605,None,,,,,,137,0,136,1229.8602585000044,,,,,,,,,,,,,,,,,,,,,,,1229.8445490000013,1229.8602585000044,1230.360765200021,1230.343926600006,,,,,,,,,,,,,,,,,,,,,,,,,,1230.3473714000138,1230.360765200021,1230.360765200021,1230.360765200021,1233.3603876999987,1233.3603876999987,1233.3603876999987,1233.3442562000128,shoe,j,1.8356189000187442,0.16897729999618605,1233.344296299998,1233.3443081000005,None,,,,,,,,,,,,,,00040,001,2026-01-17_15h03.47.022,MST_task,2024.2.0,60.01820952368501,2026-01-17 15h04.11.938514 +0530,
,Objects\161a.jpg,137,0,138,,,,,,,f,1.0483112999936566,0.17677200000616722,None,,,,,,138,0,137,1233.3603876999987,,,,,,,,,,,,,,,,,,,,,,,1233.3444001000025,1233.3603876999987,1233.8606666999985,1233.8438572000014,,,,,,,,,,,,,,,,,,,,,,,,,,1233.8543020000216,1233.8606666999985,1233.8606666999985,1233.8606666999985,1236.8602982000157,1236.8602982000157,1236.8602982000157,1236.8445399000193,shoe,f,1.0483112999936566,0.17677200000616722,1236.8445924000116,1236.844608400017,None,,,,,,,,,,,,,,00040,001,2026-01-17_15h03.47.022,MST_task,2024.2.0,60.01820952368501,2026-01-17 15h04.11.938514 +0530,
,Objects\292a.jpg,138,0,139,,,,,,,f,1.6036060999904294,0.16110570001183078,None,,,,,,139,0,138,1236.8602982000157,,,,,,,,,,,,,,,,,,,,,,,1236.8446766000125,1236.8602982000157,1237.3608073000214,1237.3439609000052,,,,,,,,,,,,,,,,,,,,,,,,,,1237.3466516000044,1237.3608073000214,1237.3608073000214,1237.3608073000214,1240.3603882000025,1240.3603882000025,1240.3603882000025,1240.3442241000012,shoe,f,1.6036060999904294,0.16110570001183078,1240.3442655000254,1240.344277199998,None,,,,,,,,,,,,,,00040,001,2026-01-17_15h03.47.022,MST_task,2024.2.0,60.01820952368501,2026-01-17 15h04.11.938514 +0530,
,Objects\305a.jpg,139,0,140,,,,,,,f,1.7200852999812923,0.14453799999319017,None,,,,,,140,0,139,1240.3603882000025,,,,,,,,,,,,,,,,,,,,,,,1240.3443423999997,1240.3603882000025,1240.8608311999997,1240.843985900021,,,,,,,,,,,,,,,,,,,,,,,,,,1240.8469878000033,1240.8608311999997,1240.8608311999997,1240.8608311999997,1243.8603137000173,1243.8603137000173,1243.8603137000173,1243.8441565000103,shoe,f,1.7200852999812923,0.14453799999319017,1243.8441982000077,1243.8442094000056,None,,,,,,,,,,,,,,00040,001,2026-01-17_15h03.47.022,MST_task,2024.2.0,60.01820952368501,2026-01-17 15h04.11.938514 +0530,
,Objects\221a.jpg,140,0,141,,,,,,,j,2.1968041000072844,0.1670245999994222,None,,,,,,141,0,140,1243.8603137000173,,,,,,,,,,,,,,,,,,,,,,,1243.844273499999,1243.8603137000173,1244.3606680000084,1244.3439343000064,,,,,,,,,,,,,,,,,,,,,,,,,,1244.3485703000042,1244.3606680000084,1244.3606680000084,1244.3606680000084,1247.3603321000119,1247.3603321000119,1247.3603321000119,1247.3444259000244,indoor,j,2.1968041000072844,0.1670245999994222,1247.3460934000032,1247.346115000022,None,,,,,,,,,,,,,,00040,001,2026-01-17_15h03.47.022,MST_task,2024.2.0,60.01820952368501,2026-01-17 15h04.11.938514 +0530,
,Objects\343a.jpg,141,0,142,,,,,,,j,1.064131199993426,0.15999890002422035,None,,,,,,142,0,141,1247.3603321000119,,,,,,,,,,,,,,,,,,,,,,,1247.3461874000204,1247.3603321000119,1247.860720800003,1247.843980900012,,,,,,,,,,,,,,,,,,,,,,,,,,1247.8461663000053,1247.860720800003,1247.860720800003,1247.860720800003,1250.8602828000148,1250.8602828000148,1250.8602828000148,1250.8442802000209,indoor,j,1.064131199993426,0.15999890002422035,1250.8443229000259,1250.8443349000008,None,,,,,,,,,,,,,,00040,001,2026-01-17_15h03.47.022,MST_task,2024.2.0,60.01820952368501,2026-01-17 15h04.11.938514 +0530,
,Objects\171a.jpg,142,0,143,,,,,,,f,2.292094200005522,0.16099250002298504,None,,,,,,143,0,142,1250.8602828000148,,,,,,,,,,,,,,,,,,,,,,,1250.844410300022,1250.8602828000148,1251.3607331000094,1251.3439901000238,,,,,,,,,,,,,,,,,,,,,,,,,,1251.3540670000075,1251.3607331000094,1251.3607331000094,1251.3607331000094,1254.360414900002,1254.360414900002,1254.360414900002,1254.3441634000046,indoor,f,2.292094200005522,0.16099250002298504,1254.3442091000034,1254.3442212000082,None,,,,,,,,,,,,,,00040,001,2026-01-17_15h03.47.022,MST_task,2024.2.0,60.01820952368501,2026-01-17 15h04.11.938514 +0530,
,Objects\239a.jpg,143,0,144,,,,,,,f,1.5116525000194088,0.15999819998978637,None,,,,,,144,0,143,1254.360414900002,,,,,,,,,,,,,,,,,,,,,,,1254.344285500003,1254.360414900002,1254.860724500002,1254.8439460000081,,,,,,,,,,,,,,,,,,,,,,,,,,1254.8538620000181,1254.860724500002,1254.860724500002,1254.860724500002,1257.8607824000064,1257.8607824000064,1257.8607824000064,1257.8442195000243,indoor,f,1.5116525000194088,0.15999819998978637,1257.844261100021,1257.8442726000212,None,,,,,,,,,,,,,,00040,001,2026-01-17_15h03.47.022,MST_task,2024.2.0,60.01820952368501,2026-01-17 15h04.11.938514 +0530,
,Objects\381a.jpg,144,0,145,,,,,,,f,1.2040605999936815,0.15998850000323728,None,,,,,,145,0,144,1257.8607824000064,,,,,,,,,,,,,,,,,,,,,,,1257.8443359000084,1257.8607824000064,1258.3608372000162,1258.343944000022,,,,,,,,,,,,,,,,,,,,,,,,,,1258.3468073000258,1258.3608372000162,1258.3608372000162,1258.3608372000162,1261.3602325000102,1261.3602325000102,1261.3602325000102,1261.3442230000219,indoor,f,1.2040605999936815,0.15998850000323728,1261.344265200023,1261.344277600001,None,,,,,,,,,,,,,,00040,001,2026-01-17_15h03.47.022,MST_task,2024.2.0,60.01820952368501,2026-01-17 15h04.11.938514 +0530,
,Objects\261a.jpg,145,0,146,,,,,,,j,1.6563136000186205,0.15943899998092093,None,,,,,,146,0,145,1261.3602325000102,,,,,,,,,,,,,,,,,,,,,,,1261.3443416000227,1261.3602325000102,1261.8606626000255,1261.8438447000226,,,,,,,,,,,,,,,,,,,,,,,,,,1261.846674100001,1261.8606626000255,1261.8606626000255,1261.8606626000255,1264.8602879000246,1264.8602879000246,1264.8602879000246,1264.8441946000094,indoor,j,1.6563136000186205,0.15943899998092093,1264.8442378000182,1264.8442502000253,None,,,,,,,,,,,,,,00040,001,2026-01-17_15h03.47.022,MST_task,2024.2.0,60.01820952368501,2026-01-17 15h04.11.938514 +0530,
,Objects\011a.jpg,146,0,147,,,,,,,f,2.4757496000092942,0.1686113000032492,None,,,,,,147,0,146,1264.8602879000246,,,,,,,,,,,,,,,,,,,,,,,1264.8443135000125,1264.8602879000246,1265.3607002000208,1265.3438795000257,,,,,,,,,,,,,,,,,,,,,,,,,,1265.3554461000022,1265.3607002000208,1265.3607002000208,1265.3607002000208,1268.3602240000037,1268.3602240000037,1268.3602240000037,1268.3441432000254,indoor,f,2.4757496000092942,0.1686113000032492,1268.3441843000182,1268.34419600002,None,,,,,,,,,,,,,,00040,001,2026-01-17_15h03.47.022,MST_task,2024.2.0,60.01820952368501,2026-01-17 15h04.11.938514 +0530,
,Objects\211a.jpg,147,0,148,,,,,,,j,1.7928648999950383,0.14396749998559244,None,,,,,,148,0,147,1268.3602240000037,,,,,,,,,,,,,,,,,,,,,,,1268.3442601000133,1268.3602240000037,1268.860688900022,1268.8438559000206,,,,,,,,,,,,,,,,,,,,,,,,,,1268.8563053000253,1268.860688900022,1268.860688900022,1268.860688900022,1271.8603060000169,1271.8603060000169,1271.8603060000169,1271.844206800015,shoe,j,1.7928648999950383,0.14396749998559244,1271.8462758000242,1271.846291599999,None,,,,,,,,,,,,,,00040,001,2026-01-17_15h03.47.022,MST_task,2024.2.0,60.01820952368501,2026-01-17 15h04.11.938514 +0530,
,Objects\125a.jpg,148,0,149,,,,,,,j,1.4203636999882292,0.16816420000395738,None,,,,,,149,0,148,1271.8603060000169,,,,,,,,,,,,,,,,,,,,,,,1271.8463598000235,1271.8603060000169,1272.3606817000255,1272.3438444000203,,,,,,,,,,,,,,,,,,,,,,,,,,1272.347038500011,1272.3606817000255,1272.3606817000255,1272.3606817000255,1275.3602462999988,1275.3602462999988,1275.3602462999988,1275.3441932999995,shoe,j,1.4203636999882292,0.16816420000395738,1275.344240300008,1275.3442522000114,None,,,,,,,,,,,,,,00040,001,2026-01-17_15h03.47.022,MST_task,2024.2.0,60.01820952368501,2026-01-17 15h04.11.938514 +0530,
,Objects\065a.jpg,149,0,150,,,,,,,j,1.3765431999927387,0.15999069999088533,None,,,,,,150,0,149,1275.3602462999988,,,,,,,,,,,,,,,,,,,,,,,1275.3443503000017,1275.3602462999988,1275.8605019000242,1275.8438620000088,,,,,,,,,,,,,,,,,,,,,,,,,,1275.8464886000147,1275.8605019000242,1275.8605019000242,1275.8605019000242,1278.8602875000215,1278.8602875000215,1278.8602875000215,1278.8441772000224,shoe,j,1.3765431999927387,0.15999069999088533,1278.844217100006,1278.8442384000227,None,,,,,,,,,,,,,,00040,001,2026-01-17_15h03.47.022,MST_task,2024.2.0,60.01820952368501,2026-01-17 15h04.11.938514 +0530,
,Objects\214a.jpg,150,0,151,,,,,,,f,1.18037769998773,0.18430689998785965,None,,,,,,151,0,150,1278.8602875000215,,,,,,,,,,,,,,,,,,,,,,,1278.8443359000084,1278.8602875000215,1279.3605189000082,1279.343913800025,,,,,,,,,,,,,,,,,,,,,,,,,,1279.3465648000129,1279.3605189000082,1279.3605189000082,1279.3605189000082,1282.3603440000152,1282.3603440000152,1282.3603440000152,1282.3443099000142,shoe,f,1.18037769998773,0.18430689998785965,1282.344357599999,1282.3443725000252,None,,,,,,,,,,,,,,00040,001,2026-01-17_15h03.47.022,MST_task,2024.2.0,60.01820952368501,2026-01-17 15h04.11.938514 +0530,
,Objects\307a.jpg,151,0,152,,,,,,,j,2.6888569000002462,0.15199790001497604,None,,,,,,152,0,151,1282.3603440000152,,,,,,,,,,,,,,,,,,,,,,,1282.3444407000206,1282.3603440000152,1282.8604575000063,1282.8438700000115,,,,,,,,,,,,,,,,,,,,,,,,,,1282.853454600001,1282.8604575000063,1282.8604575000063,1282.8604575000063,1285.8603125000081,1285.8603125000081,1285.8603125000081,1285.8441559000057,shoe,j,2.6888569000002462,0.15199790001497604,1285.8442127000017,1285.8442290000094,None,,,,,,,,,,,,,,00040,001,2026-01-17_15h03.47.022,MST_task,2024.2.0,60.01820952368501,2026-01-17 15h04.11.938514 +0530,
,Objects\045a.jpg,152,0,153,,,,,,,j,0.9724488999927416,0.12792840000474826,None,,,,,,153,0,152,1285.8603125000081,,,,,,,,,,,,,,,,,,,,,,,1285.844294200011,1285.8603125000081,1286.3605014000204,1286.3437863000145,,,,,,,,,,,,,,,,,,,,,,,,,,1286.3466010000266,1286.3605014000204,1286.3605014000204,1286.3605014000204,1289.3602932000067,1289.3602932000067,1289.3602932000067,1289.3442359000037,shoe,j,0.9724488999927416,0.12792840000474826,1289.3442780000041,1289.3442895000044,None,,,,,,,,,,,,,,00040,001,2026-01-17_15h03.47.022,MST_task,2024.2.0,60.01820952368501,2026-01-17 15h04.11.938514 +0530,
,Objects\059a.jpg,153,0,154,,,,,,,j,1.2086826000013389,0.11999690000084229,None,,,,,,154,0,153,1289.3602932000067,,,,,,,,,,,,,,,,,,,,,,,1289.344386200013,1289.3602932000067,1289.8605187000067,1289.8438651000033,,,,,,,,,,,,,,,,,,,,,,,,,,1289.8466766000201,1289.8605187000067,1289.8605187000067,1289.8605187000067,1292.8603569999977,1292.8603569999977,1292.8603569999977,1292.8442767000233,shoe,j,1.2086826000013389,0.11999690000084229,1292.8443200000038,1292.8443393000052,None,,,,,,,,,,,,,,00040,001,2026-01-17_15h03.47.022,MST_task,2024.2.0,60.01820952368501,2026-01-17 15h04.11.938514 +0530,
,Objects\008a.jpg,154,0,155,,,,,,,j,1.819840199983446,0.15215920002083294,None,,,,,,155,0,154,1292.8603569999977,,,,,,,,,,,,,,,,,,,,,,,1292.8444416999992,1292.8603569999977,1293.3605487000023,1293.343884700007,,,,,,,,,,,,,,,,,,,,,,,,,,1293.3549761000031,1293.3605487000023,1293.3605487000023,1293.3605487000023,1296.360326300026,1296.360326300026,1296.360326300026,1296.3442159999977,indoor,j,1.819840199983446,0.15215920002083294,1296.345904100017,1296.3459217000054,None,,,,,,,,,,,,,,00040,001,2026-01-17_15h03.47.022,MST_task,2024.2.0,60.01820952368501,2026-01-17 15h04.11.938514 +0530,
,Objects\249a.jpg,155,0,156,,,,,,,j,1.1358459999901243,0.13590679998742417,None,,,,,,156,0,155,1296.360326300026,,,,,,,,,,,,,,,,,,,,,,,1296.3459901000024,1296.360326300026,1296.860669900023,1296.8438936000166,,,,,,,,,,,,,,,,,,,,,,,,,,1296.8541763000248,1296.860669900023,1296.860669900023,1296.860669900023,1299.8602915000229,1299.8602915000229,1299.8602915000229,1299.8441127999977,indoor,j,1.1358459999901243,0.13590679998742417,1299.844155400002,1299.8441672000044,None,,,,,,,,,,,,,,00040,001,2026-01-17_15h03.47.022,MST_task,2024.2.0,60.01820952368501,2026-01-17 15h04.11.938514 +0530,
