Sl_no,image_path,thisN,thisTrialN,thisRepN,key_resp_5.keys,key_resp_7.keys,key_resp_7.rt,key_resp_7.duration,key_resp_5.rt,key_resp_5.duration,key_resp_9.keys,key_resp_8.keys,key_resp_8.rt,key_resp_8.duration,key_resp_9.rt,key_resp_9.duration,practice.thisRepN,practice.thisTrialN,practice.thisN,trials.thisRepN,trials.thisTrialN,trials.thisN,thisRow.t,notes,welcome_page.started,text.started,key_resp.started,welcome_page.stopped,key_resp.keys,key_resp.rt,key_resp.duration,instructions.started,ins.started,key_resp_2.started,instructions.stopped,key_resp_2.keys,key_resp_2.rt,key_resp_2.duration,objects_only_instruction.started,text_3.started,key_resp_3.started,objects_only_instruction.stopped,key_resp_3.keys,key_resp_3.rt,key_resp_3.duration,ISI.started,text_4.started,ISI.stopped,practice_block.started,image.started,key_resp_5.started,text_5.started,practice_block.stopped,practice.key_resp_5.keys,indoor_outdoor.started,text_7.started,key_resp_7.started,indoor_outdoor.stopped,practice.key_resp_7.keys,practice.key_resp_7.rt,practice.key_resp_7.duration,text_4.stopped,image.stopped,key_resp_5.stopped,text_5.stopped,practice.key_resp_5.rt,practice.key_resp_5.duration,practice_to_main.started,text_2.started,key_resp_4.started,practice_to_main.stopped,key_resp_4.keys,key_resp_4.rt,key_resp_4.duration,objects.started,image_2.started,text_9.started,key_resp_9.started,objects.stopped,category,trials.key_resp_9.keys,encoding_task.started,text_8.started,key_resp_8.started,encoding_task.stopped,trials.key_resp_8.keys,trials.key_resp_8.rt,trials.key_resp_8.duration,image_2.stopped,text_9.stopped,key_resp_9.stopped,trials.key_resp_9.rt,trials.key_resp_9.duration,end_experiment.started,text_6.started,key_resp_6.started,end_experiment.stopped,key_resp_6.keys,key_resp_6.rt,key_resp_6.duration,list_of_stimuli,encoding_task_accuracy,participant,session,date,expName,psychopyVersion,frameRate,expStart,
,,,,,,,,,,,,,,,,,,,,,,,,,0.0012384000001475215,0.0027538999856915325,0.0027538999856915325,6.885710400005337,space,6.868947400012985,None,,,,,,,,,,,,,,,,,,,,,,,,,,,,,,,,,,,,,,,,,,,,,,,,,,,,,,,,,,,,,,,,,,,,,,,,00043,001,2026-01-17_16h59.39.804,MST_task,2024.2.0,60.11121777875833,2026-01-17 16h59.49.108225 +0530,
,,,,,,,,,,,,,,,,,,,,,,,,,,,,,,,,6.885742299986305,6.9003985000017565,6.9003985000017565,36.73419930000091,space,29.820260700013023,None,,,,,,,,,,,,,,,,,,,,,,,,,,,,,,,,,,,,,,,,,,,,,,,,,,,,,,,,,,,,,,,,,00043,001,2026-01-17_16h59.39.804,MST_task,2024.2.0,60.11121777875833,2026-01-17 16h59.49.108225 +0530,
,,,,,,,,,,,,,,,,,,,,,,,,,,,,,,,,,,,,,,,36.734230999980355,36.75040150000132,36.75040150000132,47.91758859998663,space,11.161740699986694,None,,,,,,,,,,,,,,,,,,,,,,,,,,,,,,,,,,,,,,,,,,,,,,,,,,,,,,,,,,00043,001,2026-01-17_16h59.39.804,MST_task,2024.2.0,60.11121777875833,2026-01-17 16h59.49.108225 +0530,
8,practice_images/178a.jpg,0,0,1,None,j,0.013077699986752123,None,,,,,,,,,1,0,0,,,,47.936387099995045,,,,,,,,,,,,,,,,,,,,,,,47.93426280000131,47.936387099995045,48.41778499999782,48.42989480000688,48.440493400004925,48.440493400004925,48.440493400004925,51.433941800001776,None,51.43548670000746,51.45052499999292,51.45052499999292,51.46775479998905,j,0.013077699986752123,None,,,,,,,,,,,,,,,,,,,,,,,,,,,,,,,,,,,,,,,,,,00043,001,2026-01-17_16h59.39.804,MST_task,2024.2.0,60.11121777875833,2026-01-17 16h59.49.108225 +0530,
7,practice_images/166a.jpg,1,1,1,None,f,1.1918953999993391,None,,,,,,,,,1,1,1,,,,51.483771900006104,,,,,,,,,,,,,,,,,,,,,,,51.46783219999634,51.483771900006104,51.9674172999803,51.97543369999039,51.98419930000091,51.98419930000091,51.98419930000091,54.96750239998801,None,54.967535699979635,54.98377709998749,54.98377709998749,56.18414050000138,f,1.1918953999993391,None,51.98419930000091,54.98377709998749,54.98377709998749,54.98377709998749,,,,,,,,,,,,,,,,,,,,,,,,,,,,,,,,,,,,,,00043,001,2026-01-17_16h59.39.804,MST_task,2024.2.0,60.11121777875833,2026-01-17 16h59.49.108225 +0530,
10,practice_images/182a.jpg,2,2,1,f,None,,,2.8038917999947444,0.16029119997983798,,,,,,,1,2,2,,,,56.200507400004426,,,,,,,,,,,,,,,,,,,,,,,56.18422309999005,56.200507400004426,56.68415119999554,56.69228580000345,56.70071999999345,56.70071999999345,56.70071999999345,59.68432739999844,f,59.68437579998863,,,59.68438859999878,None,,,56.70071999999345,59.7005591999914,59.7005591999914,59.7005591999914,2.8038917999947444,0.16029119997983798,,,,,,,,,,,,,,,,,,,,,,,,,,,,,,,,,,,,00043,001,2026-01-17_16h59.39.804,MST_task,2024.2.0,60.11121777875833,2026-01-17 16h59.49.108225 +0530,
9,practice_images/180a.jpg,3,3,1,f,None,,,2.7597425999992993,0.13599859998794273,,,,,,,1,3,3,,,,59.7005591999914,,,,,,,,,,,,,,,,,,,,,,,59.68446910000057,59.7005591999914,60.18409939997946,60.192128599999705,60.20065250000334,60.20065250000334,60.20065250000334,63.184299099986674,f,63.18433709998499,,,63.18434909998905,None,,,60.20065250000334,63.2005009999848,63.2005009999848,63.2005009999848,2.7597425999992993,0.13599859998794273,,,,,,,,,,,,,,,,,,,,,,,,,,,,,,,,,,,,00043,001,2026-01-17_16h59.39.804,MST_task,2024.2.0,60.11121777875833,2026-01-17 16h59.49.108225 +0530,
2,practice_images/031a.jpg,4,4,1,f,None,,,1.7388310999958776,0.22400079999351874,,,,,,,1,4,4,,,,63.2005009999848,,,,,,,,,,,,,,,,,,,,,,,63.1844182999921,63.2005009999848,63.683998099993914,63.69204259998514,63.70076770000742,63.70076770000742,63.70076770000742,66.68429449998075,f,66.68433109999751,,,66.68434370000614,None,,,63.70076770000742,66.7005644000019,66.7005644000019,66.7005644000019,1.7388310999958776,0.22400079999351874,,,,,,,,,,,,,,,,,,,,,,,,,,,,,,,,,,,,00043,001,2026-01-17_16h59.39.804,MST_task,2024.2.0,60.11121777875833,2026-01-17 16h59.49.108225 +0530,
5,practice_images/139a.jpg,5,5,1,None,j,0.4471326000057161,None,,,,,,,,,1,5,5,,,,66.7005644000019,,,,,,,,,,,,,,,,,,,,,,,66.68440749999718,66.7005644000019,67.18406010000035,67.19525530000101,67.2006357999926,67.2006357999926,67.2006357999926,70.18423290000646,None,70.18651879997924,70.20045720000053,70.20045720000053,70.65104659998906,j,0.4471326000057161,None,67.2006357999926,70.20045720000053,70.20045720000053,70.20045720000053,,,,,,,,,,,,,,,,,,,,,,,,,,,,,,,,,,,,,,00043,001,2026-01-17_16h59.39.804,MST_task,2024.2.0,60.11121777875833,2026-01-17 16h59.49.108225 +0530,
3,practice_images/037a.jpg,6,6,1,f,None,,,2.280680100026075,0.2396232999744825,,,,,,,1,6,6,,,,70.6671900000074,,,,,,,,,,,,,,,,,,,,,,,70.65112789999694,70.6671900000074,71.15097620000597,71.15892270000768,71.16733339999337,71.16733339999337,71.16733339999337,74.15090000000782,f,74.15093659999548,,,74.15094910000334,None,,,71.16733339999337,74.16719639999792,74.16719639999792,74.16719639999792,2.280680100026075,0.2396232999744825,,,,,,,,,,,,,,,,,,,,,,,,,,,,,,,,,,,,00043,001,2026-01-17_16h59.39.804,MST_task,2024.2.0,60.11121777875833,2026-01-17 16h59.49.108225 +0530,
6,practice_images/158a.jpg,7,7,1,j,None,,,2.4208198999986053,0.2489950999733992,,,,,,,1,7,7,,,,74.16719639999792,,,,,,,,,,,,,,,,,,,,,,,74.15100899999379,74.16719639999792,74.65073629998369,74.65846279999823,74.66738589998567,74.66738589998567,74.66738589998567,77.65096840000479,j,77.65101679999498,,,77.65102960000513,None,,,74.66738589998567,77.66714299999876,77.66714299999876,77.66714299999876,2.4208198999986053,0.2489950999733992,,,,,,,,,,,,,,,,,,,,,,,,,,,,,,,,,,,,00043,001,2026-01-17_16h59.39.804,MST_task,2024.2.0,60.11121777875833,2026-01-17 16h59.49.108225 +0530,
1,practice_images/013a.jpg,8,8,1,j,None,,,1.7368636000028346,0.21601810000720434,,,,,,,1,8,8,,,,77.66714299999876,,,,,,,,,,,,,,,,,,,,,,,77.65109579998534,77.66714299999876,78.15081609998015,78.15880020000623,78.16728850000072,78.16728850000072,78.16728850000072,81.15102819999447,j,81.15106629999354,,,81.15107849999913,None,,,78.16728850000072,81.16714000000502,81.16714000000502,81.16714000000502,1.7368636000028346,0.21601810000720434,,,,,,,,,,,,,,,,,,,,,,,,,,,,,,,,,,,,00043,001,2026-01-17_16h59.39.804,MST_task,2024.2.0,60.11121777875833,2026-01-17 16h59.49.108225 +0530,
4,practice_images/002b.jpg,9,9,1,j,None,,,1.388283100008266,0.26434100000187755,,,,,,,1,9,9,,,,81.16714000000502,,,,,,,,,,,,,,,,,,,,,,,81.15114109998103,81.16714000000502,81.65081009999267,81.65885159999016,81.66734529999667,81.66734529999667,81.66734529999667,84.65088539998396,j,84.65092189999996,,,84.65093350000097,None,,,81.66734529999667,84.66711249999935,84.66711249999935,84.66711249999935,1.388283100008266,0.26434100000187755,,,,,,,,,,,,,,,,,,,,,,,,,,,,,,,,,,,,00043,001,2026-01-17_16h59.39.804,MST_task,2024.2.0,60.11121777875833,2026-01-17 16h59.49.108225 +0530,
,,,,,,,,,,,,,,,,,,,,,,,,,,,,,,,,,,,,,,,,,,,,,,,,,,,,,,,,,,,,,,,,,,,,84.65098479998414,84.66711249999935,84.66711249999935,116.25092069999664,space,31.57266909998725,None,,,,,,,,,,,,,,,,,,,,,,,,,,,,,00043,001,2026-01-17_16h59.39.804,MST_task,2024.2.0,60.11121777875833,2026-01-17 16h59.49.108225 +0530,
,Objects\276a.jpg,0,0,1,,,,,,,None,j,1.0640649999841116,None,,,,,,1,0,0,116.26702500000829,,,,,,,,,,,,,,,,,,,,,,,116.2515626999957,116.26702500000829,116.7508625999908,,,,,,,,,,,,,,116.7701320000051,,,,,,,,,,,,,116.76715189998504,116.7701320000051,116.7701320000051,116.7701320000051,119.76735929999268,shoe,None,119.7695464999997,119.78362780000316,119.78362780000316,120.8508351999917,j,1.0640649999841116,None,,,,,,,,,,,,,,,00043,001,2026-01-17_16h59.39.804,MST_task,2024.2.0,60.11121777875833,2026-01-17 16h59.49.108225 +0530,
,Objects\033a.jpg,1,0,2,,,,,,,None,f,0.4728430999966804,None,,,,,,2,0,1,120.86708299999009,,,,,,,,,,,,,,,,,,,,,,,120.85092309999163,120.86708299999009,121.35066140000708,,,,,,,,,,,,,,121.36735419998877,,,,,,,,,,,,,121.36017899998114,121.36735419998877,121.36735419998877,121.36735419998877,124.35097769999993,shoe,None,124.35101489999215,124.36710050000693,124.36710050000693,124.85082490000059,f,0.4728430999966804,None,124.36710050000693,124.36710050000693,124.36710050000693,,,,,,,,,,,,00043,001,2026-01-17_16h59.39.804,MST_task,2024.2.0,60.11121777875833,2026-01-17 16h59.49.108225 +0530,
,Objects\238a.jpg,2,0,3,,,,,,,j,None,,,1.120032299979357,0.16834050000761636,,,,3,0,2,124.86708910000743,,,,,,,,,,,,,,,,,,,,,,,124.85090980000678,124.86708910000743,125.3507368999999,,,,,,,,,,,,,,125.36766279998119,,,,,,,,,,,,,125.36096960000577,125.36766279998119,125.36766279998119,125.36766279998119,128.35120380000444,shoe,j,128.35125939999125,,,128.3512727000052,None,,,128.36713579998468,128.36713579998468,128.36713579998468,1.120032299979357,0.16834050000761636,,,,,,,,,,00043,001,2026-01-17_16h59.39.804,MST_task,2024.2.0,60.11121777875833,2026-01-17 16h59.49.108225 +0530,
,Objects\279a.jpg,3,0,4,,,,,,,j,None,,,1.604199299996253,0.17646869999589399,,,,4,0,3,128.36713579998468,,,,,,,,,,,,,,,,,,,,,,,128.35134120000293,128.36713579998468,128.85061669998686,,,,,,,,,,,,,,128.86747810000088,,,,,,,,,,,,,128.86051939998288,128.86747810000088,128.86747810000088,128.86747810000088,131.851004199998,shoe,j,131.85104809998302,,,131.8510602999886,None,,,131.86711849999847,131.86711849999847,131.86711849999847,1.604199299996253,0.17646869999589399,,,,,,,,,,00043,001,2026-01-17_16h59.39.804,MST_task,2024.2.0,60.11121777875833,2026-01-17 16h59.49.108225 +0530,
,Objects\175a.jpg,4,0,5,,,,,,,f,None,,,1.2175067999924067,0.23169459999189712,,,,5,0,4,131.86711849999847,,,,,,,,,,,,,,,,,,,,,,,131.8511249999865,131.86711849999847,132.35065209999448,,,,,,,,,,,,,,132.36728109998512,,,,,,,,,,,,,132.35952460000408,132.36728109998512,132.36728109998512,132.36728109998512,135.35089199998765,shoe,f,135.35093469999265,,,135.35094639999443,None,,,135.36758349998854,135.36758349998854,135.36758349998854,1.2175067999924067,0.23169459999189712,,,,,,,,,,00043,001,2026-01-17_16h59.39.804,MST_task,2024.2.0,60.11121777875833,2026-01-17 16h59.49.108225 +0530,
,Objects\135a.jpg,5,0,6,,,,,,,f,None,,,0.9566548999864608,0.20808270000270568,,,,6,0,5,135.36758349998854,,,,,,,,,,,,,,,,,,,,,,,135.35101119999308,135.36758349998854,135.8506887999829,,,,,,,,,,,,,,135.86736979999114,,,,,,,,,,,,,135.85992099999567,135.86736979999114,135.86736979999114,135.86736979999114,138.85098620000645,shoe,f,138.85102919998462,,,138.85104119998869,None,,,138.8671037000022,138.8671037000022,138.8671037000022,0.9566548999864608,0.20808270000270568,,,,,,,,,,00043,001,2026-01-17_16h59.39.804,MST_task,2024.2.0,60.11121777875833,2026-01-17 16h59.49.108225 +0530,
,Objects\038a.jpg,6,0,7,,,,,,,f,None,,,1.26490000000922,0.2636789999960456,,,,7,0,6,138.8671037000022,,,,,,,,,,,,,,,,,,,,,,,138.85113009999623,138.8671037000022,139.35085449999315,,,,,,,,,,,,,,139.36734309999156,,,,,,,,,,,,,139.35963150000316,139.36734309999156,139.36734309999156,139.36734309999156,142.3508954999852,shoe,f,142.35093859999324,,,142.35095120000187,None,,,142.3671297999972,142.3671297999972,142.3671297999972,1.26490000000922,0.2636789999960456,,,,,,,,,,00043,001,2026-01-17_16h59.39.804,MST_task,2024.2.0,60.11121777875833,2026-01-17 16h59.49.108225 +0530,
,Objects\049a.jpg,7,0,8,,,,,,,None,f,0.0698530999943614,None,,,,,,8,0,7,142.3671297999972,,,,,,,,,,,,,,,,,,,,,,,142.35104499998852,142.3671297999972,142.85071840000455,,,,,,,,,,,,,,142.86717929999577,,,,,,,,,,,,,142.86208809999516,142.86717929999577,142.86717929999577,142.86717929999577,145.8510122000007,indoor,None,145.85269929998321,145.8672350999841,145.8672350999841,145.9509759999928,f,0.0698530999943614,None,145.8672350999841,145.8672350999841,145.8672350999841,,,,,,,,,,,,00043,001,2026-01-17_16h59.39.804,MST_task,2024.2.0,60.11121777875833,2026-01-17 16h59.49.108225 +0530,
,Objects\215a.jpg,8,0,9,,,,,,,f,None,,,2.7807817999855615,0.15999220000230707,,,,9,0,8,145.96717269998044,,,,,,,,,,,,,,,,,,,,,,,145.95105859998148,145.96717269998044,146.4509734000021,,,,,,,,,,,,,,146.46746949999942,,,,,,,,,,,,,146.46061089998693,146.46746949999942,146.46746949999942,146.46746949999942,149.45119599997997,indoor,f,149.4512380999804,,,149.451250299986,None,,,149.46720290000667,149.46720290000667,149.46720290000667,2.7807817999855615,0.15999220000230707,,,,,,,,,,00043,001,2026-01-17_16h59.39.804,MST_task,2024.2.0,60.11121777875833,2026-01-17 16h59.49.108225 +0530,
,Objects\058a.jpg,9,0,10,,,,,,,None,f,0.47261679999064654,None,,,,,,10,0,9,149.46720290000667,,,,,,,,,,,,,,,,,,,,,,,149.45131499998388,149.46720290000667,149.95080769999186,,,,,,,,,,,,,,149.96737450000364,,,,,,,,,,,,,149.9618660999986,149.96737450000364,149.96737450000364,149.96737450000364,152.9510437999852,indoor,None,152.95108189998427,152.96723639999982,152.96723639999982,153.45113249999122,f,0.47261679999064654,None,152.96723639999982,152.96723639999982,152.96723639999982,,,,,,,,,,,,00043,001,2026-01-17_16h59.39.804,MST_task,2024.2.0,60.11121777875833,2026-01-17 16h59.49.108225 +0530,
,Objects\200a.jpg,10,0,11,,,,,,,None,j,0.43316389998653904,None,,,,,,11,0,10,153.46720210000058,,,,,,,,,,,,,,,,,,,,,,,153.45121830000426,153.46720210000058,153.95078459999058,,,,,,,,,,,,,,153.9676550999866,,,,,,,,,,,,,153.9613744999806,153.9676550999866,153.9676550999866,153.9676550999866,156.95113840000704,indoor,None,156.95118129998446,156.967118200002,156.967118200002,157.4009905999992,j,0.43316389998653904,None,156.967118200002,156.967118200002,156.967118200002,,,,,,,,,,,,00043,001,2026-01-17_16h59.39.804,MST_task,2024.2.0,60.11121777875833,2026-01-17 16h59.49.108225 +0530,
,Objects\026a.jpg,11,0,12,,,,,,,j,None,,,2.186794800014468,0.18437709999852814,,,,12,0,11,157.4172103999881,,,,,,,,,,,,,,,,,,,,,,,157.40108049998526,157.4172103999881,157.90094289998524,,,,,,,,,,,,,,157.91747059999034,,,,,,,,,,,,,157.91076850000536,157.91747059999034,157.91747059999034,157.91747059999034,160.90118169999914,indoor,j,160.90122559998417,,,160.901237699989,None,,,160.9172339999932,160.9172339999932,160.9172339999932,2.186794800014468,0.18437709999852814,,,,,,,,,,00043,001,2026-01-17_16h59.39.804,MST_task,2024.2.0,60.11121777875833,2026-01-17 16h59.49.108225 +0530,
,Objects\346a.jpg,12,0,13,,,,,,,f,None,,,2.357985300011933,0.20950839997385629,,,,13,0,12,160.9172339999932,,,,,,,,,,,,,,,,,,,,,,,160.90130299999146,160.9172339999932,161.40083909998066,,,,,,,,,,,,,,161.41764279999188,,,,,,,,,,,,,161.4104573999939,161.41764279999188,161.41764279999188,161.41764279999188,164.4011901000049,indoor,f,164.40123240000685,,,164.4012443999818,None,,,164.4172903999861,164.4172903999861,164.4172903999861,2.357985300011933,0.20950839997385629,,,,,,,,,,00043,001,2026-01-17_16h59.39.804,MST_task,2024.2.0,60.11121777875833,2026-01-17 16h59.49.108225 +0530,
,Objects\247a.jpg,13,0,14,,,,,,,f,None,,,2.4824678000004496,0.2167499999923166,,,,14,0,13,164.4172903999861,,,,,,,,,,,,,,,,,,,,,,,164.4013077999989,164.4172903999861,164.9007905999897,,,,,,,,,,,,,,164.91749469999922,,,,,,,,,,,,,164.90990769999917,164.91749469999922,164.91749469999922,164.91749469999922,167.90119849998155,indoor,f,167.9012448999856,,,167.90125749999424,None,,,167.91727780000656,167.91727780000656,167.91727780000656,2.4824678000004496,0.2167499999923166,,,,,,,,,,00043,001,2026-01-17_16h59.39.804,MST_task,2024.2.0,60.11121777875833,2026-01-17 16h59.49.108225 +0530,
,Objects\082a.jpg,14,0,15,,,,,,,j,None,,,1.6059439999808092,0.19249100002343766,,,,15,0,14,167.91727780000656,,,,,,,,,,,,,,,,,,,,,,,167.90132340000127,167.91727780000656,168.400802499993,,,,,,,,,,,,,,168.4177395000006,,,,,,,,,,,,,168.41282949998276,168.4177395000006,168.4177395000006,168.4177395000006,171.401154399995,shoe,j,171.4032738999813,,,171.40329159999965,None,,,171.4172269999981,171.4172269999981,171.4172269999981,1.6059439999808092,0.19249100002343766,,,,,,,,,,00043,001,2026-01-17_16h59.39.804,MST_task,2024.2.0,60.11121777875833,2026-01-17 16h59.49.108225 +0530,
,Objects\137a.jpg,15,0,16,,,,,,,None,j,0.41878729997552,None,,,,,,16,0,15,171.4172269999981,,,,,,,,,,,,,,,,,,,,,,,171.40339239998139,171.4172269999981,171.90091929998016,,,,,,,,,,,,,,171.91742909999448,,,,,,,,,,,,,171.9107098999957,171.91742909999448,171.91742909999448,171.91742909999448,174.90103969999473,shoe,None,174.90107639998314,174.9171099999803,174.9171099999803,175.35096849998808,j,0.41878729997552,None,174.9171099999803,174.9171099999803,174.9171099999803,,,,,,,,,,,,00043,001,2026-01-17_16h59.39.804,MST_task,2024.2.0,60.11121777875833,2026-01-17 16h59.49.108225 +0530,
,Objects\068a.jpg,16,0,17,,,,,,,j,None,,,2.3248574000026565,0.19132929999614134,,,,17,0,16,175.36711689998629,,,,,,,,,,,,,,,,,,,,,,,175.35105420000036,175.36711689998629,175.8506848999823,,,,,,,,,,,,,,175.8674350999936,,,,,,,,,,,,,175.8596556999837,175.8674350999936,175.8674350999936,175.8674350999936,178.85102179998648,shoe,j,178.85106489999453,,,178.8510779000062,None,,,178.86711419999483,178.86711419999483,178.86711419999483,2.3248574000026565,0.19132929999614134,,,,,,,,,,00043,001,2026-01-17_16h59.39.804,MST_task,2024.2.0,60.11121777875833,2026-01-17 16h59.49.108225 +0530,
,Objects\236a.jpg,17,0,18,,,,,,,j,None,,,2.463998499995796,0.19259150000289083,,,,18,0,17,178.86711419999483,,,,,,,,,,,,,,,,,,,,,,,178.85114739998244,178.86711419999483,179.35103900000104,,,,,,,,,,,,,,179.3676482999872,,,,,,,,,,,,,179.3610417000018,179.3676482999872,179.3676482999872,179.3676482999872,182.35099109998555,shoe,j,182.35103479999816,,,182.35104670000146,None,,,182.36705539998366,182.36705539998366,182.36705539998366,2.463998499995796,0.19259150000289083,,,,,,,,,,00043,001,2026-01-17_16h59.39.804,MST_task,2024.2.0,60.11121777875833,2026-01-17 16h59.49.108225 +0530,
,Objects\140a.jpg,18,0,19,,,,,,,j,None,,,1.6129564000002574,0.19116859999485314,,,,19,0,18,182.36705539998366,,,,,,,,,,,,,,,,,,,,,,,182.35111019999022,182.36705539998366,182.85068030000548,,,,,,,,,,,,,,182.8676337999932,,,,,,,,,,,,,182.86027929998818,182.8676337999932,182.8676337999932,182.8676337999932,185.85099579999223,shoe,j,185.85104109998792,,,185.85105339999427,None,,,185.86711639998248,185.86711639998248,185.86711639998248,1.6129564000002574,0.19116859999485314,,,,,,,,,,00043,001,2026-01-17_16h59.39.804,MST_task,2024.2.0,60.11121777875833,2026-01-17 16h59.49.108225 +0530,
,Objects\035a.jpg,19,0,20,,,,,,,None,j,0.20073889999184757,None,,,,,,20,0,19,185.86711639998248,,,,,,,,,,,,,,,,,,,,,,,185.85112380000646,185.86711639998248,186.35073229999398,,,,,,,,,,,,,,186.36739440000383,,,,,,,,,,,,,186.35938989999704,186.36739440000383,186.36739440000383,186.36739440000383,189.3510002999974,shoe,None,189.35103839999647,189.36709829999018,189.36709829999018,189.58420459998888,j,0.20073889999184757,None,189.36709829999018,189.36709829999018,189.36709829999018,,,,,,,,,,,,00043,001,2026-01-17_16h59.39.804,MST_task,2024.2.0,60.11121777875833,2026-01-17 16h59.49.108225 +0530,
,Objects\198a.jpg,20,0,21,,,,,,,f,None,,,1.1073003000055905,0.1770844999991823,,,,21,0,20,189.60044879998895,,,,,,,,,,,,,,,,,,,,,,,189.58429269999033,189.60044879998895,190.08390490000602,,,,,,,,,,,,,,190.10061259998474,,,,,,,,,,,,,190.0869863999833,190.10061259998474,190.10061259998474,190.10061259998474,193.08420339997974,shoe,f,193.0842549999943,,,193.0842674000014,None,,,193.1004783999815,193.1004783999815,193.1004783999815,1.1073003000055905,0.1770844999991823,,,,,,,,,,00043,001,2026-01-17_16h59.39.804,MST_task,2024.2.0,60.11121777875833,2026-01-17 16h59.49.108225 +0530,
,Objects\259a.jpg,21,0,22,,,,,,,j,None,,,2.4628472000185866,0.20111419999739155,,,,22,0,21,193.1004783999815,,,,,,,,,,,,,,,,,,,,,,,193.0843338999839,193.1004783999815,193.58395159998327,,,,,,,,,,,,,,193.6008949999814,,,,,,,,,,,,,193.59539050000603,193.6008949999814,193.6008949999814,193.6008949999814,196.58421709999675,indoor,j,196.5858533999999,,,196.58587079998688,None,,,196.60046069999225,196.60046069999225,196.60046069999225,2.4628472000185866,0.20111419999739155,,,,,,,,,,00043,001,2026-01-17_16h59.39.804,MST_task,2024.2.0,60.11121777875833,2026-01-17 16h59.49.108225 +0530,
,Objects\001a.jpg,22,0,23,,,,,,,f,None,,,2.0904868000070564,0.20815669998410158,,,,23,0,22,196.60046069999225,,,,,,,,,,,,,,,,,,,,,,,196.58593969998765,196.60046069999225,197.0839280000073,,,,,,,,,,,,,,197.10117579999496,,,,,,,,,,,,,197.0937564999913,197.10117579999496,197.10117579999496,197.10117579999496,200.0842606999795,indoor,f,200.08430369998678,,,200.08431549998932,None,,,200.10045729999547,200.10045729999547,200.10045729999547,2.0904868000070564,0.20815669998410158,,,,,,,,,,00043,001,2026-01-17_16h59.39.804,MST_task,2024.2.0,60.11121777875833,2026-01-17 16h59.49.108225 +0530,
,Objects\098a.jpg,23,0,24,,,,,,,f,None,,,2.743891900026938,None,,,,24,0,23,200.10045729999547,,,,,,,,,,,,,,,,,,,,,,,200.08438419998856,200.10045729999547,200.58401160000358,,,,,,,,,,,,,,200.6006672999938,,,,,,,,,,,,,200.59325549998903,200.6006672999938,200.6006672999938,200.6006672999938,203.5844021999801,indoor,f,203.5844439000066,,,203.58445569998003,None,,,203.60043039999437,203.60043039999437,203.60043039999437,2.743891900026938,None,,,,,,,,,,00043,001,2026-01-17_16h59.39.804,MST_task,2024.2.0,60.11121777875833,2026-01-17 16h59.49.108225 +0530,
,Objects\226a.jpg,24,0,25,,,,,,,j,None,,,1.8669216000125743,0.2322388000029605,,,,25,0,24,203.60043039999437,,,,,,,,,,,,,,,,,,,,,,,203.58451819999027,203.60043039999437,204.083964999998,,,,,,,,,,,,,,204.1008276999928,,,,,,,,,,,,,204.0934084999899,204.1008276999928,204.1008276999928,204.1008276999928,207.08427279998432,indoor,j,207.08431689999998,,,207.08432910000556,None,,,207.1004646999936,207.1004646999936,207.1004646999936,1.8669216000125743,0.2322388000029605,,,,,,,,,,00043,001,2026-01-17_16h59.39.804,MST_task,2024.2.0,60.11121777875833,2026-01-17 16h59.49.108225 +0530,
,Objects\147a.jpg,25,0,26,,,,,,,f,None,,,1.3274392999883275,0.2320123999961652,,,,26,0,25,207.1004646999936,,,,,,,,,,,,,,,,,,,,,,,207.08439229999203,207.1004646999936,207.58386939999764,,,,,,,,,,,,,,207.60091819998343,,,,,,,,,,,,,207.59245060000103,207.60091819998343,207.60091819998343,207.60091819998343,210.58436670000083,indoor,f,210.58441089998814,,,210.5844228999922,None,,,210.60056309998618,210.60056309998618,210.60056309998618,1.3274392999883275,0.2320123999961652,,,,,,,,,,00043,001,2026-01-17_16h59.39.804,MST_task,2024.2.0,60.11121777875833,2026-01-17 16h59.49.108225 +0530,
,Objects\180a.jpg,26,0,27,,,,,,,None,f,1.4761400999850594,None,,,,,,27,0,26,210.60056309998618,,,,,,,,,,,,,,,,,,,,,,,210.5844883999962,210.60056309998618,211.08390060000238,,,,,,,,,,,,,,211.10069789999397,,,,,,,,,,,,,211.0956722999981,211.10069789999397,211.10069789999397,211.10069789999397,214.08418809997966,indoor,None,214.0842260000063,214.10046660000808,214.10046660000808,215.5840409999946,f,1.4761400999850594,None,214.10046660000808,214.10046660000808,214.10046660000808,,,,,,,,,,,,00043,001,2026-01-17_16h59.39.804,MST_task,2024.2.0,60.11121777875833,2026-01-17 16h59.49.108225 +0530,
,Objects\288a.jpg,27,0,28,,,,,,,f,None,,,1.2109240999852773,0.19999970000935718,,,,28,0,27,215.6004592999816,,,,,,,,,,,,,,,,,,,,,,,215.584131599986,215.6004592999816,216.08406309998827,,,,,,,,,,,,,,216.100807299983,,,,,,,,,,,,,216.09476619999623,216.100807299983,216.100807299983,216.100807299983,219.0843612999888,indoor,f,219.08440849999897,,,219.0844220999861,None,,,219.10056389999227,219.10056389999227,219.10056389999227,1.2109240999852773,0.19999970000935718,,,,,,,,,,00043,001,2026-01-17_16h59.39.804,MST_task,2024.2.0,60.11121777875833,2026-01-17 16h59.49.108225 +0530,
,Objects\157a.jpg,28,0,29,,,,,,,f,None,,,2.102798800013261,0.20802439999533817,,,,29,0,28,219.10056389999227,,,,,,,,,,,,,,,,,,,,,,,219.08449079998536,219.10056389999227,219.58396789999097,,,,,,,,,,,,,,219.6008628999989,,,,,,,,,,,,,219.59645749998163,219.6008628999989,219.6008628999989,219.6008628999989,222.5843848999939,shoe,f,222.58683620000375,,,222.5868541999953,None,,,222.60040749999462,222.60040749999462,222.60040749999462,2.102798800013261,0.20802439999533817,,,,,,,,,,00043,001,2026-01-17_16h59.39.804,MST_task,2024.2.0,60.11121777875833,2026-01-17 16h59.49.108225 +0530,
,Objects\066a.jpg,29,0,30,,,,,,,j,None,,,2.0835442999959923,0.20808939999551512,,,,30,0,29,222.60040749999462,,,,,,,,,,,,,,,,,,,,,,,222.58695319999242,222.60040749999462,223.08389959999477,,,,,,,,,,,,,,223.10071500000777,,,,,,,,,,,,,223.09332869999344,223.10071500000777,223.10071500000777,223.10071500000777,226.08456429999205,shoe,j,226.08461069999612,,,226.08462409998174,None,,,226.1004391000024,226.1004391000024,226.1004391000024,2.0835442999959923,0.20808939999551512,,,,,,,,,,00043,001,2026-01-17_16h59.39.804,MST_task,2024.2.0,60.11121777875833,2026-01-17 16h59.49.108225 +0530,
,Objects\105a.jpg,30,0,31,,,,,,,f,None,,,1.3920998999965377,0.2228971000004094,,,,31,0,30,226.1004391000024,,,,,,,,,,,,,,,,,,,,,,,226.0846917000017,226.1004391000024,226.58384819998173,,,,,,,,,,,,,,226.60069920000387,,,,,,,,,,,,,226.59290129999863,226.60069920000387,226.60069920000387,226.60069920000387,229.58428929999354,shoe,f,229.5843326000031,,,229.58434519998264,None,,,229.60046260000672,229.60046260000672,229.60046260000672,1.3920998999965377,0.2228971000004094,,,,,,,,,,00043,001,2026-01-17_16h59.39.804,MST_task,2024.2.0,60.11121777875833,2026-01-17 16h59.49.108225 +0530,
,Objects\092a.jpg,31,0,32,,,,,,,f,None,,,1.9875131000007968,0.16800199999124743,,,,32,0,31,229.60046260000672,,,,,,,,,,,,,,,,,,,,,,,229.5844097000081,229.60046260000672,230.0840576000046,,,,,,,,,,,,,,230.10065789998043,,,,,,,,,,,,,230.09375780000119,230.10065789998043,230.10065789998043,230.10065789998043,233.0842686999822,shoe,f,233.08431539998855,,,233.08432729999186,None,,,233.1004333999881,233.1004333999881,233.1004333999881,1.9875131000007968,0.16800199999124743,,,,,,,,,,00043,001,2026-01-17_16h59.39.804,MST_task,2024.2.0,60.11121777875833,2026-01-17 16h59.49.108225 +0530,
,Objects\143a.jpg,32,0,33,,,,,,,j,None,,,2.2633641000138596,0.2005455000034999,,,,33,0,32,233.1004333999881,,,,,,,,,,,,,,,,,,,,,,,233.08443180000177,233.1004333999881,233.58390060000238,,,,,,,,,,,,,,233.60063800000353,,,,,,,,,,,,,233.59290699998382,233.60063800000353,233.60063800000353,233.60063800000353,236.58441710000625,shoe,j,236.584460699989,,,236.58447229999,None,,,236.60046739998506,236.60046739998506,236.60046739998506,2.2633641000138596,0.2005455000034999,,,,,,,,,,00043,001,2026-01-17_16h59.39.804,MST_task,2024.2.0,60.11121777875833,2026-01-17 16h59.49.108225 +0530,
,Objects\065a.jpg,33,0,34,,,,,,,j,None,,,2.2515724999830127,0.1918788000184577,,,,34,0,33,236.60046739998506,,,,,,,,,,,,,,,,,,,,,,,236.58453659998486,236.60046739998506,237.08389889998944,,,,,,,,,,,,,,237.10065569999279,,,,,,,,,,,,,237.0929608999868,237.10065569999279,237.10065569999279,237.10065569999279,240.084320199996,shoe,j,240.08436449998408,,,240.0843765999889,None,,,240.1004706999811,240.1004706999811,240.1004706999811,2.2515724999830127,0.1918788000184577,,,,,,,,,,00043,001,2026-01-17_16h59.39.804,MST_task,2024.2.0,60.11121777875833,2026-01-17 16h59.49.108225 +0530,
,Objects\128a.jpg,34,0,35,,,,,,,None,j,1.463855699985288,None,,,,,,35,0,34,240.1004706999811,,,,,,,,,,,,,,,,,,,,,,,240.0844810999988,240.1004706999811,240.58446539999568,,,,,,,,,,,,,,,,,,,,,,,,,,,240.5934648999828,240.60064079999574,240.60064079999574,240.60064079999574,243.58427409999422,shoe,None,243.58431239999481,243.6004699000041,243.6004699000041,245.06756389999646,j,1.463855699985288,None,243.6004699000041,243.6004699000041,243.6004699000041,,,,,,,,,,,,00043,001,2026-01-17_16h59.39.804,MST_task,2024.2.0,60.11121777875833,2026-01-17 16h59.49.108225 +0530,
,Objects\374a.jpg,35,0,36,,,,,,,None,j,0.8966128999891225,None,,,,,,36,0,35,245.0837249000033,,,,,,,,,,,,,,,,,,,,,,,245.06765219999943,245.0837249000033,245.56743349999306,,,,,,,,,,,,,,245.58419039999717,,,,,,,,,,,,,245.578955999983,245.58419039999717,245.58419039999717,245.58419039999717,248.5677055999986,indoor,None,248.56935189999058,248.58368730000802,248.58368730000802,249.4841793999949,j,0.8966128999891225,None,248.58368730000802,248.58368730000802,248.58368730000802,,,,,,,,,,,,00043,001,2026-01-17_16h59.39.804,MST_task,2024.2.0,60.11121777875833,2026-01-17 16h59.49.108225 +0530,
,Objects\305a.jpg,36,0,37,,,,,,,None,f,0.49617790000047535,None,,,,,,37,0,36,249.500435199996,,,,,,,,,,,,,,,,,,,,,,,249.484269699984,249.500435199996,249.98392319999402,,,,,,,,,,,,,,250.00081229998614,,,,,,,,,,,,,249.9931784000073,250.00081229998614,250.00081229998614,250.00081229998614,252.98422270000447,indoor,None,252.98426080000354,253.00048289998085,253.00048289998085,253.50104129998363,f,0.49617790000047535,None,253.00048289998085,253.00048289998085,253.00048289998085,,,,,,,,,,,,00043,001,2026-01-17_16h59.39.804,MST_task,2024.2.0,60.11121777875833,2026-01-17 16h59.49.108225 +0530,
,Objects\187a.jpg,37,0,38,,,,,,,j,None,,,1.5905343999911565,0.21600169999874197,,,,38,0,37,253.51713289998588,,,,,,,,,,,,,,,,,,,,,,,253.50112659999286,253.51713289998588,254.00074449999374,,,,,,,,,,,,,,254.01735670000198,,,,,,,,,,,,,254.0096142999828,254.01735670000198,254.01735670000198,254.01735670000198,257.0009528999799,indoor,j,257.000996799994,,,257.0010100000072,None,,,257.0171371999895,257.0171371999895,257.0171371999895,1.5905343999911565,0.21600169999874197,,,,,,,,,,00043,001,2026-01-17_16h59.39.804,MST_task,2024.2.0,60.11121777875833,2026-01-17 16h59.49.108225 +0530,
,Objects\061a.jpg,38,0,39,,,,,,,j,None,,,1.547282700019423,0.18326279998291284,,,,39,0,38,257.0171371999895,,,,,,,,,,,,,,,,,,,,,,,257.0010743000021,257.0171371999895,257.5008108000038,,,,,,,,,,,,,,257.51736189998337,,,,,,,,,,,,,257.50960719998693,257.51736189998337,257.51736189998337,257.51736189998337,260.5013181999966,indoor,j,260.5013626999862,,,260.5013751999941,None,,,260.51721530000214,260.51721530000214,260.51721530000214,1.547282700019423,0.18326279998291284,,,,,,,,,,00043,001,2026-01-17_16h59.39.804,MST_task,2024.2.0,60.11121777875833,2026-01-17 16h59.49.108225 +0530,
,Objects\201a.jpg,39,0,40,,,,,,,f,None,,,1.8062628000043333,0.1920543999876827,,,,40,0,39,260.51721530000214,,,,,,,,,,,,,,,,,,,,,,,260.5014399999927,260.51721530000214,261.000684300001,,,,,,,,,,,,,,261.0175404000038,,,,,,,,,,,,,261.0039186000067,261.0175404000038,261.0175404000038,261.0175404000038,264.0011358000047,indoor,f,264.0011823999812,,,264.00119439998525,None,,,264.01725299999816,264.01725299999816,264.01725299999816,1.8062628000043333,0.1920543999876827,,,,,,,,,,00043,001,2026-01-17_16h59.39.804,MST_task,2024.2.0,60.11121777875833,2026-01-17 16h59.49.108225 +0530,
,Objects\080a.jpg,40,0,41,,,,,,,j,None,,,1.161867999995593,0.14449920001788996,,,,41,0,40,264.01725299999816,,,,,,,,,,,,,,,,,,,,,,,264.00125780000235,264.01725299999816,264.50083249999443,,,,,,,,,,,,,,264.51778189998004,,,,,,,,,,,,,264.5107374000072,264.51778189998004,264.51778189998004,264.51778189998004,267.50148000000627,indoor,j,267.50153459998546,,,267.5015487000055,None,,,267.5172507999814,267.5172507999814,267.5172507999814,1.161867999995593,0.14449920001788996,,,,,,,,,,00043,001,2026-01-17_16h59.39.804,MST_task,2024.2.0,60.11121777875833,2026-01-17 16h59.49.108225 +0530,
,Objects\314a.jpg,41,0,42,,,,,,,None,j,0.974425299995346,None,,,,,,42,0,41,267.5172507999814,,,,,,,,,,,,,,,,,,,,,,,267.5016209000023,267.5172507999814,268.00082829999155,,,,,,,,,,,,,,268.01768019999145,,,,,,,,,,,,,268.01019840000663,268.01768019999145,268.01768019999145,268.01768019999145,271.0010646999872,indoor,None,271.001102899987,271.0172293999931,271.0172293999931,272.00110880000284,j,0.974425299995346,None,271.0172293999931,271.0172293999931,271.0172293999931,,,,,,,,,,,,00043,001,2026-01-17_16h59.39.804,MST_task,2024.2.0,60.11121777875833,2026-01-17 16h59.49.108225 +0530,
,Objects\210a.jpg,42,0,43,,,,,,,f,None,,,1.7626104999799281,0.11998690001200885,,,,43,0,42,272.017202499992,,,,,,,,,,,,,,,,,,,,,,,272.0012085000053,272.017202499992,272.50085320000653,,,,,,,,,,,,,,272.5176425999962,,,,,,,,,,,,,272.51405729999533,272.5176425999962,272.5176425999962,272.5176425999962,275.50125830000616,shoe,f,275.5033851999906,,,275.50340309998137,None,,,275.5171968000068,275.5171968000068,275.5171968000068,1.7626104999799281,0.11998690001200885,,,,,,,,,,00043,001,2026-01-17_16h59.39.804,MST_task,2024.2.0,60.11121777875833,2026-01-17 16h59.49.108225 +0530,
,Objects\126a.jpg,43,0,44,,,,,,,j,None,,,2.69472999998834,0.11201020001317374,,,,44,0,43,275.5171968000068,,,,,,,,,,,,,,,,,,,,,,,275.5034714000067,275.5171968000068,276.0008971999923,,,,,,,,,,,,,,276.01773759999196,,,,,,,,,,,,,276.01144569998723,276.01773759999196,276.01773759999196,276.01773759999196,279.001265400002,shoe,j,279.0013127999846,,,279.0013241999841,None,,,279.0172236000071,279.0172236000071,279.0172236000071,2.69472999998834,0.11201020001317374,,,,,,,,,,00043,001,2026-01-17_16h59.39.804,MST_task,2024.2.0,60.11121777875833,2026-01-17 16h59.49.108225 +0530,
,Objects\330a.jpg,44,0,45,,,,,,,j,None,,,1.0819956000195816,0.07999509997898713,,,,45,0,44,279.0172236000071,,,,,,,,,,,,,,,,,,,,,,,279.00138770000194,279.0172236000071,279.50081749999663,,,,,,,,,,,,,,279.5176624000014,,,,,,,,,,,,,279.51157239999156,279.5176624000014,279.5176624000014,279.5176624000014,282.5013343000028,shoe,j,282.50138099998003,,,282.50139389999094,None,,,282.51735209999606,282.51735209999606,282.51735209999606,1.0819956000195816,0.07999509997898713,,,,,,,,,,00043,001,2026-01-17_16h59.39.804,MST_task,2024.2.0,60.11121777875833,2026-01-17 16h59.49.108225 +0530,
,Objects\129a.jpg,45,0,46,,,,,,,f,None,,,1.0465952999948058,0.11144589999457821,,,,46,0,45,282.51735209999606,,,,,,,,,,,,,,,,,,,,,,,282.50145909999264,282.51735209999606,283.00073979998706,,,,,,,,,,,,,,283.01761469998746,,,,,,,,,,,,,283.0105045999808,283.01761469998746,283.01761469998746,283.01761469998746,286.0012238000054,shoe,f,286.0012721999956,,,286.00128470000345,None,,,286.0172925000079,286.0172925000079,286.0172925000079,1.0465952999948058,0.11144589999457821,,,,,,,,,,00043,001,2026-01-17_16h59.39.804,MST_task,2024.2.0,60.11121777875833,2026-01-17 16h59.49.108225 +0530,
,Objects\042a.jpg,46,0,47,,,,,,,j,None,,,1.226413099997444,0.11199570001917891,,,,47,0,46,286.0172925000079,,,,,,,,,,,,,,,,,,,,,,,286.00138199998764,286.0172925000079,286.50084719998995,,,,,,,,,,,,,,286.5174451000057,,,,,,,,,,,,,286.5103792999871,286.5174451000057,286.5174451000057,286.5174451000057,289.5010232999921,shoe,j,289.50106690000393,,,289.5010790999804,None,,,289.5172534000012,289.5172534000012,289.5172534000012,1.226413099997444,0.11199570001917891,,,,,,,,,,00043,001,2026-01-17_16h59.39.804,MST_task,2024.2.0,60.11121777875833,2026-01-17 16h59.49.108225 +0530,
,Objects\077a.jpg,47,0,48,,,,,,,j,None,,,2.071026499994332,0.12800810000044294,,,,48,0,47,289.5172534000012,,,,,,,,,,,,,,,,,,,,,,,289.5011440999806,289.5172534000012,290.0008411000017,,,,,,,,,,,,,,290.0175159999926,,,,,,,,,,,,,290.00995459998376,290.0175159999926,290.0175159999926,290.0175159999926,293.00110950000817,shoe,j,293.0011554999801,,,293.00116749998415,None,,,293.01727869999013,293.01727869999013,293.01727869999013,2.071026499994332,0.12800810000044294,,,,,,,,,,00043,001,2026-01-17_16h59.39.804,MST_task,2024.2.0,60.11121777875833,2026-01-17 16h59.49.108225 +0530,
,Objects\025a.jpg,48,0,49,,,,,,,j,None,,,0.9302760999999009,0.12113429998862557,,,,49,0,48,293.01727869999013,,,,,,,,,,,,,,,,,,,,,,,293.0012597999885,293.01727869999013,293.5013435999863,,,,,,,,,,,,,,293.51765719999094,,,,,,,,,,,,,293.5102232999925,293.51765719999094,293.51765719999094,293.51765719999094,296.50115659998846,shoe,j,296.5011993999942,,,296.5012113999983,None,,,296.517210799997,296.517210799997,296.517210799997,0.9302760999999009,0.12113429998862557,,,,,,,,,,00043,001,2026-01-17_16h59.39.804,MST_task,2024.2.0,60.11121777875833,2026-01-17 16h59.49.108225 +0530,
,Objects\277a.jpg,49,0,50,,,,,,,j,None,,,1.751415500009898,0.12664199998835102,,,,50,0,49,296.517210799997,,,,,,,,,,,,,,,,,,,,,,,296.5013052999857,296.517210799997,297.0008509999898,,,,,,,,,,,,,,297.0176295999845,,,,,,,,,,,,,297.0117026999942,297.0176295999845,297.0176295999845,297.0176295999845,300.00101740000537,indoor,j,300.00272240000777,,,300.0027439999976,None,,,300.01729519999935,300.01729519999935,300.01729519999935,1.751415500009898,0.12664199998835102,,,,,,,,,,00043,001,2026-01-17_16h59.39.804,MST_task,2024.2.0,60.11121777875833,2026-01-17 16h59.49.108225 +0530,
,Objects\286a.jpg,50,0,51,,,,,,,j,None,,,1.730508300010115,0.1356101999990642,,,,51,0,50,300.01729519999935,,,,,,,,,,,,,,,,,,,,,,,300.0028260999825,300.01729519999935,300.50066970000626,,,,,,,,,,,,,,300.5175389999931,,,,,,,,,,,,,300.50385079998523,300.5175389999931,300.5175389999931,300.5175389999931,303.5010464999941,indoor,j,303.5010917999898,,,303.50110439999844,None,,,303.5172870999959,303.5172870999959,303.5172870999959,1.730508300010115,0.1356101999990642,,,,,,,,,,00043,001,2026-01-17_16h59.39.804,MST_task,2024.2.0,60.11121777875833,2026-01-17 16h59.49.108225 +0530,
,Objects\079a.jpg,51,0,52,,,,,,,f,None,,,1.2542980999860447,0.13656840001931414,,,,52,0,51,303.5172870999959,,,,,,,,,,,,,,,,,,,,,,,303.50117040000623,303.5172870999959,304.00084819999756,,,,,,,,,,,,,,304.01767159998417,,,,,,,,,,,,,304.0108529999852,304.01767159998417,304.01767159998417,304.01767159998417,307.00107949998346,indoor,f,307.00112329999683,,,307.0011356000032,None,,,307.01726419999613,307.01726419999613,307.01726419999613,1.2542980999860447,0.13656840001931414,,,,,,,,,,00043,001,2026-01-17_16h59.39.804,MST_task,2024.2.0,60.11121777875833,2026-01-17 16h59.49.108225 +0530,
,Objects\030a.jpg,52,0,53,,,,,,,j,None,,,1.8507853999908548,0.1674283999891486,,,,53,0,52,307.01726419999613,,,,,,,,,,,,,,,,,,,,,,,307.001199899998,307.01726419999613,307.500807000004,,,,,,,,,,,,,,307.51750119999633,,,,,,,,,,,,,307.50998050000635,307.51750119999633,307.51750119999633,307.51750119999633,310.5011386999977,indoor,j,310.50118609998026,,,310.5011989999912,None,,,310.51721449999604,310.51721449999604,310.51721449999604,1.8507853999908548,0.1674283999891486,,,,,,,,,,00043,001,2026-01-17_16h59.39.804,MST_task,2024.2.0,60.11121777875833,2026-01-17 16h59.49.108225 +0530,
,Objects\329a.jpg,53,0,54,,,,,,,j,None,,,1.6066632999863941,0.13577260001329705,,,,54,0,53,310.51721449999604,,,,,,,,,,,,,,,,,,,,,,,310.50130259999423,310.51721449999604,311.0012007000041,,,,,,,,,,,,,,311.01772239999264,,,,,,,,,,,,,311.01241070000106,311.01772239999264,311.01772239999264,311.01772239999264,314.00115789999836,indoor,j,314.0012066999916,,,314.0012182999926,None,,,314.0173063999973,314.0173063999973,314.0173063999973,1.6066632999863941,0.13577260001329705,,,,,,,,,,00043,001,2026-01-17_16h59.39.804,MST_task,2024.2.0,60.11121777875833,2026-01-17 16h59.49.108225 +0530,
,Objects\267a.jpg,54,0,55,,,,,,,f,None,,,1.186279799992917,0.16901009998400696,,,,55,0,54,314.0173063999973,,,,,,,,,,,,,,,,,,,,,,,314.0012824999867,314.0173063999973,314.50084560000687,,,,,,,,,,,,,,314.5176494999905,,,,,,,,,,,,,314.51057499999297,314.5176494999905,314.5176494999905,314.5176494999905,317.50123120000353,indoor,f,317.5012776000076,,,317.5012894999818,None,,,317.51714879999054,317.51714879999054,317.51714879999054,1.186279799992917,0.16901009998400696,,,,,,,,,,00043,001,2026-01-17_16h59.39.804,MST_task,2024.2.0,60.11121777875833,2026-01-17 16h59.49.108225 +0530,
,Objects\186a.jpg,55,0,56,,,,,,,None,j,0.43067589998827316,None,,,,,,56,0,55,317.51714879999054,,,,,,,,,,,,,,,,,,,,,,,317.50135609999415,317.51714879999054,318.00104849998024,,,,,,,,,,,,,,318.0176050000009,,,,,,,,,,,,,318.0110597999883,318.0176050000009,318.0176050000009,318.0176050000009,321.0010953999881,indoor,None,321.0011358000047,321.01717750000535,321.01717750000535,321.4509557999845,j,0.43067589998827316,None,321.01717750000535,321.01717750000535,321.01717750000535,,,,,,,,,,,,00043,001,2026-01-17_16h59.39.804,MST_task,2024.2.0,60.11121777875833,2026-01-17 16h59.49.108225 +0530,
,Objects\270a.jpg,56,0,57,,,,,,,f,None,,,2.953064000001177,None,,,,57,0,56,321.46717240000726,,,,,,,,,,,,,,,,,,,,,,,321.4510387000046,321.46717240000726,321.9508290999802,,,,,,,,,,,,,,321.9676310000068,,,,,,,,,,,,,321.9561531000072,321.9676310000068,321.9676310000068,321.9676310000068,324.9512659999891,shoe,f,324.9534093999828,,,324.95342809997965,None,,,324.96716979998746,324.96716979998746,324.96716979998746,2.953064000001177,None,,,,,,,,,,00043,001,2026-01-17_16h59.39.804,MST_task,2024.2.0,60.11121777875833,2026-01-17 16h59.49.108225 +0530,
,Objects\096a.jpg,57,0,58,,,,,,,f,None,,,1.3003906999947503,0.1198654999898281,,,,58,0,57,324.96716979998746,,,,,,,,,,,,,,,,,,,,,,,324.9534939999867,324.96716979998746,325.4507500999898,,,,,,,,,,,,,,325.4675186999957,,,,,,,,,,,,,325.46108069998445,325.4675186999957,325.4675186999957,325.4675186999957,328.45095539998147,shoe,f,328.4509981999872,,,328.4510095999867,None,,,328.4671563000011,328.4671563000011,328.4671563000011,1.3003906999947503,0.1198654999898281,,,,,,,,,,00043,001,2026-01-17_16h59.39.804,MST_task,2024.2.0,60.11121777875833,2026-01-17 16h59.49.108225 +0530,
,Objects\120a.jpg,58,0,59,,,,,,,f,None,,,1.098031000001356,0.15110220000497065,,,,59,0,58,328.4671563000011,,,,,,,,,,,,,,,,,,,,,,,328.45107290000306,328.4671563000011,328.95076919998974,,,,,,,,,,,,,,328.9673810999957,,,,,,,,,,,,,328.9596714999934,328.9673810999957,328.9673810999957,328.9673810999957,331.9509376999922,shoe,f,331.95098130000406,,,331.9509931000066,None,,,331.9671323999937,331.9671323999937,331.9671323999937,1.098031000001356,0.15110220000497065,,,,,,,,,,00043,001,2026-01-17_16h59.39.804,MST_task,2024.2.0,60.11121777875833,2026-01-17 16h59.49.108225 +0530,
,Objects\333a.jpg,59,0,60,,,,,,,None,j,0.5091131000081077,None,,,,,,60,0,59,331.9671323999937,,,,,,,,,,,,,,,,,,,,,,,331.9510590999853,331.9671323999937,332.4509148999932,,,,,,,,,,,,,,332.46737289999146,,,,,,,,,,,,,332.4618205000006,332.46737289999146,332.46737289999146,332.46737289999146,335.4510447999928,shoe,None,335.4510825999896,335.4671742999926,335.4671742999926,335.98428919998696,j,0.5091131000081077,None,335.4671742999926,335.4671742999926,335.4671742999926,,,,,,,,,,,,00043,001,2026-01-17_16h59.39.804,MST_task,2024.2.0,60.11121777875833,2026-01-17 16h59.49.108225 +0530,
,Objects\364a.jpg,60,0,61,,,,,,,f,None,,,1.8028310000081547,0.1764623000053689,,,,61,0,60,336.0004265999887,,,,,,,,,,,,,,,,,,,,,,,335.984372899984,336.0004265999887,336.48391199999605,,,,,,,,,,,,,,336.50089659998775,,,,,,,,,,,,,336.4875301999855,336.50089659998775,336.50089659998775,336.50089659998775,339.48422839998966,shoe,f,339.4842714999977,,,339.4842839000048,None,,,339.50072219999856,339.50072219999856,339.50072219999856,1.8028310000081547,0.1764623000053689,,,,,,,,,,00043,001,2026-01-17_16h59.39.804,MST_task,2024.2.0,60.11121777875833,2026-01-17 16h59.49.108225 +0530,
,Objects\056a.jpg,61,0,62,,,,,,,f,None,,,2.5673627000069246,0.16006090000155382,,,,62,0,61,339.50072219999856,,,,,,,,,,,,,,,,,,,,,,,339.4843800999806,339.50072219999856,339.98394800000824,,,,,,,,,,,,,,340.0008090999909,,,,,,,,,,,,,339.9932867999887,340.0008090999909,340.0008090999909,340.0008090999909,342.9843752000015,shoe,f,342.984415599989,,,342.98442709998926,None,,,343.000435199996,343.000435199996,343.000435199996,2.5673627000069246,0.16006090000155382,,,,,,,,,,00043,001,2026-01-17_16h59.39.804,MST_task,2024.2.0,60.11121777875833,2026-01-17 16h59.49.108225 +0530,
,Objects\280a.jpg,62,0,63,,,,,,,f,None,,,0.8750401999859605,0.16151970002101734,,,,63,0,62,343.000435199996,,,,,,,,,,,,,,,,,,,,,,,342.9844901000033,343.000435199996,343.4838896000001,,,,,,,,,,,,,,343.5006848000048,,,,,,,,,,,,,343.49285099998815,343.5006848000048,343.5006848000048,343.5006848000048,346.4841652000032,shoe,f,346.4842079000082,,,346.48421989998315,None,,,346.5004980999802,346.5004980999802,346.5004980999802,0.8750401999859605,0.16151970002101734,,,,,,,,,,00043,001,2026-01-17_16h59.39.804,MST_task,2024.2.0,60.11121777875833,2026-01-17 16h59.49.108225 +0530,
,Objects\155a.jpg,63,0,64,,,,,,,f,None,,,0.7669377999845892,0.1280638000171166,,,,64,0,63,346.5004980999802,,,,,,,,,,,,,,,,,,,,,,,346.4842849999841,346.5004980999802,346.98392470000545,,,,,,,,,,,,,,347.00076540000737,,,,,,,,,,,,,346.99428230000194,347.00076540000737,347.00076540000737,347.00076540000737,349.9846422999981,indoor,f,349.9863828999805,,,349.9864016000065,None,,,350.0005167000054,350.0005167000054,350.0005167000054,0.7669377999845892,0.1280638000171166,,,,,,,,,,00043,001,2026-01-17_16h59.39.804,MST_task,2024.2.0,60.11121777875833,2026-01-17 16h59.49.108225 +0530,
,Objects\040a.jpg,64,0,65,,,,,,,f,None,,,2.619407100020908,0.18360219997703098,,,,65,0,64,350.0005167000054,,,,,,,,,,,,,,,,,,,,,,,349.98647390000406,350.0005167000054,350.48383149999427,,,,,,,,,,,,,,350.50073030000203,,,,,,,,,,,,,350.49239229998784,350.50073030000203,350.50073030000203,350.50073030000203,353.4842929999868,indoor,f,353.484335599991,,,353.4843475999951,None,,,353.5005547000037,353.5005547000037,353.5005547000037,2.619407100020908,0.18360219997703098,,,,,,,,,,00043,001,2026-01-17_16h59.39.804,MST_task,2024.2.0,60.11121777875833,2026-01-17 16h59.49.108225 +0530,
,Objects\235a.jpg,65,0,66,,,,,,,j,None,,,1.6797256999998353,0.16800019997754134,,,,66,0,65,353.5005547000037,,,,,,,,,,,,,,,,,,,,,,,353.4844117999892,353.5005547000037,353.98394619999453,,,,,,,,,,,,,,354.00086709999596,,,,,,,,,,,,,353.9935623999918,354.00086709999596,354.00086709999596,354.00086709999596,356.98429289998603,indoor,j,356.98433370000566,,,356.98434510000516,None,,,357.0005067999882,357.0005067999882,357.0005067999882,1.6797256999998353,0.16800019997754134,,,,,,,,,,00043,001,2026-01-17_16h59.39.804,MST_task,2024.2.0,60.11121777875833,2026-01-17 16h59.49.108225 +0530,
,Objects\355a.jpg,66,0,67,,,,,,,j,None,,,1.2515010999923106,0.15186049998737872,,,,67,0,66,357.0005067999882,,,,,,,,,,,,,,,,,,,,,,,356.98441010000533,357.0005067999882,357.4839224999887,,,,,,,,,,,,,,357.50093670000206,,,,,,,,,,,,,357.49343929998577,357.50093670000206,357.50093670000206,357.50093670000206,360.48429289998603,indoor,j,360.4843336000049,,,360.4843453000067,None,,,360.50050100000226,360.50050100000226,360.50050100000226,1.2515010999923106,0.15186049998737872,,,,,,,,,,00043,001,2026-01-17_16h59.39.804,MST_task,2024.2.0,60.11121777875833,2026-01-17 16h59.49.108225 +0530,
,Objects\260a.jpg,67,0,68,,,,,,,f,None,,,2.7363600000098813,0.14295349997701123,,,,68,0,67,360.50050100000226,,,,,,,,,,,,,,,,,,,,,,,360.4844085999939,360.50050100000226,360.98394069998176,,,,,,,,,,,,,,361.00083269999595,,,,,,,,,,,,,360.9930974000017,361.00083269999595,361.00083269999595,361.00083269999595,363.9843187999795,indoor,f,363.98435839999,,,363.98436969998875,None,,,364.0004485999816,364.0004485999816,364.0004485999816,2.7363600000098813,0.14295349997701123,,,,,,,,,,00043,001,2026-01-17_16h59.39.804,MST_task,2024.2.0,60.11121777875833,2026-01-17 16h59.49.108225 +0530,
,Objects\306a.jpg,68,0,69,,,,,,,f,None,,,1.115064200013876,0.13592739999876358,,,,69,0,68,364.0004485999816,,,,,,,,,,,,,,,,,,,,,,,363.98443379998207,364.0004485999816,364.4839629000053,,,,,,,,,,,,,,364.5009316999931,,,,,,,,,,,,,364.4932513999811,364.5009316999931,364.5009316999931,364.5009316999931,367.48436089997995,indoor,f,367.48441439997987,,,367.484426799987,None,,,367.500535500003,367.500535500003,367.500535500003,1.115064200013876,0.13592739999876358,,,,,,,,,,00043,001,2026-01-17_16h59.39.804,MST_task,2024.2.0,60.11121777875833,2026-01-17 16h59.49.108225 +0530,
,Objects\165a.jpg,69,0,70,,,,,,,f,None,,,1.9990623999910895,0.15189099998679012,,,,70,0,69,367.500535500003,,,,,,,,,,,,,,,,,,,,,,,367.4844918999879,367.500535500003,367.98394020000705,,,,,,,,,,,,,,368.0008289999969,,,,,,,,,,,,,367.99406110000564,368.0008289999969,368.0008289999969,368.0008289999969,370.98454179998953,indoor,f,370.9845878999913,,,370.984600900003,None,,,371.0005440999812,371.0005440999812,371.0005440999812,1.9990623999910895,0.15189099998679012,,,,,,,,,,00043,001,2026-01-17_16h59.39.804,MST_task,2024.2.0,60.11121777875833,2026-01-17 16h59.49.108225 +0530,
,Objects\352a.jpg,70,0,71,,,,,,,f,None,,,1.6187352999986615,0.1527189000044018,,,,71,0,70,371.0005440999812,,,,,,,,,,,,,,,,,,,,,,,370.98466879999614,371.0005440999812,371.48410299999523,,,,,,,,,,,,,,371.5009752000042,,,,,,,,,,,,,371.4962930000038,371.5009752000042,371.5009752000042,371.5009752000042,374.4845407999819,shoe,f,374.4866286999895,,,374.4866467999818,None,,,374.5005096999812,374.5005096999812,374.5005096999812,1.6187352999986615,0.1527189000044018,,,,,,,,,,00043,001,2026-01-17_16h59.39.804,MST_task,2024.2.0,60.11121777875833,2026-01-17 16h59.49.108225 +0530,
,Objects\130a.jpg,71,0,72,,,,,,,j,None,,,1.4951427000050899,0.18510450000758283,,,,72,0,71,374.5005096999812,,,,,,,,,,,,,,,,,,,,,,,374.4867130999919,374.5005096999812,374.9839498999936,,,,,,,,,,,,,,375.00082620000467,,,,,,,,,,,,,374.99451379998936,375.00082620000467,375.00082620000467,375.00082620000467,377.9843222000054,shoe,j,377.98436869998113,,,377.98438059998443,None,,,378.00050329999067,378.00050329999067,378.00050329999067,1.4951427000050899,0.18510450000758283,,,,,,,,,,00043,001,2026-01-17_16h59.39.804,MST_task,2024.2.0,60.11121777875833,2026-01-17 16h59.49.108225 +0530,
,Objects\004a.jpg,72,0,73,,,,,,,j,None,,,2.9319291999854613,None,,,,73,0,72,378.00050329999067,,,,,,,,,,,,,,,,,,,,,,,377.98444470000686,378.00050329999067,378.48402350000106,,,,,,,,,,,,,,378.50077029998647,,,,,,,,,,,,,378.4933317999821,378.50077029998647,378.50077029998647,378.50077029998647,381.48424580000574,shoe,j,381.4842923999822,,,381.48430349997943,None,,,381.5005192999961,381.5005192999961,381.5005192999961,2.9319291999854613,None,,,,,,,,,,00043,001,2026-01-17_16h59.39.804,MST_task,2024.2.0,60.11121777875833,2026-01-17 16h59.49.108225 +0530,
,Objects\071a.jpg,73,0,74,,,,,,,j,None,,,1.591004799993243,0.16794970000046305,,,,74,0,73,381.5005192999961,,,,,,,,,,,,,,,,,,,,,,,381.4843656999874,381.5005192999961,381.98394979999284,,,,,,,,,,,,,,382.00073339999653,,,,,,,,,,,,,381.99307709999266,382.00073339999653,382.00073339999653,382.00073339999653,384.9844950999832,shoe,j,384.98453630000586,,,384.9845485999831,None,,,385.00067379997927,385.00067379997927,385.00067379997927,1.591004799993243,0.16794970000046305,,,,,,,,,,00043,001,2026-01-17_16h59.39.804,MST_task,2024.2.0,60.11121777875833,2026-01-17 16h59.49.108225 +0530,
,Objects\048a.jpg,74,0,75,,,,,,,j,None,,,2.323722499975702,0.16794430001755245,,,,75,0,74,385.00067379997927,,,,,,,,,,,,,,,,,,,,,,,384.98464290000265,385.00067379997927,385.4841732000059,,,,,,,,,,,,,,385.5008936999948,,,,,,,,,,,,,385.4933505000081,385.5008936999948,385.5008936999948,385.5008936999948,388.4844019000011,shoe,j,388.4844422999886,,,388.4844541999919,None,,,388.5006161000056,388.5006161000056,388.5006161000056,2.323722499975702,0.16794430001755245,,,,,,,,,,00043,001,2026-01-17_16h59.39.804,MST_task,2024.2.0,60.11121777875833,2026-01-17 16h59.49.108225 +0530,
,Objects\154a.jpg,75,0,76,,,,,,,j,None,,,1.01559389999602,0.11910899999202229,,,,76,0,75,388.5006161000056,,,,,,,,,,,,,,,,,,,,,,,388.4845185999875,388.5006161000056,388.98408329999074,,,,,,,,,,,,,,389.00095429999055,,,,,,,,,,,,,388.99307629998657,389.00095429999055,389.00095429999055,389.00095429999055,391.9843408000015,shoe,j,391.9843830000027,,,391.98439510000753,None,,,392.0008627999923,392.0008627999923,392.0008627999923,1.01559389999602,0.11910899999202229,,,,,,,,,,00043,001,2026-01-17_16h59.39.804,MST_task,2024.2.0,60.11121777875833,2026-01-17 16h59.49.108225 +0530,
,Objects\005a.jpg,76,0,77,,,,,,,f,None,,,1.6674362999910954,0.1520862000179477,,,,77,0,76,392.0008627999923,,,,,,,,,,,,,,,,,,,,,,,391.98448919999646,392.0008627999923,392.4842505999841,,,,,,,,,,,,,,392.50082240000484,,,,,,,,,,,,,392.4958892999857,392.50082240000484,392.50082240000484,392.50082240000484,395.4845765999926,shoe,f,395.4846167000069,,,395.4846285999811,None,,,395.500546700001,395.500546700001,395.500546700001,1.6674362999910954,0.1520862000179477,,,,,,,,,,00043,001,2026-01-17_16h59.39.804,MST_task,2024.2.0,60.11121777875833,2026-01-17 16h59.49.108225 +0530,
,Objects\261a.jpg,77,0,78,,,,,,,f,None,,,1.0872765999811236,0.12862640002276748,,,,78,0,77,395.500546700001,,,,,,,,,,,,,,,,,,,,,,,395.4847268000012,395.500546700001,395.9841183999961,,,,,,,,,,,,,,396.00110900000436,,,,,,,,,,,,,395.99658669999917,396.00110900000436,396.00110900000436,396.00110900000436,398.9842699999863,indoor,f,398.9859867999912,,,398.98600330000045,None,,,399.00046749998,399.00046749998,399.00046749998,1.0872765999811236,0.12862640002276748,,,,,,,,,,00043,001,2026-01-17_16h59.39.804,MST_task,2024.2.0,60.11121777875833,2026-01-17 16h59.49.108225 +0530,
,Objects\190a.jpg,78,0,79,,,,,,,f,None,,,1.9166784000117332,0.1503272999834735,,,,79,0,78,399.00046749998,,,,,,,,,,,,,,,,,,,,,,,398.98607240000274,399.00046749998,399.4841369999922,,,,,,,,,,,,,,399.5008884999843,,,,,,,,,,,,,399.49384300000384,399.5008884999843,399.5008884999843,399.5008884999843,402.48430039998493,indoor,f,402.4843426999869,,,402.4843547999917,None,,,402.50062569999136,402.50062569999136,402.50062569999136,1.9166784000117332,0.1503272999834735,,,,,,,,,,00043,001,2026-01-17_16h59.39.804,MST_task,2024.2.0,60.11121777875833,2026-01-17 16h59.49.108225 +0530,
,Objects\162a.jpg,79,0,80,,,,,,,j,None,,,1.574733199988259,0.12852070000371896,,,,80,0,79,402.50062569999136,,,,,,,,,,,,,,,,,,,,,,,402.4844207999995,402.50062569999136,402.9840875999944,,,,,,,,,,,,,,403.00096539998776,,,,,,,,,,,,,402.9931852000009,403.00096539998776,403.00096539998776,403.00096539998776,405.9845629000047,indoor,j,405.9846072999935,,,405.9846191999968,None,,,406.0006121000042,406.0006121000042,406.0006121000042,1.574733199988259,0.12852070000371896,,,,,,,,,,00043,001,2026-01-17_16h59.39.804,MST_task,2024.2.0,60.11121777875833,2026-01-17 16h59.49.108225 +0530,
,Objects\316a.jpg,80,0,81,,,,,,,None,j,0.3069965000031516,None,,,,,,81,0,80,406.0006121000042,,,,,,,,,,,,,,,,,,,,,,,405.984684199997,406.0006121000042,406.4842134999926,,,,,,,,,,,,,,406.50096340000164,,,,,,,,,,,,,406.49344429999474,406.50096340000164,406.50096340000164,406.50096340000164,409.48475030000554,indoor,None,409.48479839999345,409.500698799995,409.500698799995,409.8177935999993,j,0.3069965000031516,None,409.500698799995,409.500698799995,409.500698799995,,,,,,,,,,,,00043,001,2026-01-17_16h59.39.804,MST_task,2024.2.0,60.11121777875833,2026-01-17 16h59.49.108225 +0530,
,Objects\090a.jpg,81,0,82,,,,,,,j,None,,,1.786680500023067,0.1279923999973107,,,,82,0,81,409.83407009998336,,,,,,,,,,,,,,,,,,,,,,,409.8178812999977,409.83407009998336,410.3175193000061,,,,,,,,,,,,,,410.3343354999961,,,,,,,,,,,,,410.3275677000056,410.3343354999961,410.3343354999961,410.3343354999961,413.31806220000726,indoor,j,413.31810849998146,,,413.3181215999939,None,,,413.3339675999887,413.3339675999887,413.3339675999887,1.786680500023067,0.1279923999973107,,,,,,,,,,00043,001,2026-01-17_16h59.39.804,MST_task,2024.2.0,60.11121777875833,2026-01-17 16h59.49.108225 +0530,
,Objects\149a.jpg,82,0,83,,,,,,,f,None,,,2.4697907000081614,0.11192849997314624,,,,83,0,82,413.3339675999887,,,,,,,,,,,,,,,,,,,,,,,413.3181865999941,413.3339675999887,413.81756989998394,,,,,,,,,,,,,,413.8344669000071,,,,,,,,,,,,,413.8271145999897,413.8344669000071,413.8344669000071,413.8344669000071,416.8178584999987,indoor,f,416.8178987999854,,,416.8179107999895,None,,,416.8338664000039,416.8338664000039,416.8338664000039,2.4697907000081614,0.11192849997314624,,,,,,,,,,00043,001,2026-01-17_16h59.39.804,MST_task,2024.2.0,60.11121777875833,2026-01-17 16h59.49.108225 +0530,
,Objects\332a.jpg,83,0,84,,,,,,,None,j,0.4984407000010833,None,,,,,,84,0,83,416.8338664000039,,,,,,,,,,,,,,,,,,,,,,,416.8179790999857,416.8338664000039,417.3175425999798,,,,,,,,,,,,,,417.33420049998676,,,,,,,,,,,,,417.3270998999942,417.33420049998676,417.33420049998676,417.33420049998676,420.31782599998405,indoor,None,420.31786479998846,420.33396769998944,420.33396769998944,420.8342063000018,j,0.4984407000010833,None,420.33396769998944,420.33396769998944,420.33396769998944,,,,,,,,,,,,00043,001,2026-01-17_16h59.39.804,MST_task,2024.2.0,60.11121777875833,2026-01-17 16h59.49.108225 +0530,
,Objects\334a.jpg,84,0,85,,,,,,,j,None,,,1.6485408999724314,0.13789500002167188,,,,85,0,84,420.8506344000052,,,,,,,,,,,,,,,,,,,,,,,420.83429259998957,420.8506344000052,421.33422950000386,,,,,,,,,,,,,,421.3510822999815,,,,,,,,,,,,,421.3463208999892,421.3510822999815,421.3510822999815,421.3510822999815,424.334860700008,shoe,j,424.3371164999844,,,424.3371344000043,None,,,424.35053289998905,424.35053289998905,424.35053289998905,1.6485408999724314,0.13789500002167188,,,,,,,,,,00043,001,2026-01-17_16h59.39.804,MST_task,2024.2.0,60.11121777875833,2026-01-17 16h59.49.108225 +0530,
,Objects\289a.jpg,85,0,86,,,,,,,f,None,,,1.4207876000145916,0.13706089998595417,,,,86,0,85,424.35053289998905,,,,,,,,,,,,,,,,,,,,,,,424.3372060999973,424.35053289998905,424.8342435999948,,,,,,,,,,,,,,424.8510779000062,,,,,,,,,,,,,424.844196799997,424.8510779000062,424.8510779000062,424.8510779000062,427.834624399984,shoe,f,427.83466520000366,,,427.8346772000077,None,,,427.8504750999855,427.8504750999855,427.8504750999855,1.4207876000145916,0.13706089998595417,,,,,,,,,,00043,001,2026-01-17_16h59.39.804,MST_task,2024.2.0,60.11121777875833,2026-01-17 16h59.49.108225 +0530,
,Objects\134a.jpg,86,0,87,,,,,,,j,None,,,2.433504599990556,0.15126720000989735,,,,87,0,86,427.8504750999855,,,,,,,,,,,,,,,,,,,,,,,427.8347405999957,427.8504750999855,428.3341494000051,,,,,,,,,,,,,,428.35092539998004,,,,,,,,,,,,,428.3439041999809,428.35092539998004,428.35092539998004,428.35092539998004,431.33433280000463,shoe,j,431.3343739999982,,,431.3343862000038,None,,,431.35065159999067,431.35065159999067,431.35065159999067,2.433504599990556,0.15126720000989735,,,,,,,,,,00043,001,2026-01-17_16h59.39.804,MST_task,2024.2.0,60.11121777875833,2026-01-17 16h59.49.108225 +0530,
,Objects\197a.jpg,87,0,88,,,,,,,j,None,,,1.2703704999876209,0.11101270001381636,,,,88,0,87,431.35065159999067,,,,,,,,,,,,,,,,,,,,,,,431.3344819000049,431.35065159999067,431.8342044999881,,,,,,,,,,,,,,431.850884399988,,,,,,,,,,,,,431.8434653999866,431.850884399988,431.850884399988,431.850884399988,434.8345765999984,shoe,j,434.83461789999274,,,434.83462919999147,None,,,434.85058179998305,434.85058179998305,434.85058179998305,1.2703704999876209,0.11101270001381636,,,,,,,,,,00043,001,2026-01-17_16h59.39.804,MST_task,2024.2.0,60.11121777875833,2026-01-17 16h59.49.108225 +0530,
,Objects\166a.jpg,88,0,89,,,,,,,j,None,,,2.4894217000110075,0.09714810000150464,,,,89,0,88,434.85058179998305,,,,,,,,,,,,,,,,,,,,,,,434.83472469999106,434.85058179998305,435.3340896999871,,,,,,,,,,,,,,435.35088579999865,,,,,,,,,,,,,435.3435698999965,435.35088579999865,435.35088579999865,435.35088579999865,438.33446320000803,shoe,j,438.33450349999475,,,438.3345152999973,None,,,438.3505692000035,438.3505692000035,438.3505692000035,2.4894217000110075,0.09714810000150464,,,,,,,,,,00043,001,2026-01-17_16h59.39.804,MST_task,2024.2.0,60.11121777875833,2026-01-17 16h59.49.108225 +0530,
,Objects\382a.jpg,89,0,90,,,,,,,j,None,,,2.4371479999972507,0.10393919999478385,,,,90,0,89,438.3505692000035,,,,,,,,,,,,,,,,,,,,,,,438.33461039999384,438.3505692000035,438.83419150000555,,,,,,,,,,,,,,438.85105810000096,,,,,,,,,,,,,438.84352269998635,438.85105810000096,438.85105810000096,438.85105810000096,441.83458269998664,shoe,j,441.83462670000154,,,441.83463909997954,None,,,441.8507381999807,441.8507381999807,441.8507381999807,2.4371479999972507,0.10393919999478385,,,,,,,,,,00043,001,2026-01-17_16h59.39.804,MST_task,2024.2.0,60.11121777875833,2026-01-17 16h59.49.108225 +0530,
,Objects\220a.jpg,90,0,91,,,,,,,f,None,,,2.2490057999966666,0.1359742000058759,,,,91,0,90,441.8507381999807,,,,,,,,,,,,,,,,,,,,,,,441.8347056999919,441.8507381999807,442.3340534000017,,,,,,,,,,,,,,442.35097400000086,,,,,,,,,,,,,442.3441680999822,442.35097400000086,442.35097400000086,442.35097400000086,445.3342992999824,shoe,f,445.33434000000125,,,445.3343513,None,,,445.35053060000064,445.35053060000064,445.35053060000064,2.2490057999966666,0.1359742000058759,,,,,,,,,,00043,001,2026-01-17_16h59.39.804,MST_task,2024.2.0,60.11121777875833,2026-01-17 16h59.49.108225 +0530,
,Objects\093a.jpg,91,0,92,,,,,,,j,None,,,1.5894731000007596,0.12795090000145137,,,,92,0,91,445.35053060000064,,,,,,,,,,,,,,,,,,,,,,,445.3344158999971,445.35053060000064,445.83409339998616,,,,,,,,,,,,,,445.8509179999819,,,,,,,,,,,,,445.84516999998596,445.8509179999819,445.8509179999819,445.8509179999819,448.83450169998105,indoor,j,448.83616169999004,,,448.83617949998006,None,,,448.85053419999895,448.85053419999895,448.85053419999895,1.5894731000007596,0.12795090000145137,,,,,,,,,,00043,001,2026-01-17_16h59.39.804,MST_task,2024.2.0,60.11121777875833,2026-01-17 16h59.49.108225 +0530,
,Objects\354a.jpg,92,0,93,,,,,,,f,None,,,1.5850508000003174,0.12850210000760853,,,,93,0,92,448.85053419999895,,,,,,,,,,,,,,,,,,,,,,,448.8362480000069,448.85053419999895,449.3340379000001,,,,,,,,,,,,,,449.35093549999874,,,,,,,,,,,,,449.3437664999801,449.35093549999874,449.35093549999874,449.35093549999874,452.33423629999743,indoor,f,452.3342776999925,,,452.33428949999507,None,,,452.3505282999831,452.3505282999831,452.3505282999831,1.5850508000003174,0.12850210000760853,,,,,,,,,,00043,001,2026-01-17_16h59.39.804,MST_task,2024.2.0,60.11121777875833,2026-01-17 16h59.49.108225 +0530,
,Objects\039a.jpg,93,0,94,,,,,,,j,None,,,1.7497494000126608,0.11106219998328015,,,,94,0,93,452.3505282999831,,,,,,,,,,,,,,,,,,,,,,,452.33435399999144,452.3505282999831,452.83403239998734,,,,,,,,,,,,,,452.8509029999841,,,,,,,,,,,,,452.8454906999832,452.8509029999841,452.8509029999841,452.8509029999841,455.834520400007,indoor,j,455.83456540000043,,,455.8345777000068,None,,,455.8505976999877,455.8505976999877,455.8505976999877,1.7497494000126608,0.11106219998328015,,,,,,,,,,00043,001,2026-01-17_16h59.39.804,MST_task,2024.2.0,60.11121777875833,2026-01-17 16h59.49.108225 +0530,
,Objects\372a.jpg,94,0,95,,,,,,,None,j,1.2974214999994729,None,,,,,,95,0,94,455.8505976999877,,,,,,,,,,,,,,,,,,,,,,,455.8346443999908,455.8505976999877,456.3339607999951,,,,,,,,,,,,,,456.3509505999973,,,,,,,,,,,,,456.3455535999965,456.3509505999973,456.3509505999973,456.3509505999973,459.33431279999786,indoor,None,459.3343498999893,459.3504687999957,459.3504687999957,460.651028399996,j,1.2974214999994729,None,459.3504687999957,459.3504687999957,459.3504687999957,,,,,,,,,,,,00043,001,2026-01-17_16h59.39.804,MST_task,2024.2.0,60.11121777875833,2026-01-17 16h59.49.108225 +0530,
,Objects\144a.jpg,95,0,96,,,,,,,j,None,,,1.969635899993591,0.1679856000118889,,,,96,0,95,460.6671343999915,,,,,,,,,,,,,,,,,,,,,,,460.6511180999805,460.6671343999915,461.15093149998575,,,,,,,,,,,,,,461.1675955999817,,,,,,,,,,,,,461.16113049999694,461.1675955999817,461.1675955999817,461.1675955999817,464.1513612999988,indoor,j,464.1514082000067,,,464.1514213999908,None,,,464.1672338999924,464.1672338999924,464.1672338999924,1.969635899993591,0.1679856000118889,,,,,,,,,,00043,001,2026-01-17_16h59.39.804,MST_task,2024.2.0,60.11121777875833,2026-01-17 16h59.49.108225 +0530,
,Objects\367a.jpg,96,0,97,,,,,,,f,None,,,1.2931619000155479,0.1281944999936968,,,,97,0,96,464.1672338999924,,,,,,,,,,,,,,,,,,,,,,,464.1514876000001,464.1672338999924,464.6509771999845,,,,,,,,,,,,,,464.6676060000027,,,,,,,,,,,,,464.66027799999574,464.6676060000027,464.6676060000027,464.6676060000027,467.6510852999927,indoor,f,467.65112659998704,,,467.6511380999873,None,,,467.6672054999799,467.6672054999799,467.6672054999799,1.2931619000155479,0.1281944999936968,,,,,,,,,,00043,001,2026-01-17_16h59.39.804,MST_task,2024.2.0,60.11121777875833,2026-01-17 16h59.49.108225 +0530,
,Objects\231a.jpg,97,0,98,,,,,,,j,None,,,1.6331479999935254,0.11918150002020411,,,,98,0,97,467.6672054999799,,,,,,,,,,,,,,,,,,,,,,,467.6512129000039,467.6672054999799,468.150820299983,,,,,,,,,,,,,,468.1675391999888,,,,,,,,,,,,,468.15989119998994,468.1675391999888,468.1675391999888,468.1675391999888,471.1511934000009,indoor,j,471.1512371999852,,,471.15124929999,None,,,471.16723590000765,471.16723590000765,471.16723590000765,1.6331479999935254,0.11918150002020411,,,,,,,,,,00043,001,2026-01-17_16h59.39.804,MST_task,2024.2.0,60.11121777875833,2026-01-17 16h59.49.108225 +0530,
,Objects\023a.jpg,98,0,99,,,,,,,None,f,0.7728916000050958,None,,,,,,99,0,98,471.16723590000765,,,,,,,,,,,,,,,,,,,,,,,471.1513173999847,471.16723590000765,471.6507544000051,,,,,,,,,,,,,,471.66749389999313,,,,,,,,,,,,,471.6628764999914,471.66749389999313,471.66749389999313,471.66749389999313,474.6513778999797,shoe,None,474.6535493999836,474.6672086000035,474.6672086000035,475.45088659998146,f,0.7728916000050958,None,474.6672086000035,474.6672086000035,474.6672086000035,,,,,,,,,,,,00043,001,2026-01-17_16h59.39.804,MST_task,2024.2.0,60.11121777875833,2026-01-17 16h59.49.108225 +0530,
,Objects\326a.jpg,99,0,100,,,,,,,f,None,,,2.2649473999917973,0.13589910001610406,,,,100,0,99,475.46720499999356,,,,,,,,,,,,,,,,,,,,,,,475.45097169998917,475.46720499999356,475.95069900000817,,,,,,,,,,,,,,475.9675891000079,,,,,,,,,,,,,475.96177560000797,475.9675891000079,475.9675891000079,475.9675891000079,478.95110579999164,shoe,f,478.9511477999913,,,478.95115979999537,None,,,478.96713259999524,478.96713259999524,478.96713259999524,2.2649473999917973,0.13589910001610406,,,,,,,,,,00043,001,2026-01-17_16h59.39.804,MST_task,2024.2.0,60.11121777875833,2026-01-17 16h59.49.108225 +0530,
,Objects\119a.jpg,100,0,101,,,,,,,None,f,0.8131935999845155,None,,,,,,101,0,100,478.96713259999524,,,,,,,,,,,,,,,,,,,,,,,478.95122399998945,478.96713259999524,479.45088659998146,,,,,,,,,,,,,,479.46744409998064,,,,,,,,,,,,,479.46033840000746,479.46744409998064,479.46744409998064,479.46744409998064,482.4510025999916,shoe,None,482.4510401999869,482.4672239999927,482.4672239999927,483.2841724999889,f,0.8131935999845155,None,482.4672239999927,482.4672239999927,482.4672239999927,,,,,,,,,,,,00043,001,2026-01-17_16h59.39.804,MST_task,2024.2.0,60.11121777875833,2026-01-17 16h59.49.108225 +0530,
,Objects\273a.jpg,101,0,102,,,,,,,j,None,,,1.3110574999882374,0.14398849999997765,,,,102,0,101,483.3004835000029,,,,,,,,,,,,,,,,,,,,,,,483.2843884000031,483.3004835000029,483.7840648999845,,,,,,,,,,,,,,483.80073590000393,,,,,,,,,,,,,483.79323379998095,483.80073590000393,483.80073590000393,483.80073590000393,486.7843779999821,shoe,j,486.78441979998024,,,486.78443189998507,None,,,486.8005424999865,486.8005424999865,486.8005424999865,1.3110574999882374,0.14398849999997765,,,,,,,,,,00043,001,2026-01-17_16h59.39.804,MST_task,2024.2.0,60.11121777875833,2026-01-17 16h59.49.108225 +0530,
,Objects\212a.jpg,102,0,103,,,,,,,j,None,,,1.323147599992808,0.1275651000032667,,,,103,0,102,486.8005424999865,,,,,,,,,,,,,,,,,,,,,,,486.78449580000597,486.8005424999865,487.2840564000071,,,,,,,,,,,,,,487.30097179999575,,,,,,,,,,,,,487.2936305000039,487.30097179999575,487.30097179999575,487.30097179999575,490.28440169998794,shoe,j,490.28444439999294,,,490.2844558999932,None,,,490.30049080000026,490.30049080000026,490.30049080000026,1.323147599992808,0.1275651000032667,,,,,,,,,,00043,001,2026-01-17_16h59.39.804,MST_task,2024.2.0,60.11121777875833,2026-01-17 16h59.49.108225 +0530,
,Objects\213a.jpg,103,0,104,,,,,,,f,None,,,0.8629252999962773,0.1121209999837447,,,,104,0,103,490.30049080000026,,,,,,,,,,,,,,,,,,,,,,,490.28452019998804,490.30049080000026,490.7840649999853,,,,,,,,,,,,,,490.8009204999835,,,,,,,,,,,,,490.79459209999186,490.8009204999835,490.8009204999835,490.8009204999835,493.7845000999805,shoe,f,493.7845544999873,,,493.784567900002,None,,,493.8005988000077,493.8005988000077,493.8005988000077,0.8629252999962773,0.1121209999837447,,,,,,,,,,00043,001,2026-01-17_16h59.39.804,MST_task,2024.2.0,60.11121777875833,2026-01-17 16h59.49.108225 +0530,
,Objects\146a.jpg,104,0,105,,,,,,,j,None,,,0.9068717999907676,0.10399790000519715,,,,105,0,104,493.8005988000077,,,,,,,,,,,,,,,,,,,,,,,493.78463579999516,493.8005988000077,494.2839843999827,,,,,,,,,,,,,,494.30094379998627,,,,,,,,,,,,,494.2938613999868,494.30094379998627,494.30094379998627,494.30094379998627,497.28439650000655,shoe,j,497.2844372999971,,,497.28444879999734,None,,,497.3004753999994,497.3004753999994,497.3004753999994,0.9068717999907676,0.10399790000519715,,,,,,,,,,00043,001,2026-01-17_16h59.39.804,MST_task,2024.2.0,60.11121777875833,2026-01-17 16h59.49.108225 +0530,
,Objects\076a.jpg,105,0,106,,,,,,,None,j,0.28793120000045747,None,,,,,,106,0,105,497.3004753999994,,,,,,,,,,,,,,,,,,,,,,,497.2845127999899,497.3004753999994,497.78395690000616,,,,,,,,,,,,,,497.8007723999908,,,,,,,,,,,,,497.79450309998356,497.8007723999908,497.8007723999908,497.8007723999908,500.7842232999974,indoor,None,500.7859411999816,500.8005478999985,500.8005478999985,501.1009783000045,j,0.28793120000045747,None,500.8005478999985,500.8005478999985,500.8005478999985,,,,,,,,,,,,00043,001,2026-01-17_16h59.39.804,MST_task,2024.2.0,60.11121777875833,2026-01-17 16h59.49.108225 +0530,
,Objects\193a.jpg,106,0,107,,,,,,,f,None,,,2.383042600005865,0.15201150000211783,,,,107,0,106,501.1172021999955,,,,,,,,,,,,,,,,,,,,,,,501.1010607999924,501.1172021999955,501.60084050000296,,,,,,,,,,,,,,501.6174885999935,,,,,,,,,,,,,501.60998959999415,501.6174885999935,501.6174885999935,501.6174885999935,504.60107229999267,indoor,f,504.6011145999946,,,504.60112720000325,None,,,504.61746009998024,504.61746009998024,504.61746009998024,2.383042600005865,0.15201150000211783,,,,,,,,,,00043,001,2026-01-17_16h59.39.804,MST_task,2024.2.0,60.11121777875833,2026-01-17 16h59.49.108225 +0530,
,Objects\311a.jpg,107,0,108,,,,,,,None,j,0.21985809999750927,None,,,,,,108,0,107,504.61746009998024,,,,,,,,,,,,,,,,,,,,,,,504.60119029998896,504.61746009998024,505.1008506999933,,,,,,,,,,,,,,505.1175833999878,,,,,,,,,,,,,505.1102401999815,505.1175833999878,505.1175833999878,505.1175833999878,508.1011992999993,indoor,None,508.10123639999074,508.11724089999916,508.11724089999916,508.35108759999275,j,0.21985809999750927,None,508.11724089999916,508.11724089999916,508.11724089999916,,,,,,,,,,,,00043,001,2026-01-17_16h59.39.804,MST_task,2024.2.0,60.11121777875833,2026-01-17 16h59.49.108225 +0530,
,Objects\010a.jpg,108,0,109,,,,,,,f,None,,,1.781318099994678,0.1510069000069052,,,,109,0,108,508.3672347999818,,,,,,,,,,,,,,,,,,,,,,,508.3511710999883,508.3672347999818,508.85092739999527,,,,,,,,,,,,,,508.8675732999982,,,,,,,,,,,,,508.85996629999136,508.8675732999982,508.8675732999982,508.8675732999982,511.8511521999899,indoor,f,511.85119449999183,,,511.8512069999997,None,,,511.8673499999859,511.8673499999859,511.8673499999859,1.781318099994678,0.1510069000069052,,,,,,,,,,00043,001,2026-01-17_16h59.39.804,MST_task,2024.2.0,60.11121777875833,2026-01-17 16h59.49.108225 +0530,
,Objects\272a.jpg,109,0,110,,,,,,,j,None,,,2.1283997999853455,0.19176410001819022,,,,110,0,109,511.8673499999859,,,,,,,,,,,,,,,,,,,,,,,511.8512725000037,511.8673499999859,512.3508492999827,,,,,,,,,,,,,,512.3677791999944,,,,,,,,,,,,,512.3599269999831,512.3677791999944,512.3677791999944,512.3677791999944,515.3510902999842,indoor,j,515.3511340999976,,,515.3511460000009,None,,,515.3673373000056,515.3673373000056,515.3673373000056,2.1283997999853455,0.19176410001819022,,,,,,,,,,00043,001,2026-01-17_16h59.39.804,MST_task,2024.2.0,60.11121777875833,2026-01-17 16h59.49.108225 +0530,
,Objects\205a.jpg,110,0,111,,,,,,,f,None,,,1.4054117999912705,0.1989272000209894,,,,111,0,110,515.3673373000056,,,,,,,,,,,,,,,,,,,,,,,515.3512120999803,515.3673373000056,515.8509135000058,,,,,,,,,,,,,,515.8676545000053,,,,,,,,,,,,,515.8621994999994,515.8676545000053,515.8676545000053,515.8676545000053,518.8511021999875,indoor,f,518.8511439999857,,,518.851155899989,None,,,518.867341300007,518.867341300007,518.867341300007,1.4054117999912705,0.1989272000209894,,,,,,,,,,00043,001,2026-01-17_16h59.39.804,MST_task,2024.2.0,60.11121777875833,2026-01-17 16h59.49.108225 +0530,
,Objects\328a.jpg,111,0,112,,,,,,,j,None,,,1.1923045000003185,0.1280278000049293,,,,112,0,111,518.867341300007,,,,,,,,,,,,,,,,,,,,,,,518.8512214999937,518.867341300007,519.3508220999793,,,,,,,,,,,,,,519.3676269999996,,,,,,,,,,,,,519.3609711999889,519.3676269999996,519.3676269999996,519.3676269999996,522.3512140999956,indoor,j,522.3512714999961,,,522.3512836000009,None,,,522.3673143000051,522.3673143000051,522.3673143000051,1.1923045000003185,0.1280278000049293,,,,,,,,,,00043,001,2026-01-17_16h59.39.804,MST_task,2024.2.0,60.11121777875833,2026-01-17 16h59.49.108225 +0530,
,Objects\234a.jpg,112,0,113,,,,,,,j,None,,,1.6202426999807358,0.11999130001640879,,,,113,0,112,522.3673143000051,,,,,,,,,,,,,,,,,,,,,,,522.3513483999996,522.3673143000051,522.8509384999925,,,,,,,,,,,,,,522.8674906999804,,,,,,,,,,,,,522.8625331000076,522.8674906999804,522.8674906999804,522.8674906999804,525.8513261000044,shoe,j,525.8534362000064,,,525.8534530999896,None,,,525.8674364000035,525.8674364000035,525.8674364000035,1.6202426999807358,0.11999130001640879,,,,,,,,,,00043,001,2026-01-17_16h59.39.804,MST_task,2024.2.0,60.11121777875833,2026-01-17 16h59.49.108225 +0530,
,Objects\037a.jpg,113,0,114,,,,,,,f,None,,,1.6089407000108622,0.1599082000029739,,,,114,0,113,525.8674364000035,,,,,,,,,,,,,,,,,,,,,,,525.8535210999835,525.8674364000035,526.350835099991,,,,,,,,,,,,,,526.3674403000041,,,,,,,,,,,,,526.3605279999902,526.3674403000041,526.3674403000041,526.3674403000041,529.351179099991,shoe,f,529.351222199999,,,529.3512338,None,,,529.367367800005,529.367367800005,529.367367800005,1.6089407000108622,0.1599082000029739,,,,,,,,,,00043,001,2026-01-17_16h59.39.804,MST_task,2024.2.0,60.11121777875833,2026-01-17 16h59.49.108225 +0530,
,Objects\344a.jpg,114,0,115,,,,,,,j,None,,,1.708515799982706,0.14505490000010468,,,,115,0,114,529.367367800005,,,,,,,,,,,,,,,,,,,,,,,529.3513302000065,529.367367800005,529.8508871999802,,,,,,,,,,,,,,529.867706399993,,,,,,,,,,,,,529.8604394999857,529.867706399993,529.867706399993,529.867706399993,532.8511758999957,shoe,j,532.8512170999893,,,532.8512291999941,None,,,532.8673401999986,532.8673401999986,532.8673401999986,1.708515799982706,0.14505490000010468,,,,,,,,,,00043,001,2026-01-17_16h59.39.804,MST_task,2024.2.0,60.11121777875833,2026-01-17 16h59.49.108225 +0530,
,Objects\172a.jpg,115,0,116,,,,,,,j,None,,,2.30475780001143,0.15944789999048226,,,,116,0,115,532.8673401999986,,,,,,,,,,,,,,,,,,,,,,,532.8512943999958,532.8673401999986,533.3508629999997,,,,,,,,,,,,,,533.3675607999903,,,,,,,,,,,,,533.3604524999973,533.3675607999903,533.3675607999903,533.3675607999903,536.3510166000051,shoe,j,536.3510580000002,,,536.3510696000012,None,,,536.367228099989,536.367228099989,536.367228099989,2.30475780001143,0.15944789999048226,,,,,,,,,,00043,001,2026-01-17_16h59.39.804,MST_task,2024.2.0,60.11121777875833,2026-01-17 16h59.49.108225 +0530,
,Objects\041a.jpg,116,0,117,,,,,,,j,None,,,1.3414506999833975,0.15172480000182986,,,,117,0,116,536.367228099989,,,,,,,,,,,,,,,,,,,,,,,536.3511636999901,536.367228099989,536.8508790000051,,,,,,,,,,,,,,536.8674094000016,,,,,,,,,,,,,536.8599052999925,536.8674094000016,536.8674094000016,536.8674094000016,539.8510938999825,shoe,j,539.8511349000037,,,539.8511465000047,None,,,539.8672196999833,539.8672196999833,539.8672196999833,1.3414506999833975,0.15172480000182986,,,,,,,,,,00043,001,2026-01-17_16h59.39.804,MST_task,2024.2.0,60.11121777875833,2026-01-17 16h59.49.108225 +0530,
,Objects\078a.jpg,117,0,118,,,,,,,j,None,,,1.2167300999863073,0.16008800000417978,,,,118,0,117,539.8672196999833,,,,,,,,,,,,,,,,,,,,,,,539.851242100005,539.8672196999833,540.3508203999954,,,,,,,,,,,,,,540.3674229999888,,,,,,,,,,,,,540.3600822000008,540.3674229999888,540.3674229999888,540.3674229999888,543.3511319999816,shoe,j,543.3511731000035,,,543.3511850000068,None,,,543.3671591999882,543.3671591999882,543.3671591999882,1.2167300999863073,0.16008800000417978,,,,,,,,,,00043,001,2026-01-17_16h59.39.804,MST_task,2024.2.0,60.11121777875833,2026-01-17 16h59.49.108225 +0530,
,Objects\232a.jpg,118,0,119,,,,,,,f,None,,,1.9961159999947995,0.12823850000859238,,,,119,0,118,543.3671591999882,,,,,,,,,,,,,,,,,,,,,,,543.3512484999956,543.3671591999882,543.8508163999941,,,,,,,,,,,,,,543.8675846999977,,,,,,,,,,,,,543.8606631000002,543.8675846999977,543.8675846999977,543.8675846999977,546.851171199989,shoe,f,546.8512143999978,,,546.8512267000042,None,,,546.8671670999902,546.8671670999902,546.8671670999902,1.9961159999947995,0.12823850000859238,,,,,,,,,,00043,001,2026-01-17_16h59.39.804,MST_task,2024.2.0,60.11121777875833,2026-01-17 16h59.49.108225 +0530,
,Objects\315a.jpg,119,0,120,,,,,,,f,None,,,2.56879520000075,0.145234800002072,,,,120,0,119,546.8671670999902,,,,,,,,,,,,,,,,,,,,,,,546.8512900999922,546.8671670999902,547.3510822999815,,,,,,,,,,,,,,547.3676109999942,,,,,,,,,,,,,547.3622510999849,547.3676109999942,547.3676109999942,547.3676109999942,550.3510720999911,indoor,f,550.3527637999796,,,550.352782300004,None,,,550.3671775999828,550.3671775999828,550.3671775999828,2.56879520000075,0.145234800002072,,,,,,,,,,00043,001,2026-01-17_16h59.39.804,MST_task,2024.2.0,60.11121777875833,2026-01-17 16h59.49.108225 +0530,
,Objects\368a.jpg,120,0,121,,,,,,,j,None,,,2.749148699978832,0.1350084000150673,,,,121,0,120,550.3671775999828,,,,,,,,,,,,,,,,,,,,,,,550.3528503999987,550.3671775999828,550.8507994999818,,,,,,,,,,,,,,550.8676738000067,,,,,,,,,,,,,550.8603537000017,550.8676738000067,550.8676738000067,550.8676738000067,553.8510958999977,indoor,j,553.8511374999944,,,553.8511497,None,,,553.8671667999879,553.8671667999879,553.8671667999879,2.749148699978832,0.1350084000150673,,,,,,,,,,00043,001,2026-01-17_16h59.39.804,MST_task,2024.2.0,60.11121777875833,2026-01-17 16h59.49.108225 +0530,
,Objects\138a.jpg,121,0,122,,,,,,,j,None,,,2.58443410001928,0.12043109998921864,,,,122,0,121,553.8671667999879,,,,,,,,,,,,,,,,,,,,,,,553.8512144999986,553.8671667999879,554.3509629000037,,,,,,,,,,,,,,554.367631400004,,,,,,,,,,,,,554.3606433999958,554.367631400004,554.367631400004,554.367631400004,557.351022399991,indoor,j,557.3510655999999,,,557.351078000007,None,,,557.367230600008,557.367230600008,557.367230600008,2.58443410001928,0.12043109998921864,,,,,,,,,,00043,001,2026-01-17_16h59.39.804,MST_task,2024.2.0,60.11121777875833,2026-01-17 16h59.49.108225 +0530,
,Objects\102a.jpg,122,0,123,,,,,,,f,None,,,1.036161500000162,0.13679939997382462,,,,123,0,122,557.367230600008,,,,,,,,,,,,,,,,,,,,,,,557.3511426000041,557.367230600008,557.8508003999887,,,,,,,,,,,,,,557.8675373999868,,,,,,,,,,,,,557.8600539999898,557.8675373999868,557.8675373999868,557.8675373999868,560.8510152999952,indoor,f,560.851059699984,,,560.8510713999858,None,,,560.8672263000044,560.8672263000044,560.8672263000044,1.036161500000162,0.13679939997382462,,,,,,,,,,00043,001,2026-01-17_16h59.39.804,MST_task,2024.2.0,60.11121777875833,2026-01-17 16h59.49.108225 +0530,
,Objects\224a.jpg,123,0,124,,,,,,,j,None,,,2.2642932000162546,0.160041099996306,,,,124,0,123,560.8672263000044,,,,,,,,,,,,,,,,,,,,,,,560.8511360999837,560.8672263000044,561.3507916999806,,,,,,,,,,,,,,561.367732099985,,,,,,,,,,,,,561.3602890000038,561.367732099985,561.367732099985,561.367732099985,564.3513380999793,indoor,j,564.3513811999874,,,564.3513929999899,None,,,564.3672439999937,564.3672439999937,564.3672439999937,2.2642932000162546,0.160041099996306,,,,,,,,,,00043,001,2026-01-17_16h59.39.804,MST_task,2024.2.0,60.11121777875833,2026-01-17 16h59.49.108225 +0530,
,Objects\209a.jpg,124,0,125,,,,,,,f,None,,,2.532328899978893,0.15210780000779778,,,,125,0,124,564.3672439999937,,,,,,,,,,,,,,,,,,,,,,,564.3514703999972,564.3672439999937,564.8507542999869,,,,,,,,,,,,,,564.8676675999886,,,,,,,,,,,,,564.8608428000007,564.8676675999886,564.8676675999886,564.8676675999886,567.8511652000016,indoor,f,567.8512069999997,,,567.8512190000038,None,,,567.8672436999914,567.8672436999914,567.8672436999914,2.532328899978893,0.15210780000779778,,,,,,,,,,00043,001,2026-01-17_16h59.39.804,MST_task,2024.2.0,60.11121777875833,2026-01-17 16h59.49.108225 +0530,
,Objects\350a.jpg,125,0,126,,,,,,,None,j,0.3287795000069309,None,,,,,,126,0,125,567.8672436999914,,,,,,,,,,,,,,,,,,,,,,,567.8512835000001,567.8672436999914,568.3508164999948,,,,,,,,,,,,,,568.3676548999792,,,,,,,,,,,,,568.360565799987,568.3676548999792,568.3676548999792,568.3676548999792,571.3511758999957,indoor,None,571.3512133999902,571.3671920000052,571.3671920000052,571.7009619000019,j,0.3287795000069309,None,571.3671920000052,571.3671920000052,571.3671920000052,,,,,,,,,,,,00043,001,2026-01-17_16h59.39.804,MST_task,2024.2.0,60.11121777875833,2026-01-17 16h59.49.108225 +0530,
,Objects\099a.jpg,126,0,127,,,,,,,None,j,0.046692200005054474,None,,,,,,127,0,126,571.7171542999859,,,,,,,,,,,,,,,,,,,,,,,571.7010491999972,571.7171542999859,572.2008354999998,,,,,,,,,,,,,,572.2176239999826,,,,,,,,,,,,,572.2133081000065,572.2176239999826,572.2176239999826,572.2176239999826,575.2013507999945,shoe,None,575.2034744999837,575.2171827999991,575.2171827999991,575.2675788000051,j,0.046692200005054474,None,575.2171827999991,575.2171827999991,575.2171827999991,,,,,,,,,,,,00043,001,2026-01-17_16h59.39.804,MST_task,2024.2.0,60.11121777875833,2026-01-17 16h59.49.108225 +0530,
,Objects\230a.jpg,127,0,128,,,,,,,j,None,,,1.1759735000086948,0.12803219998022541,,,,128,0,127,575.2837266999995,,,,,,,,,,,,,,,,,,,,,,,575.2676586000016,575.2837266999995,575.7675340999849,,,,,,,,,,,,,,575.7842354000022,,,,,,,,,,,,,575.7786425999948,575.7842354000022,575.7842354000022,575.7842354000022,578.7680400999961,shoe,j,578.7680838999804,,,578.768096099986,None,,,578.7839258000022,578.7839258000022,578.7839258000022,1.1759735000086948,0.12803219998022541,,,,,,,,,,00043,001,2026-01-17_16h59.39.804,MST_task,2024.2.0,60.11121777875833,2026-01-17 16h59.49.108225 +0530,
,Objects\063a.jpg,128,0,129,,,,,,,f,None,,,1.7405349000182468,0.11999959999229759,,,,129,0,128,578.7839258000022,,,,,,,,,,,,,,,,,,,,,,,578.7681922999909,578.7839258000022,579.2673841000069,,,,,,,,,,,,,,579.2841163999983,,,,,,,,,,,,,579.2778583999898,579.2841163999983,579.2841163999983,579.2841163999983,582.2678134999878,shoe,f,582.2678547999822,,,582.2678664999839,None,,,582.2837626999826,582.2837626999826,582.2837626999826,1.7405349000182468,0.11999959999229759,,,,,,,,,,00043,001,2026-01-17_16h59.39.804,MST_task,2024.2.0,60.11121777875833,2026-01-17 16h59.49.108225 +0530,
,Objects\158a.jpg,129,0,130,,,,,,,None,f,0.08858229999896139,None,,,,,,130,0,129,582.2837626999826,,,,,,,,,,,,,,,,,,,,,,,582.2679611000058,582.2837626999826,582.767433800007,,,,,,,,,,,,,,582.7841449999833,,,,,,,,,,,,,582.7768664000032,582.7841449999833,582.7841449999833,582.7841449999833,585.7678575000027,shoe,None,585.7678964000079,585.7838447999966,585.7838447999966,585.8842478999868,f,0.08858229999896139,None,585.7838447999966,585.7838447999966,585.7838447999966,,,,,,,,,,,,00043,001,2026-01-17_16h59.39.804,MST_task,2024.2.0,60.11121777875833,2026-01-17 16h59.49.108225 +0530,
,Objects\250a.jpg,130,0,131,,,,,,,j,None,,,2.094906499987701,0.16797400001087226,,,,131,0,130,585.9004989999812,,,,,,,,,,,,,,,,,,,,,,,585.8843790999963,585.9004989999812,586.3842231000017,,,,,,,,,,,,,,586.4013051000074,,,,,,,,,,,,,586.3935864999949,586.4013051000074,586.4013051000074,586.4013051000074,589.3843833999999,shoe,j,589.3844245999935,,,589.3844366999983,None,,,589.400556299981,589.400556299981,589.400556299981,2.094906499987701,0.16797400001087226,,,,,,,,,,00043,001,2026-01-17_16h59.39.804,MST_task,2024.2.0,60.11121777875833,2026-01-17 16h59.49.108225 +0530,
,Objects\171a.jpg,131,0,132,,,,,,,j,None,,,1.355648900003871,0.13581239999621175,,,,132,0,131,589.400556299981,,,,,,,,,,,,,,,,,,,,,,,589.3845008999924,589.400556299981,589.8840805999935,,,,,,,,,,,,,,589.9010236999893,,,,,,,,,,,,,589.8934336999955,589.9010236999893,589.9010236999893,589.9010236999893,592.8843433999864,shoe,j,592.8843854999868,,,592.8843972999894,None,,,592.9005690999911,592.9005690999911,592.9005690999911,1.355648900003871,0.13581239999621175,,,,,,,,,,00043,001,2026-01-17_16h59.39.804,MST_task,2024.2.0,60.11121777875833,2026-01-17 16h59.49.108225 +0530,
,Objects\170a.jpg,132,0,133,,,,,,,None,f,0.40771800000220537,None,,,,,,133,0,132,592.9005690999911,,,,,,,,,,,,,,,,,,,,,,,592.8844920999836,592.9005690999911,593.384006999986,,,,,,,,,,,,,,593.4007611999987,,,,,,,,,,,,,593.3929517999932,593.4007611999987,593.4007611999987,593.4007611999987,596.3846725999902,shoe,None,596.3847138999845,596.4006151999929,596.4006151999929,596.8178311999945,f,0.40771800000220537,None,596.4006151999929,596.4006151999929,596.4006151999929,,,,,,,,,,,,00043,001,2026-01-17_16h59.39.804,MST_task,2024.2.0,60.11121777875833,2026-01-17 16h59.49.108225 +0530,
,Objects\150a.jpg,133,0,134,,,,,,,f,None,,,2.2262682000000495,0.14400400000158697,,,,134,0,133,596.8337976000039,,,,,,,,,,,,,,,,,,,,,,,596.8179256999865,596.8337976000039,597.317503600003,,,,,,,,,,,,,,597.3341400999925,,,,,,,,,,,,,597.3281603000069,597.3341400999925,597.3341400999925,597.3341400999925,600.3180666999833,indoor,f,600.3197576999955,,,600.3197756999871,None,,,600.333871699986,600.333871699986,600.333871699986,2.2262682000000495,0.14400400000158697,,,,,,,,,,00043,001,2026-01-17_16h59.39.804,MST_task,2024.2.0,60.11121777875833,2026-01-17 16h59.49.108225 +0530,
,Objects\069a.jpg,134,0,135,,,,,,,j,None,,,1.7017938999924809,0.159999900002731,,,,135,0,134,600.333871699986,,,,,,,,,,,,,,,,,,,,,,,600.3198449999909,600.333871699986,600.817472900002,,,,,,,,,,,,,,600.8340103999944,,,,,,,,,,,,,600.8264363000053,600.8340103999944,600.8340103999944,600.8340103999944,603.8178453999863,indoor,j,603.8178921999934,,,603.8179042999982,None,,,603.8337589000002,603.8337589000002,603.8337589000002,1.7017938999924809,0.159999900002731,,,,,,,,,,00043,001,2026-01-17_16h59.39.804,MST_task,2024.2.0,60.11121777875833,2026-01-17 16h59.49.108225 +0530,
,Objects\359a.jpg,135,0,136,,,,,,,f,None,,,2.401467899995623,0.17597749998094514,,,,136,0,135,603.8337589000002,,,,,,,,,,,,,,,,,,,,,,,603.817970300006,603.8337589000002,604.3174751999904,,,,,,,,,,,,,,604.3343800999864,,,,,,,,,,,,,604.3270292999805,604.3343800999864,604.3343800999864,604.3343800999864,607.3177566999802,indoor,f,607.3177993999852,,,607.3178114999901,None,,,607.3338382999937,607.3338382999937,607.3338382999937,2.401467899995623,0.17597749998094514,,,,,,,,,,00043,001,2026-01-17_16h59.39.804,MST_task,2024.2.0,60.11121777875833,2026-01-17 16h59.49.108225 +0530,
,Objects\356a.jpg,136,0,137,,,,,,,None,j,1.205976199998986,None,,,,,,137,0,136,607.3338382999937,,,,,,,,,,,,,,,,,,,,,,,607.3178751999803,607.3338382999937,607.8176077999815,,,,,,,,,,,,,,607.8342747999995,,,,,,,,,,,,,607.8269996999879,607.8342747999995,607.8342747999995,607.8342747999995,610.8181155000057,indoor,None,610.818165899982,610.8338119999971,610.8338119999971,612.0511045999883,j,1.205976199998986,None,610.8338119999971,610.8338119999971,610.8338119999971,,,,,,,,,,,,00043,001,2026-01-17_16h59.39.804,MST_task,2024.2.0,60.11121777875833,2026-01-17 16h59.49.108225 +0530,
,Objects\358a.jpg,137,0,138,,,,,,,f,None,,,2.248675099981483,0.16874740002094768,,,,138,0,137,612.0672347999935,,,,,,,,,,,,,,,,,,,,,,,612.0511932999943,612.0672347999935,612.5508950999938,,,,,,,,,,,,,,612.5675838000025,,,,,,,,,,,,,612.5607659999805,612.5675838000025,612.5675838000025,612.5675838000025,615.5512577999907,indoor,f,615.5513044999971,,,615.5513179999834,None,,,615.567232500005,615.567232500005,615.567232500005,2.248675099981483,0.16874740002094768,,,,,,,,,,00043,001,2026-01-17_16h59.39.804,MST_task,2024.2.0,60.11121777875833,2026-01-17 16h59.49.108225 +0530,
,Objects\345a.jpg,138,0,139,,,,,,,f,None,,,2.0848064000019804,0.15226209998945706,,,,139,0,138,615.567232500005,,,,,,,,,,,,,,,,,,,,,,,615.5513850999996,615.567232500005,616.050826199993,,,,,,,,,,,,,,616.0676198999863,,,,,,,,,,,,,616.0604801999871,616.0676198999863,616.0676198999863,616.0676198999863,619.0512839999865,indoor,f,619.0513229999924,,,619.0513345999934,None,,,619.0672126999998,619.0672126999998,619.0672126999998,2.0848064000019804,0.15226209998945706,,,,,,,,,,00043,001,2026-01-17_16h59.39.804,MST_task,2024.2.0,60.11121777875833,2026-01-17 16h59.49.108225 +0530,
,Objects\141a.jpg,139,0,140,,,,,,,j,None,,,1.8723896000010427,0.23201350000454113,,,,140,0,139,619.0672126999998,,,,,,,,,,,,,,,,,,,,,,,619.0513982999837,619.0672126999998,619.5508459999983,,,,,,,,,,,,,,619.5674988999963,,,,,,,,,,,,,619.5601368999924,619.5674988999963,619.5674988999963,619.5674988999963,622.5510427999834,indoor,j,622.5510842000076,,,622.5510965999856,None,,,622.5672281000006,622.5672281000006,622.5672281000006,1.8723896000010427,0.23201350000454113,,,,,,,,,,00043,001,2026-01-17_16h59.39.804,MST_task,2024.2.0,60.11121777875833,2026-01-17 16h59.49.108225 +0530,
,Objects\192a.jpg,140,0,141,,,,,,,f,None,,,2.780361699988134,0.12797580001642928,,,,141,0,140,622.5672281000006,,,,,,,,,,,,,,,,,,,,,,,622.5511623999919,622.5672281000006,623.0508413999924,,,,,,,,,,,,,,623.0674843000015,,,,,,,,,,,,,623.0619315999793,623.0674843000015,623.0674843000015,623.0674843000015,626.0513653999951,shoe,f,626.0535047999874,,,626.053522400005,None,,,626.0673659000022,626.0673659000022,626.0673659000022,2.780361699988134,0.12797580001642928,,,,,,,,,,00043,001,2026-01-17_16h59.39.804,MST_task,2024.2.0,60.11121777875833,2026-01-17 16h59.49.108225 +0530,
,Objects\360a.jpg,141,0,142,,,,,,,None,j,0.7132108000223525,None,,,,,,142,0,141,626.0673659000022,,,,,,,,,,,,,,,,,,,,,,,626.0535915000073,626.0673659000022,626.550983299996,,,,,,,,,,,,,,626.5677413999802,,,,,,,,,,,,,626.5546977999911,626.5677413999802,626.5677413999802,626.5677413999802,629.5511753000028,shoe,None,629.5512125999958,629.5672990999883,629.5672990999883,630.2845059999963,j,0.7132108000223525,None,629.5672990999883,629.5672990999883,629.5672990999883,,,,,,,,,,,,00043,001,2026-01-17_16h59.39.804,MST_task,2024.2.0,60.11121777875833,2026-01-17 16h59.49.108225 +0530,
,Objects\059a.jpg,142,0,143,,,,,,,j,None,,,1.2951526999822818,0.11200120000285096,,,,143,0,142,630.3006388999929,,,,,,,,,,,,,,,,,,,,,,,630.2845919999818,630.3006388999929,630.7842658000009,,,,,,,,,,,,,,630.8011402999982,,,,,,,,,,,,,630.7943820999935,630.8011402999982,630.8011402999982,630.8011402999982,633.7846019999997,shoe,j,633.7846439999994,,,633.784656200005,None,,,633.800747900008,633.800747900008,633.800747900008,1.2951526999822818,0.11200120000285096,,,,,,,,,,00043,001,2026-01-17_16h59.39.804,MST_task,2024.2.0,60.11121777875833,2026-01-17 16h59.49.108225 +0530,
,Objects\343a.jpg,143,0,144,,,,,,,f,None,,,1.8990769000083674,0.15294279999216087,,,,144,0,143,633.800747900008,,,,,,,,,,,,,,,,,,,,,,,633.7847521999793,633.800747900008,634.2843661000079,,,,,,,,,,,,,,634.3009654000052,,,,,,,,,,,,,634.2928547000047,634.3009654000052,634.3009654000052,634.3009654000052,637.2844018999895,shoe,f,637.2844424000068,,,637.2844545999833,None,,,637.300724700006,637.300724700006,637.300724700006,1.8990769000083674,0.15294279999216087,,,,,,,,,,00043,001,2026-01-17_16h59.39.804,MST_task,2024.2.0,60.11121777875833,2026-01-17 16h59.49.108225 +0530,
,Objects\047a.jpg,144,0,145,,,,,,,None,f,0.16744130000006407,None,,,,,,145,0,144,637.300724700006,,,,,,,,,,,,,,,,,,,,,,,637.2845180000004,637.300724700006,637.7841786000063,,,,,,,,,,,,,,637.8010328999953,,,,,,,,,,,,,637.7954427000077,637.8010328999953,637.8010328999953,637.8010328999953,640.7846162999922,shoe,None,640.7846545999928,640.8007170000055,640.8007170000055,640.9844112999854,f,0.16744130000006407,None,640.8007170000055,640.8007170000055,640.8007170000055,,,,,,,,,,,,00043,001,2026-01-17_16h59.39.804,MST_task,2024.2.0,60.11121777875833,2026-01-17 16h59.49.108225 +0530,
,Objects\257a.jpg,145,0,146,,,,,,,j,None,,,1.6348285000131,0.16071689999080263,,,,146,0,145,641.0006402999861,,,,,,,,,,,,,,,,,,,,,,,640.9845241000003,641.0006402999861,641.4842206999892,,,,,,,,,,,,,,641.5009415999812,,,,,,,,,,,,,641.4933505999797,641.5009415999812,641.5009415999812,641.5009415999812,644.4845662000007,shoe,j,644.4846050000051,,,644.4846167000069,None,,,644.5007048999832,644.5007048999832,644.5007048999832,1.6348285000131,0.16071689999080263,,,,,,,,,,00043,001,2026-01-17_16h59.39.804,MST_task,2024.2.0,60.11121777875833,2026-01-17 16h59.49.108225 +0530,
,Objects\225a.jpg,146,0,147,,,,,,,None,f,0.03906589999678545,None,,,,,,147,0,146,644.5007048999832,,,,,,,,,,,,,,,,,,,,,,,644.4846810000017,644.5007048999832,644.9845901999797,,,,,,,,,,,,,,645.0011246000067,,,,,,,,,,,,,644.9941901999991,645.0011246000067,645.0011246000067,645.0011246000067,647.9844212000025,shoe,None,647.984457899991,648.0007013999857,648.0007013999857,648.051123799989,f,0.03906589999678545,None,648.0007013999857,648.0007013999857,648.0007013999857,,,,,,,,,,,,00043,001,2026-01-17_16h59.39.804,MST_task,2024.2.0,60.11121777875833,2026-01-17 16h59.49.108225 +0530,
,Objects\107a.jpg,147,0,148,,,,,,,f,None,,,2.84834920000867,None,,,,148,0,147,648.0673158999998,,,,,,,,,,,,,,,,,,,,,,,648.0512071999838,648.0673158999998,648.5509547999827,,,,,,,,,,,,,,648.5676373000024,,,,,,,,,,,,,648.5616376999824,648.5676373000024,648.5676373000024,648.5676373000024,651.5512982000073,indoor,f,651.5529219000018,,,651.552940900001,None,,,651.5674313000054,651.5674313000054,651.5674313000054,2.84834920000867,None,,,,,,,,,,00043,001,2026-01-17_16h59.39.804,MST_task,2024.2.0,60.11121777875833,2026-01-17 16h59.49.108225 +0530,
,Objects\290a.jpg,148,0,149,,,,,,,j,None,,,1.3480053000093903,0.1771417999989353,,,,149,0,148,651.5674313000054,,,,,,,,,,,,,,,,,,,,,,,651.5530087999941,651.5674313000054,652.0508450999914,,,,,,,,,,,,,,652.0677473999967,,,,,,,,,,,,,652.0602908000001,652.0677473999967,652.0677473999967,652.0677473999967,655.0512067999807,indoor,j,655.051248600008,,,655.0512600000075,None,,,655.0673676999868,655.0673676999868,655.0673676999868,1.3480053000093903,0.1771417999989353,,,,,,,,,,00043,001,2026-01-17_16h59.39.804,MST_task,2024.2.0,60.11121777875833,2026-01-17 16h59.49.108225 +0530,
,Objects\264a.jpg,149,0,150,,,,,,,j,None,,,1.0645398999913596,0.1440244000114035,,,,150,0,149,655.0673676999868,,,,,,,,,,,,,,,,,,,,,,,655.0513229999924,655.0673676999868,655.5508900999848,,,,,,,,,,,,,,655.5676239999884,,,,,,,,,,,,,655.560459100001,655.5676239999884,655.5676239999884,655.5676239999884,658.5511410000036,indoor,j,658.5511836999794,,,658.5511951999797,None,,,658.5673700000043,658.5673700000043,658.5673700000043,1.0645398999913596,0.1440244000114035,,,,,,,,,,00043,001,2026-01-17_16h59.39.804,MST_task,2024.2.0,60.11121777875833,2026-01-17 16h59.49.108225 +0530,
,Objects\313a.jpg,150,0,151,,,,,,,f,None,,,2.2843092000111938,0.15194609999889508,,,,151,0,150,658.5673700000043,,,,,,,,,,,,,,,,,,,,,,,658.551261399989,658.5673700000043,659.0509008999798,,,,,,,,,,,,,,659.067711199983,,,,,,,,,,,,,659.0605953999911,659.067711199983,659.067711199983,659.067711199983,662.0511985000048,indoor,f,662.0512390999938,,,662.0512505999941,None,,,662.0673283000069,662.0673283000069,662.0673283000069,2.2843092000111938,0.15194609999889508,,,,,,,,,,00043,001,2026-01-17_16h59.39.804,MST_task,2024.2.0,60.11121777875833,2026-01-17 16h59.49.108225 +0530,
,Objects\167a.jpg,151,0,152,,,,,,,f,None,,,2.56835359998513,0.12799000000813976,,,,152,0,151,662.0673283000069,,,,,,,,,,,,,,,,,,,,,,,662.0513134000066,662.0673283000069,662.5509851999814,,,,,,,,,,,,,,662.5675499000063,,,,,,,,,,,,,662.5603008999897,662.5675499000063,662.5675499000063,662.5675499000063,665.5512111999851,indoor,f,665.551253099984,,,665.5512648999866,None,,,665.5673611999955,665.5673611999955,665.5673611999955,2.56835359998513,0.12799000000813976,,,,,,,,,,00043,001,2026-01-17_16h59.39.804,MST_task,2024.2.0,60.11121777875833,2026-01-17 16h59.49.108225 +0530,
,Objects\110a.jpg,152,0,153,,,,,,,f,None,,,2.021052999974927,0.15994390001287684,,,,153,0,152,665.5673611999955,,,,,,,,,,,,,,,,,,,,,,,665.5513331999828,665.5673611999955,666.0509368999919,,,,,,,,,,,,,,666.0675057999906,,,,,,,,,,,,,666.0605596999812,666.0675057999906,666.0675057999906,666.0675057999906,669.0511506999901,indoor,f,669.0511918999837,,,669.0512033999839,None,,,669.0673735000018,669.0673735000018,669.0673735000018,2.021052999974927,0.15994390001287684,,,,,,,,,,00043,001,2026-01-17_16h59.39.804,MST_task,2024.2.0,60.11121777875833,2026-01-17 16h59.49.108225 +0530,
,Objects\087a.jpg,153,0,154,,,,,,,None,j,0.1444447000103537,None,,,,,,154,0,153,669.0673735000018,,,,,,,,,,,,,,,,,,,,,,,669.0512687999872,669.0673735000018,669.5509266000008,,,,,,,,,,,,,,669.5675699999847,,,,,,,,,,,,,669.559855200001,669.5675699999847,669.5675699999847,669.5675699999847,672.5513202000002,indoor,None,672.5513670000073,672.567414899997,672.567414899997,672.7177965999872,j,0.1444447000103537,None,672.567414899997,672.567414899997,672.567414899997,,,,,,,,,,,,00043,001,2026-01-17_16h59.39.804,MST_task,2024.2.0,60.11121777875833,2026-01-17 16h59.49.108225 +0530,
,Objects\133a.jpg,154,0,155,,,,,,,None,j,1.3501417000079527,None,,,,,,155,0,154,672.7339241000009,,,,,,,,,,,,,,,,,,,,,,,672.7178921999875,672.7339241000009,673.2176958000055,,,,,,,,,,,,,,673.2343072999793,,,,,,,,,,,,,673.2291070999927,673.2343072999793,673.2343072999793,673.2343072999793,676.2180386999971,shoe,None,676.2202015999937,676.2339237999986,676.2339237999986,677.5846831999952,j,1.3501417000079527,None,676.2339237999986,676.2339237999986,676.2339237999986,,,,,,,,,,,,00043,001,2026-01-17_16h59.39.804,MST_task,2024.2.0,60.11121777875833,2026-01-17 16h59.49.108225 +0530,
,Objects\221a.jpg,155,0,156,,,,,,,j,None,,,1.3786930000060238,0.15199009998468682,,,,156,0,155,677.600704099983,,,,,,,,,,,,,,,,,,,,,,,677.5847680000006,677.600704099983,678.0842932999949,,,,,,,,,,,,,,678.1010768999986,,,,,,,,,,,,,678.0931558999873,678.1010768999986,678.1010768999986,678.1010768999986,681.0845803999982,shoe,j,681.0846231000032,,,681.084635599982,None,,,681.1006769999804,681.1006769999804,681.1006769999804,1.3786930000060238,0.15199009998468682,,,,,,,,,,00043,001,2026-01-17_16h59.39.804,MST_task,2024.2.0,60.11121777875833,2026-01-17 16h59.49.108225 +0530,
