Sl_no,image_path,thisN,thisTrialN,thisRepN,key_resp_5.keys,key_resp_5.rt,key_resp_5.duration,key_resp_7.keys,key_resp_9.keys,key_resp_9.rt,key_resp_9.duration,key_resp_8.keys,key_resp_8.rt,key_resp_8.duration,practice.thisRepN,practice.thisTrialN,practice.thisN,trials.thisRepN,trials.thisTrialN,trials.thisN,thisRow.t,notes,welcome_page.started,text.started,key_resp.started,welcome_page.stopped,key_resp.keys,key_resp.rt,key_resp.duration,instructions.started,ins.started,key_resp_2.started,instructions.stopped,key_resp_2.keys,key_resp_2.rt,key_resp_2.duration,objects_only_instruction.started,text_3.started,key_resp_3.started,objects_only_instruction.stopped,key_resp_3.keys,key_resp_3.rt,key_resp_3.duration,ISI.started,text_4.started,ISI.stopped,practice_block.started,image.started,key_resp_5.started,text_5.started,practice_block.stopped,practice.key_resp_5.keys,practice.key_resp_5.rt,practice.key_resp_5.duration,indoor_outdoor.started,indoor_outdoor.stopped,practice.key_resp_7.keys,practice_to_main.started,text_2.started,key_resp_4.started,practice_to_main.stopped,key_resp_4.keys,key_resp_4.rt,key_resp_4.duration,objects.started,image_2.started,text_9.started,key_resp_9.started,objects.stopped,category,trials.key_resp_9.keys,trials.key_resp_9.rt,trials.key_resp_9.duration,encoding_task.started,encoding_task.stopped,trials.key_resp_8.keys,text_8.started,key_resp_8.started,trials.key_resp_8.rt,trials.key_resp_8.duration,text_4.stopped,end_experiment.started,text_6.started,key_resp_6.started,end_experiment.stopped,key_resp_6.keys,key_resp_6.rt,key_resp_6.duration,list_of_stimuli,encoding_task_accuracy,participant,session,date,expName,psychopyVersion,frameRate,expStart,
,,,,,,,,,,,,,,,,,,,,,,,0.003635800036136061,0.020264600054360926,0.020264600054360926,461.0222114000353,space,460.98451769998064,None,,,,,,,,,,,,,,,,,,,,,,,,,,,,,,,,,,,,,,,,,,,,,,,,,,,,,,,,,,,,,,00041,001,2026-01-17_15h38.16.978,MST_task,2024.2.0,59.61720982628425,2026-01-17 15h38.30.316137 +0530,
,,,,,,,,,,,,,,,,,,,,,,,,,,,,,,461.0222551000188,461.0365938000032,461.0365938000032,486.12492360000033,space,25.08015630004229,None,,,,,,,,,,,,,,,,,,,,,,,,,,,,,,,,,,,,,,,,,,,,,,,,,,,,,,,00041,001,2026-01-17_15h38.16.978,MST_task,2024.2.0,59.61720982628425,2026-01-17 15h38.30.316137 +0530,
,,,,,,,,,,,,,,,,,,,,,,,,,,,,,,,,,,,,,486.12495620001573,486.14108020003187,486.14108020003187,491.64414120005677,space,5.495874800020829,None,,,,,,,,,,,,,,,,,,,,,,,,,,,,,,,,,,,,,,,,,,,,,,,,00041,001,2026-01-17_15h38.16.978,MST_task,2024.2.0,59.61720982628425,2026-01-17 15h38.30.316137 +0530,
2,practice_images/031a.jpg,0,0,1,f,2.23404989996925,0.1191724999807775,None,,,,,,,1,0,0,,,,491.660530400055,,,,,,,,,,,,,,,,,,,,,,,491.64831090002554,491.660530400055,492.1459711000207,492.1562084000325,492.17977740004426,492.17977740004426,492.17977740004426,495.156054400024,f,2.23404989996925,0.1191724999807775,495.1573837000178,495.1574031000491,None,,,,,,,,,,,,,,,,,,,,,,,,,,,,,,,,,,00041,001,2026-01-17_15h38.16.978,MST_task,2024.2.0,59.61720982628425,2026-01-17 15h38.30.316137 +0530,
6,practice_images/158a.jpg,1,1,1,j,1.7938093999982812,0.12005680002039298,None,,,,,,,1,1,1,,,,495.17260970000643,,,,,,,,,,,,,,,,,,,,,,,495.1574745000107,495.17260970000643,495.65791430004174,495.6599521000171,495.6744776000269,495.6744776000269,495.6744776000269,498.6680198000395,j,1.7938093999982812,0.12005680002039298,498.66806490003364,498.66807680000784,None,,,,,,,,,,,,,,,,,,,,,,,,,,,,,,,,,,00041,001,2026-01-17_15h38.16.978,MST_task,2024.2.0,59.61720982628425,2026-01-17 15h38.30.316137 +0530,
3,practice_images/037a.jpg,2,2,1,f,1.2594135999679565,0.14361600001575425,None,,,,,,,1,2,2,,,,498.68459780002013,,,,,,,,,,,,,,,,,,,,,,,498.66814480000176,498.68459780002013,499.16982450004434,499.17143630003557,499.1864356000442,499.1864356000442,499.1864356000442,502.1804898000555,f,1.2594135999679565,0.14361600001575425,502.18052640004316,502.1805385000189,None,,,,,,,,,,,,,,,,,,,,,,,,,,,,,,,,,,00041,001,2026-01-17_15h38.16.978,MST_task,2024.2.0,59.61720982628425,2026-01-17 15h38.30.316137 +0530,
10,practice_images/182a.jpg,3,3,1,f,0.8104787000338547,0.12804829998640344,None,,,,,,,1,3,3,,,,502.19691050000256,,,,,,,,,,,,,,,,,,,,,,,502.18060640001204,502.19691050000256,502.68210750003345,502.6839619000093,502.6986302000005,502.6986302000005,502.6986302000005,505.69261590001406,f,0.8104787000338547,0.12804829998640344,505.6926531000063,505.69266540004173,None,,,,,,,,,,,,,,,,,,,,,,,,,,,,,,,,,,00041,001,2026-01-17_15h38.16.978,MST_task,2024.2.0,59.61720982628425,2026-01-17 15h38.30.316137 +0530,
4,practice_images/002b.jpg,4,4,1,f,2.473364700039383,0.17625249997945502,None,,,,,,,1,4,4,,,,505.7094201000291,,,,,,,,,,,,,,,,,,,,,,,505.6927335000364,505.7094201000291,506.1944033000036,506.1961862000171,506.2110338000348,506.2110338000348,506.2110338000348,509.20478100003675,f,2.473364700039383,0.17625249997945502,509.20483090000926,509.2048465000116,None,,,,,,,,,,,,,,,,,,,,,,,,,,,,,,,,,,00041,001,2026-01-17_15h38.16.978,MST_task,2024.2.0,59.61720982628425,2026-01-17 15h38.30.316137 +0530,
1,practice_images/013a.jpg,5,5,1,j,1.241549100028351,0.1690204999758862,None,,,,,,,1,5,5,,,,509.22162150003714,,,,,,,,,,,,,,,,,,,,,,,509.20491810003296,509.22162150003714,509.70707250002306,509.71246280003106,509.7233592000557,509.7233592000557,509.7233592000557,512.7172138000024,j,1.241549100028351,0.1690204999758862,512.7187764000264,512.7187938000425,None,,,,,,,,,,,,,,,,,,,,,,,,,,,,,,,,,,00041,001,2026-01-17_15h38.16.978,MST_task,2024.2.0,59.61720982628425,2026-01-17 15h38.30.316137 +0530,
7,practice_images/166a.jpg,6,6,1,j,2.3446366999996826,0.120012300030794,None,,,,,,,1,6,6,,,,512.7338072000421,,,,,,,,,,,,,,,,,,,,,,,512.7188622000394,512.7338072000421,513.2189903000253,513.2210221000132,513.2356431000517,513.2356431000517,513.2356431000517,516.2295056000003,j,2.3446366999996826,0.120012300030794,516.2295426000492,516.2295547000249,None,,,,,,,,,,,,,,,,,,,,,,,,,,,,,,,,,,00041,001,2026-01-17_15h38.16.978,MST_task,2024.2.0,59.61720982628425,2026-01-17 15h38.30.316137 +0530,
9,practice_images/180a.jpg,7,7,1,j,1.3850871999748051,0.11947720003081486,None,,,,,,,1,7,7,,,,516.2461018000031,,,,,,,,,,,,,,,,,,,,,,,516.2296225000173,516.2461018000031,516.7313328000018,516.7332164000254,516.7478198000463,516.7478198000463,516.7478198000463,519.7418131000013,j,1.3850871999748051,0.11947720003081486,519.7418496000464,519.7418618000229,None,,,,,,,,,,,,,,,,,,,,,,,,,,,,,,,,,,00041,001,2026-01-17_15h38.16.978,MST_task,2024.2.0,59.61720982628425,2026-01-17 15h38.30.316137 +0530,
8,practice_images/178a.jpg,8,8,1,f,1.1606867999653332,0.13614230003440753,None,,,,,,,1,8,8,,,,519.7589116000454,,,,,,,,,,,,,,,,,,,,,,,519.7419342000503,519.7589116000454,520.2439153000014,520.2455012000282,520.2602814999991,520.2602814999991,520.2602814999991,523.2542689000256,f,1.1606867999653332,0.13614230003440753,523.2543132000137,523.2543263000553,None,,,,,,,,,,,,,,,,,,,,,,,,,,,,,,,,,,00041,001,2026-01-17_15h38.16.978,MST_task,2024.2.0,59.61720982628425,2026-01-17 15h38.30.316137 +0530,
5,practice_images/139a.jpg,9,9,1,j,2.1290145000093617,0.11870380002073944,None,,,,,,,1,9,9,,,,523.2707095000078,,,,,,,,,,,,,,,,,,,,,,,523.2544025000534,523.2707095000078,523.7559189000167,523.7577287000022,523.772563000035,523.772563000035,523.772563000035,526.7664924000273,j,2.1290145000093617,0.11870380002073944,526.766529400018,526.7665412000497,None,,,,,,,,,,,,,,,,,,,,,,,,,,,,,,,,,,00041,001,2026-01-17_15h38.16.978,MST_task,2024.2.0,59.61720982628425,2026-01-17 15h38.30.316137 +0530,
,,,,,,,,,,,,,,,,,,,,,,,,,,,,,,,,,,,,,,,,,,,,,,,,,,,,,,,,,,526.7665860000416,526.7830592000391,526.7830592000391,555.8691460000118,space,29.077946899982635,None,,,,,,,,,,,,,,,,,,,,,,,,,,,00041,001,2026-01-17_15h38.16.978,MST_task,2024.2.0,59.61720982628425,2026-01-17 15h38.30.316137 +0530,
,Objects\016a.jpg,0,0,1,,,,,f,1.5598972999723628,0.1603964000241831,None,,,,,,1,0,0,555.8852025000378,,,,,,,,,,,,,,,,,,,,,,,555.8698365000309,555.8852025000378,556.370428400056,,,,,,,,,,,,,,,,,,,556.381921400025,556.4049040000536,556.4049040000536,556.4049040000536,559.3809401000035,shoe,f,1.5598972999723628,0.1603964000241831,559.3825773000135,559.3825971000479,None,,,,,,,,,,,,,,,00041,001,2026-01-17_15h38.16.978,MST_task,2024.2.0,59.61720982628425,2026-01-17 15h38.30.316137 +0530,
,Objects\175a.jpg,1,0,2,,,,,j,1.896918199956417,0.1273767999955453,None,,,,,,2,0,1,559.3975104000419,,,,,,,,,,,,,,,,,,,,,,,559.3827082000207,559.3975104000419,559.8826994000119,,,,,,,,,,,,,,,,,,,559.8933667000383,559.9159707000363,559.9159707000363,559.9159707000363,562.8931362000294,shoe,j,1.896918199956417,0.1273767999955453,562.8931908000377,562.8932030000142,None,,,,,,,,,,,,,,,00041,001,2026-01-17_15h38.16.978,MST_task,2024.2.0,59.61720982628425,2026-01-17 15h38.30.316137 +0530,
,Objects\302a.jpg,2,0,3,,,,,f,1.2480559999821708,0.11931249999906868,None,,,,,,3,0,2,562.910532000009,,,,,,,,,,,,,,,,,,,,,,,562.8932713000104,562.910532000009,563.395074,,,,,,,,,,,,,,,,,,,563.4040826000273,563.4291564000305,563.4291564000305,563.4291564000305,566.4056820000405,shoe,f,1.2480559999821708,0.11931249999906868,566.4057250000187,566.4057371000526,None,,,,,,,,,,,,,,,00041,001,2026-01-17_15h38.16.978,MST_task,2024.2.0,59.61720982628425,2026-01-17 15h38.30.316137 +0530,
,Objects\334a.jpg,3,0,4,,,,,f,2.2406321999733336,0.1276064999983646,None,,,,,,4,0,3,566.4220908000134,,,,,,,,,,,,,,,,,,,,,,,566.4058056000504,566.4220908000134,566.9071944000316,,,,,,,,,,,,,,,,,,,566.9156314000138,566.9406938000466,566.9406938000466,566.9406938000466,569.9178609000519,shoe,f,2.2406321999733336,0.1276064999983646,569.9179347000318,569.917946600006,None,,,,,,,,,,,,,,,00041,001,2026-01-17_15h38.16.978,MST_task,2024.2.0,59.61720982628425,2026-01-17 15h38.30.316137 +0530,
,Objects\273a.jpg,4,0,5,,,,,j,1.1212311999988742,0.151210899988655,None,,,,,,5,0,4,569.9344100000453,,,,,,,,,,,,,,,,,,,,,,,569.9180182000273,569.9344100000453,570.419609100034,,,,,,,,,,,,,,,,,,,570.42228910001,570.4362749000429,570.4362749000429,570.4362749000429,573.4300418000203,shoe,j,1.1212311999988742,0.151210899988655,573.4300848000566,573.4300965000293,None,,,,,,,,,,,,,,,00041,001,2026-01-17_15h38.16.978,MST_task,2024.2.0,59.61720982628425,2026-01-17 15h38.30.316137 +0530,
,Objects\185a.jpg,5,0,6,,,,,f,0.9760649999952875,0.1278236000216566,None,,,,,,6,0,5,573.4468237000401,,,,,,,,,,,,,,,,,,,,,,,573.4301674000453,573.4468237000401,573.9317945000366,,,,,,,,,,,,,,,,,,,573.9347534000408,573.9487132000504,573.9487132000504,573.9487132000504,576.9423268000246,shoe,f,0.9760649999952875,0.1278236000216566,576.9423788000131,576.942390500044,None,,,,,,,,,,,,,,,00041,001,2026-01-17_15h38.16.978,MST_task,2024.2.0,59.61720982628425,2026-01-17 15h38.30.316137 +0530,
,Objects\102a.jpg,6,0,7,,,,,f,0.9358065000269562,0.14483349997317418,None,,,,,,7,0,6,576.959119600011,,,,,,,,,,,,,,,,,,,,,,,576.9426630000235,576.959119600011,577.4442201000056,,,,,,,,,,,,,,,,,,,577.447460000054,577.460856300022,577.460856300022,577.460856300022,580.4547601000522,shoe,f,0.9358065000269562,0.14483349997317418,580.4548012000159,580.4548136000521,None,,,,,,,,,,,,,,,00041,001,2026-01-17_15h38.16.978,MST_task,2024.2.0,59.61720982628425,2026-01-17 15h38.30.316137 +0530,
,Objects\275a.jpg,7,0,8,,,,,f,1.6721889000036754,0.15928229998098686,None,,,,,,8,0,7,580.4714137000265,,,,,,,,,,,,,,,,,,,,,,,580.4548824000522,580.4714137000265,580.9565579000046,,,,,,,,,,,,,,,,,,,580.9656801000237,580.9898245000513,580.9898245000513,580.9898245000513,583.9666802000138,indoor,f,1.6721889000036754,0.15928229998098686,583.9681107000215,583.9681290000444,None,,,,,,,,,,,,,,,00041,001,2026-01-17_15h38.16.978,MST_task,2024.2.0,59.61720982628425,2026-01-17 15h38.30.316137 +0530,
,Objects\267a.jpg,8,0,9,,,,,j,1.3425372000201605,0.14399669994600117,None,,,,,,9,0,8,583.9834363000118,,,,,,,,,,,,,,,,,,,,,,,583.968198800052,583.9834363000118,584.4683867000276,,,,,,,,,,,,,,,,,,,584.483121600002,584.5018588000094,584.5018588000094,584.5018588000094,587.4790966000292,indoor,j,1.3425372000201605,0.14399669994600117,587.4791387000005,587.4791506000329,None,,,,,,,,,,,,,,,00041,001,2026-01-17_15h38.16.978,MST_task,2024.2.0,59.61720982628425,2026-01-17 15h38.30.316137 +0530,
,Objects\060a.jpg,9,0,10,,,,,f,1.2787682000198402,0.15976349997799844,None,,,,,,10,0,9,587.4956010000315,,,,,,,,,,,,,,,,,,,,,,,587.4792191000306,587.4956010000315,587.9807935000281,,,,,,,,,,,,,,,,,,,587.989320200053,588.0140459000249,588.0140459000249,588.0140459000249,590.9911968000233,indoor,f,1.2787682000198402,0.15976349997799844,590.9912390000536,590.9912511000293,None,,,,,,,,,,,,,,,00041,001,2026-01-17_15h38.16.978,MST_task,2024.2.0,59.61720982628425,2026-01-17 15h38.30.316137 +0530,
,Objects\228a.jpg,10,0,11,,,,,f,1.8225499000400305,0.1440749999601394,None,,,,,,11,0,10,591.0081041000085,,,,,,,,,,,,,,,,,,,,,,,590.9913199000293,591.0081041000085,591.4932052000077,,,,,,,,,,,,,,,,,,,591.496484400006,591.5097568000201,591.5097568000201,591.5097568000201,594.5034815000254,indoor,f,1.8225499000400305,0.1440749999601394,594.5035388000542,594.5035508000292,None,,,,,,,,,,,,,,,00041,001,2026-01-17_15h38.16.978,MST_task,2024.2.0,59.61720982628425,2026-01-17 15h38.30.316137 +0530,
,Objects\378a.jpg,11,0,12,,,,,j,1.486851800000295,0.11942349997116253,None,,,,,,12,0,11,594.520523800049,,,,,,,,,,,,,,,,,,,,,,,594.5037601000513,594.520523800049,595.0052786000306,,,,,,,,,,,,,,,,,,,595.0085953000234,595.0220347000286,595.0220347000286,595.0220347000286,598.0157909000409,indoor,j,1.486851800000295,0.11942349997116253,598.0158337000175,598.0158457000507,None,,,,,,,,,,,,,,,00041,001,2026-01-17_15h38.16.978,MST_task,2024.2.0,59.61720982628425,2026-01-17 15h38.30.316137 +0530,
,Objects\225a.jpg,12,0,13,,,,,f,1.1426197999971919,0.14523139997618273,None,,,,,,13,0,12,598.0326169000473,,,,,,,,,,,,,,,,,,,,,,,598.0159163000062,598.0326169000473,598.5175779000274,,,,,,,,,,,,,,,,,,,598.5203084000386,598.5343296000501,598.5343296000501,598.5343296000501,601.5282014000113,indoor,f,1.1426197999971919,0.14523139997618273,601.5282431000378,601.5282547000097,None,,,,,,,,,,,,,,,00041,001,2026-01-17_15h38.16.978,MST_task,2024.2.0,59.61720982628425,2026-01-17 15h38.30.316137 +0530,
,Objects\295a.jpg,13,0,14,,,,,f,0.957811500004027,0.15989399998215958,None,,,,,,14,0,13,601.5447893000091,,,,,,,,,,,,,,,,,,,,,,,601.5283226000029,601.5447893000091,602.0299936000374,,,,,,,,,,,,,,,,,,,602.0449664000189,602.063244000019,602.063244000019,602.063244000019,605.0410140000167,indoor,f,0.957811500004027,0.15989399998215958,605.0410596000147,605.0410713000456,None,,,,,,,,,,,,,,,00041,001,2026-01-17_15h38.16.978,MST_task,2024.2.0,59.61720982628425,2026-01-17 15h38.30.316137 +0530,
,Objects\357a.jpg,14,0,15,,,,,f,1.2933844000217505,0.1672342999954708,None,,,,,,15,0,14,605.0572311000433,,,,,,,,,,,,,,,,,,,,,,,605.0411552000442,605.0572311000433,605.5421795000439,,,,,,,,,,,,,,,,,,,605.5516681000008,605.5756492000073,605.5756492000073,605.5756492000073,608.5528014000156,shoe,f,1.2933844000217505,0.1672342999954708,608.5543578000506,608.5543808000511,None,,,,,,,,,,,,,,,00041,001,2026-01-17_15h38.16.978,MST_task,2024.2.0,59.61720982628425,2026-01-17 15h38.30.316137 +0530,
,Objects\001a.jpg,15,0,16,,,,,f,1.477991399995517,0.17543970001861453,None,,,,,,16,0,15,608.569400700042,,,,,,,,,,,,,,,,,,,,,,,608.5544690000243,608.569400700042,609.0546032000566,,,,,,,,,,,,,,,,,,,609.0575421000249,609.0711791000213,609.0711791000213,609.0711791000213,612.0651312000118,shoe,f,1.477991399995517,0.17543970001861453,612.0651745000505,612.0651862000232,None,,,,,,,,,,,,,,,00041,001,2026-01-17_15h38.16.978,MST_task,2024.2.0,59.61720982628425,2026-01-17 15h38.30.316137 +0530,
,Objects\019a.jpg,16,0,17,,,,,None,,,f,1.3223868999630213,None,,,,17,0,16,612.0816916000331,,,,,,,,,,,,,,,,,,,,,,,612.0652553000255,612.0816916000331,612.5669959000079,,,,,,,,,,,,,,,,,,,612.57013930002,612.5834095000173,612.5834095000173,612.5834095000173,615.5774058000534,shoe,None,,,615.5775993000134,616.9326433000388,f,615.5939944000565,615.5939944000565,1.3223868999630213,None,,,,,,,,,,,00041,001,2026-01-17_15h38.16.978,MST_task,2024.2.0,59.61720982628425,2026-01-17 15h38.30.316137 +0530,
,Objects\284a.jpg,17,0,18,,,,,f,1.905505600036122,0.1354931999812834,None,,,,,,18,0,17,616.9488670999999,,,,,,,,,,,,,,,,,,,,,,,616.9327357000438,616.9488670999999,617.4340485000284,,,,,,,,,,,,,,,,,,,617.4487120000413,617.4672988000093,617.4672988000093,617.4672988000093,620.4445044000167,shoe,f,1.905505600036122,0.1354931999812834,620.4445493000094,620.4445613000426,None,,,,,,,,,,,,,,,00041,001,2026-01-17_15h38.16.978,MST_task,2024.2.0,59.61720982628425,2026-01-17 15h38.30.316137 +0530,
,Objects\214a.jpg,18,0,19,,,,,f,0.969671799975913,0.1206314000301063,None,,,,,,19,0,18,620.4611635000329,,,,,,,,,,,,,,,,,,,,,,,620.444635300024,620.4611635000329,620.9461298000533,,,,,,,,,,,,,,,,,,,620.9614489000523,620.9795971000567,620.9795971000567,620.9795971000567,623.956738500041,shoe,f,0.969671799975913,0.1206314000301063,623.9567826000275,623.956794800004,None,,,,,,,,,,,,,,,00041,001,2026-01-17_15h38.16.978,MST_task,2024.2.0,59.61720982628425,2026-01-17 15h38.30.316137 +0530,
,Objects\142a.jpg,19,0,20,,,,,f,0.714127900020685,0.19137389998650178,None,,,,,,20,0,19,623.973330000008,,,,,,,,,,,,,,,,,,,,,,,623.9568642000086,623.973330000008,624.458524000016,,,,,,,,,,,,,,,,,,,624.4616092000506,624.4749814000097,624.4749814000097,624.4749814000097,627.4690242000506,shoe,f,0.714127900020685,0.19137389998650178,627.4692217000411,627.4692396000028,None,,,,,,,,,,,,,,,00041,001,2026-01-17_15h38.16.978,MST_task,2024.2.0,59.61720982628425,2026-01-17 15h38.30.316137 +0530,
,Objects\118a.jpg,20,0,21,,,,,f,1.0017078999662772,0.17574410000815988,None,,,,,,21,0,20,627.4856359000551,,,,,,,,,,,,,,,,,,,,,,,627.4693495000247,627.4856359000551,627.9715363000287,,,,,,,,,,,,,,,,,,,627.9751364000258,627.9873645000043,627.9873645000043,627.9873645000043,630.981440100004,shoe,f,1.0017078999662772,0.17574410000815988,630.9816375000519,630.9816563000204,None,,,,,,,,,,,,,,,00041,001,2026-01-17_15h38.16.978,MST_task,2024.2.0,59.61720982628425,2026-01-17 15h38.30.316137 +0530,
,Objects\018a.jpg,21,0,22,,,,,f,0.9528194000013173,0.12021689995890483,None,,,,,,22,0,21,630.9979389000218,,,,,,,,,,,,,,,,,,,,,,,630.9817439000471,630.9979389000218,631.4831261000363,,,,,,,,,,,,,,,,,,,631.487357200007,631.499654800049,631.499654800049,631.499654800049,634.4936533000437,indoor,f,0.9528194000013173,0.12021689995890483,634.4948619000497,634.494880400016,None,,,,,,,,,,,,,,,00041,001,2026-01-17_15h38.16.978,MST_task,2024.2.0,59.61720982628425,2026-01-17 15h38.30.316137 +0530,
,Objects\239a.jpg,22,0,23,,,,,f,1.4247636999934912,0.15284739999333397,None,,,,,,23,0,22,634.5108314000536,,,,,,,,,,,,,,,,,,,,,,,634.4949524000403,634.5108314000536,634.9954256000347,,,,,,,,,,,,,,,,,,,635.0024656000314,635.011537000013,635.011537000013,635.011537000013,638.0058123000199,indoor,f,1.4247636999934912,0.15284739999333397,638.0058547000517,638.0058665000251,None,,,,,,,,,,,,,,,00041,001,2026-01-17_15h38.16.978,MST_task,2024.2.0,59.61720982628425,2026-01-17 15h38.30.316137 +0530,
,Objects\080a.jpg,23,0,24,,,,,f,0.9372940000030212,0.14315409999107942,None,,,,,,24,0,23,638.022654600034,,,,,,,,,,,,,,,,,,,,,,,638.0059344000183,638.022654600034,638.5076185000362,,,,,,,,,,,,,,,,,,,638.5150905000046,638.5244883000269,638.5244883000269,638.5244883000269,641.5181092000566,indoor,f,0.9372940000030212,0.14315409999107942,641.5181506000226,641.518162100052,None,,,,,,,,,,,,,,,00041,001,2026-01-17_15h38.16.978,MST_task,2024.2.0,59.61720982628425,2026-01-17 15h38.30.316137 +0530,
,Objects\355a.jpg,24,0,25,,,,,j,2.504590099968482,0.159992000029888,None,,,,,,25,0,24,641.5349448000197,,,,,,,,,,,,,,,,,,,,,,,641.5182439000346,641.5349448000197,642.019909500028,,,,,,,,,,,,,,,,,,,642.0268287000363,642.0365319000557,642.0365319000557,642.0365319000557,645.0304202000261,indoor,j,2.504590099968482,0.159992000029888,645.0304669000325,645.0305014000041,None,,,,,,,,,,,,,,,00041,001,2026-01-17_15h38.16.978,MST_task,2024.2.0,59.61720982628425,2026-01-17 15h38.30.316137 +0530,
,Objects\254a.jpg,25,0,26,,,,,j,0.9509276999742724,0.1763741999748163,None,,,,,,26,0,25,645.047246000031,,,,,,,,,,,,,,,,,,,,,,,645.030570700008,645.047246000031,645.5329940000083,,,,,,,,,,,,,,,,,,,645.5476213000366,645.5658653000137,645.5658653000137,645.5658653000137,648.542837200046,indoor,j,0.9509276999742724,0.1763741999748163,648.5428790000151,648.5428906000452,None,,,,,,,,,,,,,,,00041,001,2026-01-17_15h38.16.978,MST_task,2024.2.0,59.61720982628425,2026-01-17 15h38.30.316137 +0530,
,Objects\321a.jpg,26,0,27,,,,,f,1.0473159000393935,0.16864669998176396,None,,,,,,27,0,26,648.5594478000421,,,,,,,,,,,,,,,,,,,,,,,648.54297400004,648.5594478000421,649.0451028000098,,,,,,,,,,,,,,,,,,,649.0513682000455,649.061002100003,649.061002100003,649.061002100003,652.0552450000541,indoor,f,1.0473159000393935,0.16864669998176396,652.055443600053,652.0554612000124,None,,,,,,,,,,,,,,,00041,001,2026-01-17_15h38.16.978,MST_task,2024.2.0,59.61720982628425,2026-01-17 15h38.30.316137 +0530,
,Objects\356a.jpg,27,0,28,,,,,None,,,f,0.15697119996184483,None,,,,28,0,27,652.0723246000125,,,,,,,,,,,,,,,,,,,,,,,652.0555385000189,652.0723246000125,652.557160300028,,,,,,,,,,,,,,,,,,,652.5643974000122,652.5731160000432,652.5731160000432,652.5731160000432,655.5673297000467,indoor,None,,,655.5673692000564,655.7520844000392,f,655.5841403000522,655.5841403000522,0.15697119996184483,None,,,,,,,,,,,00041,001,2026-01-17_15h38.16.978,MST_task,2024.2.0,59.61720982628425,2026-01-17 15h38.30.316137 +0530,
,Objects\181a.jpg,28,0,29,,,,,j,1.5337564999936149,0.1437224000110291,None,,,,,,29,0,28,655.7680122000165,,,,,,,,,,,,,,,,,,,,,,,655.7521749000298,655.7680122000165,656.2534495000145,,,,,,,,,,,,,,,,,,,656.262705400004,656.2869388000108,656.2869388000108,656.2869388000108,659.2635976000456,shoe,j,1.5337564999936149,0.1437224000110291,659.2652559000417,659.2652751000132,None,,,,,,,,,,,,,,,00041,001,2026-01-17_15h38.16.978,MST_task,2024.2.0,59.61720982628425,2026-01-17 15h38.30.316137 +0530,
,Objects\051a.jpg,29,0,30,,,,,j,2.1191175000276417,0.12801960000069812,None,,,,,,30,0,29,659.2805472000036,,,,,,,,,,,,,,,,,,,,,,,659.2653605000232,659.2805472000036,659.7653745000134,,,,,,,,,,,,,,,,,,,659.7681228000438,659.7821305000107,659.7821305000107,659.7821305000107,662.7758957000333,shoe,j,2.1191175000276417,0.12801960000069812,662.7759380000061,662.775949700037,None,,,,,,,,,,,,,,,00041,001,2026-01-17_15h38.16.978,MST_task,2024.2.0,59.61720982628425,2026-01-17 15h38.30.316137 +0530,
,Objects\137a.jpg,30,0,31,,,,,j,1.4296013999846764,0.167985400010366,None,,,,,,31,0,30,662.7926985000377,,,,,,,,,,,,,,,,,,,,,,,662.7760191000416,662.7926985000377,663.2778097000555,,,,,,,,,,,,,,,,,,,663.2876746000256,663.3111684000469,663.3111684000469,663.3111684000469,666.2883166000247,shoe,j,1.4296013999846764,0.167985400010366,666.288514600019,666.2885287000099,None,,,,,,,,,,,,,,,00041,001,2026-01-17_15h38.16.978,MST_task,2024.2.0,59.61720982628425,2026-01-17 15h38.30.316137 +0530,
,Objects\286a.jpg,31,0,32,,,,,j,1.0070983999758027,0.1271149999811314,None,,,,,,32,0,31,666.3048937999993,,,,,,,,,,,,,,,,,,,,,,,666.2886050000088,666.3048937999993,666.790097500023,,,,,,,,,,,,,,,,,,,666.796021200018,666.806659599999,666.806659599999,666.806659599999,669.8006125000538,shoe,j,1.0070983999758027,0.1271149999811314,669.8006571000442,669.8006697000237,None,,,,,,,,,,,,,,,00041,001,2026-01-17_15h38.16.978,MST_task,2024.2.0,59.61720982628425,2026-01-17 15h38.30.316137 +0530,
,Objects\129a.jpg,32,0,33,,,,,f,1.478950899967458,0.1912282999837771,None,,,,,,33,0,32,669.8172092000023,,,,,,,,,,,,,,,,,,,,,,,669.8007380000199,669.8172092000023,670.3025223000441,,,,,,,,,,,,,,,,,,,670.3102488000295,670.3184916000464,670.3184916000464,670.3184916000464,673.3129508000566,shoe,f,1.478950899967458,0.1912282999837771,673.3129929000279,673.3130047000013,None,,,,,,,,,,,,,,,00041,001,2026-01-17_15h38.16.978,MST_task,2024.2.0,59.61720982628425,2026-01-17 15h38.30.316137 +0530,
,Objects\038a.jpg,33,0,34,,,,,f,0.8535489999921992,0.13534410001011565,None,,,,,,34,0,33,673.329779200023,,,,,,,,,,,,,,,,,,,,,,,673.3131105000502,673.329779200023,673.8151061000535,,,,,,,,,,,,,,,,,,,673.8178678000113,673.8315079000313,673.8315079000313,673.8315079000313,676.8252504000557,shoe,f,0.8535489999921992,0.13534410001011565,676.8252922000247,676.825304500002,None,,,,,,,,,,,,,,,00041,001,2026-01-17_15h38.16.978,MST_task,2024.2.0,59.61720982628425,2026-01-17 15h38.30.316137 +0530,
,Objects\152a.jpg,34,0,35,,,,,f,1.5328525999793783,0.12066820001928136,None,,,,,,35,0,34,676.8421208000509,,,,,,,,,,,,,,,,,,,,,,,676.8254325000453,676.8421208000509,677.3271601000451,,,,,,,,,,,,,,,,,,,677.3300526000094,677.3437985000201,677.3437985000201,677.3437985000201,680.3373978000018,shoe,f,1.5328525999793783,0.12066820001928136,680.3374399000313,680.3374518000055,None,,,,,,,,,,,,,,,00041,001,2026-01-17_15h38.16.978,MST_task,2024.2.0,59.61720982628425,2026-01-17 15h38.30.316137 +0530,
,Objects\345a.jpg,35,0,36,,,,,f,1.564350700005889,0.14362300001084805,None,,,,,,36,0,35,680.3542878000299,,,,,,,,,,,,,,,,,,,,,,,680.3375583000015,680.3542878000299,680.8391936000553,,,,,,,,,,,,,,,,,,,680.85081730003,680.8728058000561,680.8728058000561,680.8728058000561,683.8499630000442,indoor,f,1.564350700005889,0.14362300001084805,683.8513534000376,683.8513715000008,None,,,,,,,,,,,,,,,00041,001,2026-01-17_15h38.16.978,MST_task,2024.2.0,59.61720982628425,2026-01-17 15h38.30.316137 +0530,
,Objects\338a.jpg,36,0,37,,,,,f,1.0040385000174865,0.16081380000105128,None,,,,,,37,0,36,683.8665613000048,,,,,,,,,,,,,,,,,,,,,,,683.8514400999993,683.8665613000048,684.351770600013,,,,,,,,,,,,,,,,,,,684.3582094000303,684.3682058000122,684.3682058000122,684.3682058000122,687.3622668000171,indoor,f,1.0040385000174865,0.16081380000105128,687.36233730003,687.3623496000073,None,,,,,,,,,,,,,,,00041,001,2026-01-17_15h38.16.978,MST_task,2024.2.0,59.61720982628425,2026-01-17 15h38.30.316137 +0530,
,Objects\301a.jpg,37,0,38,,,,,j,2.1563990999711677,0.1447026000241749,None,,,,,,38,0,37,687.378867600055,,,,,,,,,,,,,,,,,,,,,,,687.3624189000111,687.378867600055,687.8639937000116,,,,,,,,,,,,,,,,,,,687.8712735000299,687.8800101000234,687.8800101000234,687.8800101000234,690.8743860000395,indoor,j,2.1563990999711677,0.1447026000241749,690.8744292000192,690.8744409000501,None,,,,,,,,,,,,,,,00041,001,2026-01-17_15h38.16.978,MST_task,2024.2.0,59.61720982628425,2026-01-17 15h38.30.316137 +0530,
,Objects\122a.jpg,38,0,39,,,,,f,1.1797552999923937,0.15240640001138672,None,,,,,,39,0,38,690.8909980000462,,,,,,,,,,,,,,,,,,,,,,,690.8745103000547,690.8909980000462,691.3761932000052,,,,,,,,,,,,,,,,,,,691.3791894000024,691.3927008000319,691.3927008000319,691.3927008000319,694.3867419000017,indoor,f,1.1797552999923937,0.15240640001138672,694.386784500035,694.3867961000069,None,,,,,,,,,,,,,,,00041,001,2026-01-17_15h38.16.978,MST_task,2024.2.0,59.61720982628425,2026-01-17 15h38.30.316137 +0530,
,Objects\336a.jpg,39,0,40,,,,,f,1.2515971999964677,0.14403550000861287,None,,,,,,40,0,39,694.4033175000222,,,,,,,,,,,,,,,,,,,,,,,694.3868640000001,694.4033175000222,694.8885312000057,,,,,,,,,,,,,,,,,,,694.8960184000316,694.9045750000514,694.9045750000514,694.9045750000514,697.8989951000549,indoor,f,1.2515971999964677,0.14403550000861287,697.899037300027,697.8990487000556,None,,,,,,,,,,,,,,,00041,001,2026-01-17_15h38.16.978,MST_task,2024.2.0,59.61720982628425,2026-01-17 15h38.30.316137 +0530,
,Objects\131a.jpg,40,0,41,,,,,f,1.5709070000448264,0.1521372999995947,None,,,,,,41,0,40,697.9155900000478,,,,,,,,,,,,,,,,,,,,,,,697.8991158000426,697.9155900000478,698.4009755000006,,,,,,,,,,,,,,,,,,,698.4094589000451,698.4340285000508,698.4340285000508,698.4340285000508,701.411167400016,indoor,f,1.5709070000448264,0.1521372999995947,701.4112095000455,701.411221300019,None,,,,,,,,,,,,,,,00041,001,2026-01-17_15h38.16.978,MST_task,2024.2.0,59.61720982628425,2026-01-17 15h38.30.316137 +0530,
,Objects\279a.jpg,41,0,42,,,,,f,0.9071201999904588,0.16862519999267533,None,,,,,,42,0,41,701.4279986000038,,,,,,,,,,,,,,,,,,,,,,,701.4112895000144,701.4279986000038,701.912958800036,,,,,,,,,,,,,,,,,,,701.9157735000481,701.9297158000409,701.9297158000409,701.9297158000409,704.9235793000553,indoor,f,0.9071201999904588,0.16862519999267533,704.9239045000286,704.9239215000416,None,,,,,,,,,,,,,,,00041,001,2026-01-17_15h38.16.978,MST_task,2024.2.0,59.61720982628425,2026-01-17 15h38.30.316137 +0530,
,Objects\056a.jpg,42,0,43,,,,,j,2.3143515000119805,0.12840859999414533,None,,,,,,43,0,42,704.9401795000304,,,,,,,,,,,,,,,,,,,,,,,704.9239962000283,704.9401795000304,705.4251938000089,,,,,,,,,,,,,,,,,,,705.4371350000147,705.4583658000338,705.4583658000338,705.4583658000338,708.4358975000214,shoe,j,2.3143515000119805,0.12840859999414533,708.4376332000247,708.4376523000537,None,,,,,,,,,,,,,,,00041,001,2026-01-17_15h38.16.978,MST_task,2024.2.0,59.61720982628425,2026-01-17 15h38.30.316137 +0530,
,Objects\089a.jpg,43,0,44,,,,,j,1.081310499983374,0.12020570004824549,None,,,,,,44,0,43,708.4527667000075,,,,,,,,,,,,,,,,,,,,,,,708.4377291000565,708.4527667000075,708.9380009000306,,,,,,,,,,,,,,,,,,,708.9472554000095,708.9709126000525,708.9709126000525,708.9709126000525,711.9480632000486,shoe,j,1.081310499983374,0.12020570004824549,711.9481051000184,711.9481178000569,None,,,,,708.9709126000525,,,,,,,,,,00041,001,2026-01-17_15h38.16.978,MST_task,2024.2.0,59.61720982628425,2026-01-17 15h38.30.316137 +0530,
,Objects\202a.jpg,44,0,45,,,,,f,1.5535950000048615,0.18497559998650104,None,,,,,,45,0,44,711.9649087000289,,,,,,,,,,,,,,,,,,,,,,,711.9485212000436,711.9649087000289,712.4504641000531,,,,,,,,,,,,,,,,,,,712.4565731000039,712.4666255000047,712.4666255000047,712.4666255000047,715.4604956000112,shoe,f,1.5535950000048615,0.18497559998650104,715.4605371000362,715.4605486000073,None,,,,,,,,,,,,,,,00041,001,2026-01-17_15h38.16.978,MST_task,2024.2.0,59.61720982628425,2026-01-17 15h38.30.316137 +0530,
,Objects\017a.jpg,45,0,46,,,,,f,1.5305084999999963,0.1600023999926634,None,,,,,,46,0,45,715.4772030000458,,,,,,,,,,,,,,,,,,,,,,,715.4606274000253,715.4772030000458,715.9621385000064,,,,,,,,,,,,,,,,,,,715.9701696000411,715.9783010000247,715.9783010000247,715.9783010000247,718.9726840000367,shoe,f,1.5305084999999963,0.1600023999926634,718.9727316000499,718.9727435000241,None,,,,,,,,,,,,,,,00041,001,2026-01-17_15h38.16.978,MST_task,2024.2.0,59.61720982628425,2026-01-17 15h38.30.316137 +0530,
,Objects\299a.jpg,46,0,47,,,,,None,,,j,0.7910335999913514,None,,,,47,0,46,718.9896370000206,,,,,,,,,,,,,,,,,,,,,,,718.9728126000264,718.9896370000206,719.4745865000295,,,,,,,,,,,,,,,,,,,719.4816565000219,719.4905963000492,719.4905963000492,719.4905963000492,722.4849564000033,shoe,None,,,722.484993900056,723.305274900049,j,722.5017921000253,722.5017921000253,0.7910335999913514,None,,,,,,,,,,,00041,001,2026-01-17_15h38.16.978,MST_task,2024.2.0,59.61720982628425,2026-01-17 15h38.30.316137 +0530,
,Objects\071a.jpg,47,0,48,,,,,f,1.1813541000010446,0.15160009998362511,None,,,,,,48,0,47,723.3213411000324,,,,,,,,,,,,,,,,,,,,,,,723.3053657000419,723.3213411000324,723.8062952000182,,,,,,,,,,,,,,,,,,,723.813539200055,723.8233052000287,723.8233052000287,723.8233052000287,726.8168027000502,shoe,f,1.1813541000010446,0.15160009998362511,726.8168456000276,726.8168576000025,None,,,,,,,,,,,,,,,00041,001,2026-01-17_15h38.16.978,MST_task,2024.2.0,59.61720982628425,2026-01-17 15h38.30.316137 +0530,
,Objects\194a.jpg,48,0,49,,,,,f,1.7097847000113688,0.1671347999945283,None,,,,,,49,0,48,726.8337565000402,,,,,,,,,,,,,,,,,,,,,,,726.8169776000432,726.8337565000402,727.318787700031,,,,,,,,,,,,,,,,,,,727.3251564000384,727.3353152000345,727.3353152000345,727.3353152000345,730.3292552000494,shoe,f,1.7097847000113688,0.1671347999945283,730.3293099000002,730.3293216000311,None,,,,,,,,,,,,,,,00041,001,2026-01-17_15h38.16.978,MST_task,2024.2.0,59.61720982628425,2026-01-17 15h38.30.316137 +0530,
,Objects\058a.jpg,49,0,50,,,,,f,1.8122001999872737,0.13645619997987524,None,,,,,,50,0,49,730.346099700022,,,,,,,,,,,,,,,,,,,,,,,730.3293936000555,730.346099700022,730.8310441000503,,,,,,,,,,,,,,,,,,,730.8395599000505,730.8645485000452,730.8645485000452,730.8645485000452,733.8415196000133,indoor,f,1.8122001999872737,0.13645619997987524,733.8428334000055,733.8428522000322,None,,,,,,,,,,,,,,,00041,001,2026-01-17_15h38.16.978,MST_task,2024.2.0,59.61720982628425,2026-01-17 15h38.30.316137 +0530,
,Objects\262a.jpg,50,0,51,,,,,f,2.6285178000107408,0.15333180001471192,None,,,,,,51,0,50,733.8581248000264,,,,,,,,,,,,,,,,,,,,,,,733.8429229000467,733.8581248000264,734.3435121000512,,,,,,,,,,,,,,,,,,,734.3496183000389,734.3598713000538,734.3598713000538,734.3598713000538,737.3538118000142,indoor,f,2.6285178000107408,0.15333180001471192,737.3538554000552,737.3538674000301,None,,,,,,,,,,,,,,,00041,001,2026-01-17_15h38.16.978,MST_task,2024.2.0,59.61720982628425,2026-01-17 15h38.30.316137 +0530,
,Objects\031a.jpg,51,0,52,,,,,j,0.8039083000039682,0.13622300000861287,None,,,,,,52,0,51,737.3704141000053,,,,,,,,,,,,,,,,,,,,,,,737.3539379000431,737.3704141000053,737.8557267000433,,,,,,,,,,,,,,,,,,,737.8712694999995,737.8889379000175,737.8889379000175,737.8889379000175,740.866138100042,indoor,j,0.8039083000039682,0.13622300000861287,740.8661813000217,740.8661933000549,None,,,,,,,,,,,,,,,00041,001,2026-01-17_15h38.16.978,MST_task,2024.2.0,59.61720982628425,2026-01-17 15h38.30.316137 +0530,
,Objects\053a.jpg,52,0,53,,,,,f,1.5160106000257656,0.1353942999849096,None,,,,,,53,0,52,740.8827218000079,,,,,,,,,,,,,,,,,,,,,,,740.8662666000309,740.8827218000079,741.3691018000245,,,,,,,,,,,,,,,,,,,741.3725044000312,741.3849684000015,741.3849684000015,741.3849684000015,744.3785921000526,indoor,f,1.5160106000257656,0.1353942999849096,744.378647400008,744.3786592000397,None,,,,,,,,,,,,,,,00041,001,2026-01-17_15h38.16.978,MST_task,2024.2.0,59.61720982628425,2026-01-17 15h38.30.316137 +0530,
,Objects\309a.jpg,53,0,54,,,,,j,2.917347000038717,None,None,,,,,,54,0,53,744.395177700033,,,,,,,,,,,,,,,,,,,,,,,744.3787290000473,744.395177700033,744.8803915000171,,,,,,,,,,,,,,,,,,,744.8868276000139,744.8963213000097,744.8963213000097,744.8963213000097,747.8909736000351,indoor,j,2.917347000038717,None,747.891020900046,747.8910342000308,None,,,,,,,,,,,,,,,00041,001,2026-01-17_15h38.16.978,MST_task,2024.2.0,59.61720982628425,2026-01-17 15h38.30.316137 +0530,
,Objects\375a.jpg,54,0,55,,,,,j,1.7143036000197753,0.12830350000876933,None,,,,,,55,0,54,747.9074792000465,,,,,,,,,,,,,,,,,,,,,,,747.8911180000287,747.9074792000465,748.3932968000299,,,,,,,,,,,,,,,,,,,748.4002497000038,748.42653170001,748.42653170001,748.42653170001,751.4028778000502,indoor,j,1.7143036000197753,0.12830350000876933,751.4029205000261,751.4029320000554,None,,,,,,,,,,,,,,,00041,001,2026-01-17_15h38.16.978,MST_task,2024.2.0,59.61720982628425,2026-01-17 15h38.30.316137 +0530,
,Objects\296a.jpg,55,0,56,,,,,f,1.6604398000054061,0.1350547000183724,None,,,,,,56,0,55,751.4197191000567,,,,,,,,,,,,,,,,,,,,,,,751.4030071000452,751.4197191000567,751.9047018000274,,,,,,,,,,,,,,,,,,,751.9116713000112,751.9213419000152,751.9213419000152,751.9213419000152,754.9153352000285,indoor,f,1.6604398000054061,0.1350547000183724,754.9153909000452,754.9154027000186,None,,,,,,,,,,,,,,,00041,001,2026-01-17_15h38.16.978,MST_task,2024.2.0,59.61720982628425,2026-01-17 15h38.30.316137 +0530,
,Objects\235a.jpg,56,0,57,,,,,f,2.490335199981928,0.1277059999993071,None,,,,,,57,0,56,754.932022700028,,,,,,,,,,,,,,,,,,,,,,,754.9154714000179,754.932022700028,755.4169859000249,,,,,,,,,,,,,,,,,,,755.4257729000528,755.4504608000279,755.4504608000279,755.4504608000279,758.427692199999,shoe,f,2.490335199981928,0.1277059999993071,758.4291284000501,758.4291468000156,None,,,,,,,,,,,,,,,00041,001,2026-01-17_15h38.16.978,MST_task,2024.2.0,59.61720982628425,2026-01-17 15h38.30.316137 +0530,
,Objects\350a.jpg,57,0,58,,,,,None,,,j,None,None,,,,58,0,57,758.4443189000012,,,,,,,,,,,,,,,,,,,,,,,758.4292183000362,758.4443189000012,758.9292592000565,,,,,,,,,,,,,,,,,,,758.9371380000375,758.9627510000137,758.9627510000137,758.9627510000137,761.9400432000402,shoe,None,,,761.94008270005,762.1242773000267,j,761.956653100031,761.956653100031,None,None,,,,,,,,,,,00041,001,2026-01-17_15h38.16.978,MST_task,2024.2.0,59.61720982628425,2026-01-17 15h38.30.316137 +0530,
,Objects\292a.jpg,58,0,59,,,,,j,1.3558629999752156,0.20594439998967573,None,,,,,,59,0,58,762.1408430000301,,,,,,,,,,,,,,,,,,,,,,,762.1243658000021,762.1408430000301,762.6257306000334,,,,,,,,,,,,,,,,,,,762.6316160000279,762.6426063000108,762.6426063000108,762.6426063000108,765.6362370999996,shoe,j,1.3558629999752156,0.20594439998967573,765.636280100036,765.6362922000117,None,,,,,,,,,,,,,,,00041,001,2026-01-17_15h38.16.978,MST_task,2024.2.0,59.61720982628425,2026-01-17 15h38.30.316137 +0530,
,Objects\332a.jpg,59,0,60,,,,,j,1.216829700046219,0.17564649996347725,None,,,,,,60,0,59,765.6530502000242,,,,,,,,,,,,,,,,,,,,,,,765.6363610000117,765.6530502000242,766.1386120000388,,,,,,,,,,,,,,,,,,,766.1458379000542,766.1721267000539,766.1721267000539,766.1721267000539,769.1484879000345,shoe,j,1.216829700046219,0.17564649996347725,769.1485294000013,769.1485415000352,None,,,,,,,,,,,,,,,00041,001,2026-01-17_15h38.16.978,MST_task,2024.2.0,59.61720982628425,2026-01-17 15h38.30.316137 +0530,
,Objects\363a.jpg,60,0,61,,,,,None,,,j,0.463418300030753,None,,,,61,0,60,769.1652245000005,,,,,,,,,,,,,,,,,,,,,,,769.1486115000444,769.1652245000005,769.6502805000055,,,,,,,,,,,,,,,,,,,769.664812300005,769.6835167000536,769.6835167000536,769.6835167000536,772.6606445000507,shoe,None,,,772.6606957000331,773.1465444000205,j,772.6776036000228,772.6776036000228,0.463418300030753,None,,,,,,,,,,,00041,001,2026-01-17_15h38.16.978,MST_task,2024.2.0,59.61720982628425,2026-01-17 15h38.30.316137 +0530,
,Objects\311a.jpg,61,0,62,,,,,j,1.972966599976644,0.143794399977196,None,,,,,,62,0,61,773.1624108000542,,,,,,,,,,,,,,,,,,,,,,,773.1466339000035,773.1624108000542,773.6476064000162,,,,,,,,,,,,,,,,,,,773.651030500012,773.6643832000555,773.6643832000555,773.6643832000555,776.657980900025,shoe,j,1.972966599976644,0.143794399977196,776.658035200031,776.6580473000067,None,,,,,,,,,,,,,,,00041,001,2026-01-17_15h38.16.978,MST_task,2024.2.0,59.61720982628425,2026-01-17 15h38.30.316137 +0530,
,Objects\171a.jpg,62,0,63,,,,,j,0.9159656000556424,0.16830429999390617,None,,,,,,63,0,62,776.6750720000127,,,,,,,,,,,,,,,,,,,,,,,776.6581158000045,776.6750720000127,777.1597762000165,,,,,,,,,,,,,,,,,,,777.1626121000154,777.1765312000061,777.1765312000061,777.1765312000061,780.1702725000214,shoe,j,0.9159656000556424,0.16830429999390617,780.1703259000205,780.170340200013,None,,,,,,,,,,,,,,,00041,001,2026-01-17_15h38.16.978,MST_task,2024.2.0,59.61720982628425,2026-01-17 15h38.30.316137 +0530,
,Objects\233a.jpg,63,0,64,,,,,j,1.7728768000379205,0.15954769996460527,None,,,,,,64,0,63,780.1872599000344,,,,,,,,,,,,,,,,,,,,,,,780.1704606000567,780.1872599000344,780.6720782000339,,,,,,,,,,,,,,,,,,,780.679972700018,780.6883777000476,780.6883777000476,780.6883777000476,783.682588900032,indoor,j,1.7728768000379205,0.15954769996460527,783.6843058000086,783.6843253000407,None,,,,,,,,,,,,,,,00041,001,2026-01-17_15h38.16.978,MST_task,2024.2.0,59.61720982628425,2026-01-17 15h38.30.316137 +0530,
,Objects\293a.jpg,64,0,65,,,,,f,1.7462001999956556,0.12065609998535365,None,,,,,,65,0,64,783.6994202000205,,,,,,,,,,,,,,,,,,,,,,,783.6844100000453,783.6994202000205,784.1845072000287,,,,,,,,,,,,,,,,,,,784.1975795000326,784.217994400009,784.217994400009,784.217994400009,787.1950168000185,indoor,f,1.7462001999956556,0.12065609998535365,787.1950710000237,787.1951023000292,None,,,,,,,,,,,,,,,00041,001,2026-01-17_15h38.16.978,MST_task,2024.2.0,59.61720982628425,2026-01-17 15h38.30.316137 +0530,
,Objects\073a.jpg,65,0,66,,,,,f,1.4991830000071786,0.1129926000139676,None,,,,,,66,0,65,787.2115890000132,,,,,,,,,,,,,,,,,,,,,,,787.1952057000017,787.2115890000132,787.6968019000487,,,,,,,,,,,,,,,,,,,787.7127148000291,787.730047100049,787.730047100049,787.730047100049,790.7073391000158,indoor,f,1.4991830000071786,0.1129926000139676,790.7073864000267,790.7074022000306,None,,,,,,,,,,,,,,,00041,001,2026-01-17_15h38.16.978,MST_task,2024.2.0,59.61720982628425,2026-01-17 15h38.30.316137 +0530,
,Objects\258a.jpg,66,0,67,,,,,j,0.8346127000404522,0.1592578999698162,None,,,,,,67,0,66,790.7240067000384,,,,,,,,,,,,,,,,,,,,,,,790.707921400026,790.7240067000384,791.209060800029,,,,,,,,,,,,,,,,,,,791.2230634000152,791.2424486000091,791.2424486000091,791.2424486000091,794.2196505000466,indoor,j,0.8346127000404522,0.1592578999698162,794.2197006000206,794.2197134000016,None,,,,,,,,,,,,,,,00041,001,2026-01-17_15h38.16.978,MST_task,2024.2.0,59.61720982628425,2026-01-17 15h38.30.316137 +0530,
,Objects\002a.jpg,67,0,68,,,,,f,1.539310799969826,0.13670279999496415,None,,,,,,68,0,67,794.2369834000128,,,,,,,,,,,,,,,,,,,,,,,794.2197965000523,794.2369834000128,794.721320600016,,,,,,,,,,,,,,,,,,,794.7290300000459,794.7376578000258,794.7376578000258,794.7376578000258,797.731967300002,indoor,f,1.539310799969826,0.13670279999496415,797.7320198000525,797.7320332000381,None,,,,,,,,,,,,,,,00041,001,2026-01-17_15h38.16.978,MST_task,2024.2.0,59.61720982628425,2026-01-17 15h38.30.316137 +0530,
,Objects\304a.jpg,68,0,69,,,,,f,2.3301637999829836,0.14357770001515746,None,,,,,,69,0,68,797.7484354000189,,,,,,,,,,,,,,,,,,,,,,,797.7321130000055,797.7484354000189,798.2335763000301,,,,,,,,,,,,,,,,,,,798.2418032000423,798.267081500031,798.267081500031,798.267081500031,801.2441758000059,indoor,f,2.3301637999829836,0.14357770001515746,801.2442318000249,801.2442441000021,None,,,,,,,,,,,,,,,00041,001,2026-01-17_15h38.16.978,MST_task,2024.2.0,59.61720982628425,2026-01-17 15h38.30.316137 +0530,
,Objects\061a.jpg,69,0,70,,,,,j,1.017935200012289,0.1674013999872841,None,,,,,,70,0,69,801.2608063000371,,,,,,,,,,,,,,,,,,,,,,,801.2443137000082,801.2608063000371,801.7459917000378,,,,,,,,,,,,,,,,,,,801.7601849000202,801.7792286000331,801.7792286000331,801.7792286000331,804.7563636000268,indoor,j,1.017935200012289,0.1674013999872841,804.7564054000541,804.7564171000267,None,,,,,,,,,,,,,,,00041,001,2026-01-17_15h38.16.978,MST_task,2024.2.0,59.61720982628425,2026-01-17 15h38.30.316137 +0530,
,Objects\252a.jpg,70,0,71,,,,,f,1.8178066000109538,0.15968949999660254,None,,,,,,71,0,70,804.7732031000196,,,,,,,,,,,,,,,,,,,,,,,804.7564866000321,804.7732031000196,805.2582812000182,,,,,,,,,,,,,,,,,,,805.2625805000425,805.2749191000476,805.2749191000476,805.2749191000476,808.2686863000272,shoe,f,1.8178066000109538,0.15968949999660254,808.27170880005,808.2717273000162,None,,,,,,,,,,,,,,,00041,001,2026-01-17_15h38.16.978,MST_task,2024.2.0,59.61720982628425,2026-01-17 15h38.30.316137 +0530,
,Objects\266a.jpg,71,0,72,,,,,j,2.6006503000389785,0.1522028999752365,None,,,,,,72,0,71,808.2855111000245,,,,,,,,,,,,,,,,,,,,,,,808.2718059000326,808.2855111000245,808.7708963000332,,,,,,,,,,,,,,,,,,,808.7785998000181,808.8041223000037,808.8041223000037,808.8041223000037,811.7809571000398,shoe,j,2.6006503000389785,0.1522028999752365,811.781000500021,811.7810131000006,None,,,,,808.8041223000037,,,,,,,,,,00041,001,2026-01-17_15h38.16.978,MST_task,2024.2.0,59.61720982628425,2026-01-17 15h38.30.316137 +0530,
,Objects\006a.jpg,72,0,73,,,,,f,0.9918770000222139,0.12939009995898232,None,,,,,,73,0,72,811.7978055000422,,,,,,,,,,,,,,,,,,,,,,,811.7810948000406,811.7978055000422,812.2827742000227,,,,,,,,,,,,,,,,,,,812.2969858000288,812.3162541000056,812.3162541000056,812.3162541000056,815.293403000047,shoe,f,0.9918770000222139,0.12939009995898232,815.2934463000274,815.2934582000016,None,,,,,,,,,,,,,,,00041,001,2026-01-17_15h38.16.978,MST_task,2024.2.0,59.61720982628425,2026-01-17 15h38.30.316137 +0530,
,Objects\346a.jpg,73,0,74,,,,,j,0.8410925000207499,0.1765165999531746,None,,,,,,74,0,73,815.3101097000181,,,,,,,,,,,,,,,,,,,,,,,815.2935294000199,815.3101097000181,815.7952023000107,,,,,,,,,,,,,,,,,,,815.8026848000009,815.8113567000255,815.8113567000255,815.8113567000255,818.8056885000551,shoe,j,0.8410925000207499,0.1765165999531746,818.8057305000257,818.8057417000527,None,,,,,,,,,,,,,,,00041,001,2026-01-17_15h38.16.978,MST_task,2024.2.0,59.61720982628425,2026-01-17 15h38.30.316137 +0530,
,Objects\362a.jpg,74,0,75,,,,,f,1.5293823999818414,0.15996660001110286,None,,,,,,75,0,74,818.8223060000455,,,,,,,,,,,,,,,,,,,,,,,818.8058594000177,818.8223060000455,819.3074732000241,,,,,,,,,,,,,,,,,,,819.3149878000258,819.3235625000088,819.3235625000088,819.3235625000088,822.3180767000304,shoe,f,1.5293823999818414,0.15996660001110286,822.318122000026,822.3181339000002,None,,,,,,,,,,,,,,,00041,001,2026-01-17_15h38.16.978,MST_task,2024.2.0,59.61720982628425,2026-01-17 15h38.30.316137 +0530,
,Objects\099a.jpg,75,0,76,,,,,j,0.9842746000504121,0.18399379996117204,None,,,,,,76,0,75,822.3347123000422,,,,,,,,,,,,,,,,,,,,,,,822.3182027000003,822.3347123000422,822.8198031000211,,,,,,,,,,,,,,,,,,,822.8281966000213,822.8531141000567,822.8531141000567,822.8531141000567,825.8301545000286,shoe,j,0.9842746000504121,0.18399379996117204,825.8301993000205,825.8302109000506,None,,,,,,,,,,,,,,,00041,001,2026-01-17_15h38.16.978,MST_task,2024.2.0,59.61720982628425,2026-01-17 15h38.30.316137 +0530,
,Objects\287a.jpg,76,0,77,,,,,f,2.6798578000161797,0.15272249997360632,None,,,,,,77,0,76,825.8470034000347,,,,,,,,,,,,,,,,,,,,,,,825.8302954000537,825.8470034000347,826.3320793000166,,,,,,,,,,,,,,,,,,,826.3389158000355,826.3488967000158,826.3488967000158,826.3488967000158,829.3426531000296,shoe,f,2.6798578000161797,0.15272249997360632,829.342700600042,829.3427131000208,None,,,,,,,,,,,,,,,00041,001,2026-01-17_15h38.16.978,MST_task,2024.2.0,59.61720982628425,2026-01-17 15h38.30.316137 +0530,
,Objects\100a.jpg,77,0,78,,,,,j,2.022524500032887,0.2319411999778822,None,,,,,,78,0,77,829.3597969000111,,,,,,,,,,,,,,,,,,,,,,,829.3427902000258,829.3597969000111,829.8451026000548,,,,,,,,,,,,,,,,,,,829.8606448000064,829.8781114000012,829.8781114000012,829.8781114000012,832.854756100045,indoor,j,2.022524500032887,0.2319411999778822,832.8562572000083,832.8562753000297,None,,,,,,,,,,,,,,,00041,001,2026-01-17_15h38.16.978,MST_task,2024.2.0,59.61720982628425,2026-01-17 15h38.30.316137 +0530,
,Objects\082a.jpg,78,0,79,,,,,j,1.2470871999976225,0.17561490001389757,None,,,,,,79,0,78,832.8715897000511,,,,,,,,,,,,,,,,,,,,,,,832.8563457000419,832.8715897000511,833.3565599000431,,,,,,,,,,,,,,,,,,,833.3657875000499,833.39003400004,833.39003400004,833.39003400004,836.3671677000239,indoor,j,1.2470871999976225,0.17561490001389757,836.3672086000443,836.3672201000154,None,,,,,,,,,,,,,,,00041,001,2026-01-17_15h38.16.978,MST_task,2024.2.0,59.61720982628425,2026-01-17 15h38.30.316137 +0530,
,Objects\303a.jpg,79,0,80,,,,,j,1.1893292000168003,0.15222059999359772,None,,,,,,80,0,79,836.3840146000148,,,,,,,,,,,,,,,,,,,,,,,836.3673041000147,836.3840146000148,836.8688527000486,,,,,,,,,,,,,,,,,,,836.8798289000406,836.9031246000086,836.9031246000086,836.9031246000086,839.8796593000297,indoor,j,1.1893292000168003,0.15222059999359772,839.8797015000018,839.879713100032,None,,,,,,,,,,,,,,,00041,001,2026-01-17_15h38.16.978,MST_task,2024.2.0,59.61720982628425,2026-01-17 15h38.30.316137 +0530,
,Objects\164a.jpg,80,0,81,,,,,f,1.671905999945011,0.14343750005355105,None,,,,,,81,0,80,839.8963165000314,,,,,,,,,,,,,,,,,,,,,,,839.8797822000342,839.8963165000314,840.3814809000469,,,,,,,,,,,,,,,,,,,840.3892164000426,840.3975806000526,840.3975806000526,840.3975806000526,843.3920024000108,indoor,f,1.671905999945011,0.14343750005355105,843.392043800035,843.3920678000432,None,,,,,,,,,,,,,,,00041,001,2026-01-17_15h38.16.978,MST_task,2024.2.0,59.61720982628425,2026-01-17 15h38.30.316137 +0530,
,Objects\104a.jpg,81,0,82,,,,,f,0.8783887999597937,0.167983399995137,None,,,,,,82,0,81,843.4085241000284,,,,,,,,,,,,,,,,,,,,,,,843.3921369000454,843.4085241000284,843.8937267000438,,,,,,,,,,,,,,,,,,,843.8965128000127,843.9103336000117,843.9103336000117,843.9103336000117,846.9045231000055,indoor,f,0.8783887999597937,0.167983399995137,846.9045782000176,846.9045898000477,None,,,,,,,,,,,,,,,00041,001,2026-01-17_15h38.16.978,MST_task,2024.2.0,59.61720982628425,2026-01-17 15h38.30.316137 +0530,
,Objects\290a.jpg,82,0,83,,,,,j,1.7975147999823093,0.14268360001733527,None,,,,,,83,0,82,846.9210347000044,,,,,,,,,,,,,,,,,,,,,,,846.9046586000477,846.9210347000044,847.4065038000117,,,,,,,,,,,,,,,,,,,847.4141829000437,847.4398537000525,847.4398537000525,847.4398537000525,850.4168175000232,indoor,j,1.7975147999823093,0.14268360001733527,850.4168588000466,850.41687060002,None,,,,,,,,,,,,,,,00041,001,2026-01-17_15h38.16.978,MST_task,2024.2.0,59.61720982628425,2026-01-17 15h38.30.316137 +0530,
,Objects\308a.jpg,83,0,84,,,,,j,0.7885022999835201,0.16026689996942878,None,,,,,,84,0,83,850.4329668999999,,,,,,,,,,,,,,,,,,,,,,,850.4169377000071,850.4329668999999,850.9181835000054,,,,,,,,,,,,,,,,,,,850.9262187000131,850.9518326000543,850.9518326000543,850.9518326000543,853.9286843000446,indoor,j,0.7885022999835201,0.16026689996942878,853.9287268000189,853.9287388000521,None,,,,,,,,,,,,,,,00041,001,2026-01-17_15h38.16.978,MST_task,2024.2.0,59.61720982628425,2026-01-17 15h38.30.316137 +0530,
,Objects\042a.jpg,84,0,85,,,,,j,1.0380368999904022,0.1832321000401862,None,,,,,,85,0,84,853.9453801000491,,,,,,,,,,,,,,,,,,,,,,,853.9288127000327,853.9453801000491,854.4304877000395,,,,,,,,,,,,,,,,,,,854.4348823000328,854.447093499999,854.447093499999,854.447093499999,857.4419157000375,shoe,j,1.0380368999904022,0.1832321000401862,857.4434427000233,857.4434616000508,None,,,,,,,,,,,,,,,00041,001,2026-01-17_15h38.16.978,MST_task,2024.2.0,59.61720982628425,2026-01-17 15h38.30.316137 +0530,
,Objects\210a.jpg,85,0,86,,,,,None,,,j,0.5307972999871708,None,,,,86,0,85,857.457890300022,,,,,,,,,,,,,,,,,,,,,,,857.4435325000086,857.457890300022,857.9436590000405,,,,,,,,,,,,,,,,,,,857.9503113000537,857.9590293000219,857.9590293000219,857.9590293000219,860.9534502000315,shoe,None,,,860.9539392000297,861.506048900017,j,860.9701012000442,860.9701012000442,0.5307972999871708,None,857.9590293000219,,,,,,,,,,00041,001,2026-01-17_15h38.16.978,MST_task,2024.2.0,59.61720982628425,2026-01-17 15h38.30.316137 +0530,
,Objects\050a.jpg,86,0,87,,,,,f,2.62108440004522,0.1442557999980636,None,,,,,,87,0,86,861.5219403000083,,,,,,,,,,,,,,,,,,,,,,,861.5061431000358,861.5219403000083,862.0072424000246,,,,,,,,,,,,,,,,,,,862.0147672000458,862.0231261000154,862.0231261000154,862.0231261000154,865.0174921000144,shoe,f,2.62108440004522,0.1442557999980636,865.0175340000424,865.0175458000158,None,,,,,,,,,,,,,,,00041,001,2026-01-17_15h38.16.978,MST_task,2024.2.0,59.61720982628425,2026-01-17 15h38.30.316137 +0530,
,Objects\280a.jpg,87,0,88,,,,,f,1.0367959999712184,0.13583099999232218,None,,,,,,88,0,87,865.0340814000228,,,,,,,,,,,,,,,,,,,,,,,865.017614100012,865.0340814000228,865.5193975000293,,,,,,,,,,,,,,,,,,,865.5225505999988,865.5358094000258,865.5358094000258,865.5358094000258,868.529963100038,shoe,f,1.0367959999712184,0.13583099999232218,868.5300099000451,868.5300222000224,None,,,,,,,,,,,,,,,00041,001,2026-01-17_15h38.16.978,MST_task,2024.2.0,59.61720982628425,2026-01-17 15h38.30.316137 +0530,
,Objects\253a.jpg,88,0,89,,,,,f,0.869268300011754,0.11058060004143044,None,,,,,,89,0,88,868.5464020000072,,,,,,,,,,,,,,,,,,,,,,,868.5300951000536,868.5464020000072,869.0321170000243,,,,,,,,,,,,,,,,,,,869.0426894000266,869.0649609000538,869.0649609000538,869.0649609000538,872.0419953000383,shoe,f,0.869268300011754,0.11058060004143044,872.042038500018,872.0420499000465,None,,,,,,,,,,,,,,,00041,001,2026-01-17_15h38.16.978,MST_task,2024.2.0,59.61720982628425,2026-01-17 15h38.30.316137 +0530,
,Objects\316a.jpg,89,0,90,,,,,f,2.0043069000239484,0.12796399998478591,None,,,,,,90,0,89,872.0588356000371,,,,,,,,,,,,,,,,,,,,,,,872.0421819000039,872.0588356000371,872.5437777000479,,,,,,,,,,,,,,,,,,,872.5499272000161,872.5605766000226,872.5605766000226,872.5605766000226,875.554450100055,shoe,f,2.0043069000239484,0.12796399998478591,875.5544910000172,875.5545029000496,None,,,,,,,,,,,,,,,00041,001,2026-01-17_15h38.16.978,MST_task,2024.2.0,59.61720982628425,2026-01-17 15h38.30.316137 +0530,
,Objects\161a.jpg,90,0,91,,,,,f,0.6273736999719404,0.1515895000193268,None,,,,,,91,0,90,875.571224400017,,,,,,,,,,,,,,,,,,,,,,,875.5545729000005,875.571224400017,876.0560786999995,,,,,,,,,,,,,,,,,,,876.0712835000013,876.0895506000379,876.0895506000379,876.0895506000379,879.0666976000066,shoe,f,0.6273736999719404,0.1515895000193268,879.0667440000107,879.0667563000461,None,,,,,,,,,,,,,,,00041,001,2026-01-17_15h38.16.978,MST_task,2024.2.0,59.61720982628425,2026-01-17 15h38.30.316137 +0530,
,Objects\198a.jpg,91,0,92,,,,,j,1.572949699999299,0.16628870001295581,None,,,,,,92,0,91,879.0832988000475,,,,,,,,,,,,,,,,,,,,,,,879.0668270000024,879.0832988000475,879.5692893000087,,,,,,,,,,,,,,,,,,,879.5728331000428,879.5852240000386,879.5852240000386,879.5852240000386,882.578883500013,indoor,j,1.572949699999299,0.16628870001295581,882.5802267000545,882.5802453000215,None,,,,,,,,,,,,,,,00041,001,2026-01-17_15h38.16.978,MST_task,2024.2.0,59.61720982628425,2026-01-17 15h38.30.316137 +0530,
,Objects\333a.jpg,92,0,93,,,,,f,1.1380629999912344,0.16832900000736117,None,,,,,,93,0,92,882.5957009000122,,,,,,,,,,,,,,,,,,,,,,,882.5803194000036,882.5957009000122,883.0806996000465,,,,,,,,,,,,,,,,,,,883.0904010000522,883.1141472000163,883.1141472000163,883.1141472000163,886.0912875000504,indoor,f,1.1380629999912344,0.16832900000736117,886.0913285000133,886.0913400000427,None,,,,,,,,,,,,,,,00041,001,2026-01-17_15h38.16.978,MST_task,2024.2.0,59.61720982628425,2026-01-17 15h38.30.316137 +0530,
,Objects\021a.jpg,93,0,94,,,,,f,1.2261156999738887,0.16020669997669756,None,,,,,,94,0,93,886.1078781000106,,,,,,,,,,,,,,,,,,,,,,,886.0914096000488,886.1078781000106,886.5930976000382,,,,,,,,,,,,,,,,,,,886.6025648000068,886.6263215000508,886.6263215000508,886.6263215000508,889.6036072000279,indoor,f,1.2261156999738887,0.16020669997669756,889.6036488000536,889.6036606000271,None,,,,,,,,,,,,,,,00041,001,2026-01-17_15h38.16.978,MST_task,2024.2.0,59.61720982628425,2026-01-17 15h38.30.316137 +0530,
,Objects\218a.jpg,94,0,95,,,,,j,0.762641999986954,0.1606372999958694,None,,,,,,95,0,94,889.6203122000443,,,,,,,,,,,,,,,,,,,,,,,889.6037317000446,889.6203122000443,890.1052859000047,,,,,,,,,,,,,,,,,,,890.1121653000009,890.1220547000412,890.1220547000412,890.1220547000412,893.1159795000567,indoor,j,0.762641999986954,0.1606372999958694,893.1160337000038,893.1160459000384,None,,,,,,,,,,,,,,,00041,001,2026-01-17_15h38.16.978,MST_task,2024.2.0,59.61720982628425,2026-01-17 15h38.30.316137 +0530,
,Objects\274a.jpg,95,0,96,,,,,j,1.6825420000241138,0.2240674999775365,None,,,,,,96,0,95,893.1325993000064,,,,,,,,,,,,,,,,,,,,,,,893.1161257000058,893.1325993000064,893.6177140000509,,,,,,,,,,,,,,,,,,,893.6253141000052,893.6343420000048,893.6343420000048,893.6343420000048,896.6280603000196,indoor,j,1.6825420000241138,0.2240674999775365,896.6281019000453,896.6281133000157,None,,,,,,,,,,,,,,,00041,001,2026-01-17_15h38.16.978,MST_task,2024.2.0,59.61720982628425,2026-01-17 15h38.30.316137 +0530,
,Objects\186a.jpg,96,0,97,,,,,f,1.907037400000263,0.13529140001628548,None,,,,,,97,0,96,896.6448871000321,,,,,,,,,,,,,,,,,,,,,,,896.6282046000124,896.6448871000321,897.1298551000073,,,,,,,,,,,,,,,,,,,897.1328458000207,897.1466124000144,897.1466124000144,897.1466124000144,900.1405216000276,indoor,f,1.907037400000263,0.13529140001628548,900.140562500048,900.1405742000206,None,,,,,,,,,,,,,,,00041,001,2026-01-17_15h38.16.978,MST_task,2024.2.0,59.61720982628425,2026-01-17 15h38.30.316137 +0530,
,Objects\127a.jpg,97,0,98,,,,,f,1.3844750999705866,0.12903720000758767,None,,,,,,98,0,97,900.1573537000222,,,,,,,,,,,,,,,,,,,,,,,900.1406411000062,900.1573537000222,900.6423256000271,,,,,,,,,,,,,,,,,,,900.651418100053,900.6758034000522,900.6758034000522,900.6758034000522,903.6527993000345,indoor,f,1.3844750999705866,0.12903720000758767,903.6528414000059,903.6528531000367,None,,,,,,,,,,,,,,,00041,001,2026-01-17_15h38.16.978,MST_task,2024.2.0,59.61720982628425,2026-01-17 15h38.30.316137 +0530,
,Objects\136a.jpg,98,0,99,,,,,f,1.3211828999919817,0.15254089998779818,None,,,,,,99,0,98,903.669548600039,,,,,,,,,,,,,,,,,,,,,,,903.6529226000421,903.669548600039,904.1547315000207,,,,,,,,,,,,,,,,,,,904.1652967000264,904.1879840000183,904.1879840000183,904.1879840000183,907.1649604000268,shoe,f,1.3211828999919817,0.15254089998779818,907.1664536000462,907.1664721000125,None,,,,,,,,,,,,,,,00041,001,2026-01-17_15h38.16.978,MST_task,2024.2.0,59.61720982628425,2026-01-17 15h38.30.316137 +0530,
,Objects\347a.jpg,99,0,100,,,,,f,0.6496038000332192,0.143348999961745,None,,,,,,100,0,99,907.1817927000229,,,,,,,,,,,,,,,,,,,,,,,907.1665795000154,907.1817927000229,907.6667714000214,,,,,,,,,,,,,,,,,,,907.6695475000306,907.6835116000148,907.6835116000148,907.6835116000148,910.6777585000382,shoe,f,0.6496038000332192,0.143348999961745,910.677798800054,910.6778102000244,None,,,,,,,,,,,,,,,00041,001,2026-01-17_15h38.16.978,MST_task,2024.2.0,59.61720982628425,2026-01-17 15h38.30.316137 +0530,
,Objects\339a.jpg,100,0,101,,,,,j,1.6737337000085972,0.1752089000074193,None,,,,,,101,0,100,910.6940989000141,,,,,,,,,,,,,,,,,,,,,,,910.6778785000206,910.6940989000141,911.179062900017,,,,,,,,,,,,,,,,,,,911.186813200009,911.1955342000001,911.1955342000001,911.1955342000001,914.1895515000215,shoe,j,1.6737337000085972,0.1752089000074193,914.189593600051,914.1896057000267,None,,,,,,,,,,,,,,,00041,001,2026-01-17_15h38.16.978,MST_task,2024.2.0,59.61720982628425,2026-01-17 15h38.30.316137 +0530,
,Objects\358a.jpg,101,0,102,,,,,j,1.1769739000010304,0.16812509996816516,None,,,,,,102,0,101,914.2063920000219,,,,,,,,,,,,,,,,,,,,,,,914.1896758000366,914.2063920000219,914.6915689000161,,,,,,,,,,,,,,,,,,,914.699469800049,914.7073716000305,914.7073716000305,914.7073716000305,917.7020356000285,shoe,j,1.1769739000010304,0.16812509996816516,917.7020785000059,917.7020900000352,None,,,,,,,,,,,,,,,00041,001,2026-01-17_15h38.16.978,MST_task,2024.2.0,59.61720982628425,2026-01-17 15h38.30.316137 +0530,
,Objects\365a.jpg,102,0,103,,,,,f,1.120528400002513,0.16688169998815283,None,,,,,,103,0,102,917.7185563000385,,,,,,,,,,,,,,,,,,,,,,,917.7021586000337,917.7185563000385,918.2036855000188,,,,,,,,,,,,,,,,,,,918.2178392000496,918.237147100037,918.237147100037,918.237147100037,921.2141440000269,shoe,f,1.120528400002513,0.16688169998815283,921.2141859000549,921.214197400026,None,,,,,,,,,,,,,,,00041,001,2026-01-17_15h38.16.978,MST_task,2024.2.0,59.61720982628425,2026-01-17 15h38.30.316137 +0530,
,Objects\126a.jpg,103,0,104,,,,,j,2.263338599994313,0.16820559999905527,None,,,,,,104,0,103,921.2309534000233,,,,,,,,,,,,,,,,,,,,,,,921.2142882000189,921.2309534000233,921.7161180000403,,,,,,,,,,,,,,,,,,,921.7248546000337,921.7495945000555,921.7495945000555,921.7495945000555,924.7265714000096,shoe,j,2.263338599994313,0.16820559999905527,924.7266136000399,924.7266253000125,None,,,,,,,,,,,,,,,00041,001,2026-01-17_15h38.16.978,MST_task,2024.2.0,59.61720982628425,2026-01-17 15h38.30.316137 +0530,
,Objects\037a.jpg,104,0,105,,,,,f,1.2724204999976791,0.15283979999367148,None,,,,,,105,0,104,924.7431608000188,,,,,,,,,,,,,,,,,,,,,,,924.7267194000306,924.7431608000188,925.2283722000429,,,,,,,,,,,,,,,,,,,925.2318333000294,925.2448667000281,925.2448667000281,925.2448667000281,928.2388591000345,shoe,f,1.2724204999976791,0.15283979999367148,928.2390829000506,928.2390974000446,None,,,,,,,,,,,,,,,00041,001,2026-01-17_15h38.16.978,MST_task,2024.2.0,59.61720982628425,2026-01-17 15h38.30.316137 +0530,
,Objects\174a.jpg,105,0,106,,,,,None,,,f,0.9963970999815501,None,,,,106,0,105,928.2554618000286,,,,,,,,,,,,,,,,,,,,,,,928.2392040000414,928.2554618000286,928.7406706000329,,,,,,,,,,,,,,,,,,,928.7443327000365,928.7572551000048,928.7572551000048,928.7572551000048,931.7511633000104,indoor,None,,,931.7525389000075,932.7720336000202,f,931.7679572000052,931.7679572000052,0.9963970999815501,None,,,,,,,,,,,00041,001,2026-01-17_15h38.16.978,MST_task,2024.2.0,59.61720982628425,2026-01-17 15h38.30.316137 +0530,
,Objects\032a.jpg,106,0,107,,,,,j,1.282868700043764,0.19970930000999942,None,,,,,,107,0,106,932.7879992000526,,,,,,,,,,,,,,,,,,,,,,,932.7721238000086,932.7879992000526,933.2732243000064,,,,,,,,,,,,,,,,,,,933.2763506000047,933.2897196000558,933.2897196000558,933.2897196000558,936.2837097000447,indoor,j,1.282868700043764,0.19970930000999942,936.2840305000427,936.2840476999991,None,,,,,,,,,,,,,,,00041,001,2026-01-17_15h38.16.978,MST_task,2024.2.0,59.61720982628425,2026-01-17 15h38.30.316137 +0530,
,Objects\094a.jpg,107,0,108,,,,,f,1.289832100039348,0.10408929997356609,None,,,,,,108,0,107,936.3002919999999,,,,,,,,,,,,,,,,,,,,,,,936.284126100014,936.3002919999999,936.7855032000225,,,,,,,,,,,,,,,,,,,936.7884373000124,936.8023437000229,936.8023437000229,936.8023437000229,939.796014600026,indoor,f,1.289832100039348,0.10408929997356609,939.7960551000433,939.7960671000183,None,,,,,,,,,,,,,,,00041,001,2026-01-17_15h38.16.978,MST_task,2024.2.0,59.61720982628425,2026-01-17 15h38.30.316137 +0530,
,Objects\354a.jpg,108,0,109,,,,,j,2.4668252000119537,None,None,,,,,,109,0,108,939.8125929000089,,,,,,,,,,,,,,,,,,,,,,,939.7961351000122,939.8125929000089,940.297901700018,,,,,,,,,,,,,,,,,,,940.3040648000315,940.3141931000282,940.3141931000282,940.3141931000282,943.3082997000311,indoor,j,2.4668252000119537,None,943.3083413999993,943.308353200031,None,,,,,,,,,,,,,,,00041,001,2026-01-17_15h38.16.978,MST_task,2024.2.0,59.61720982628425,2026-01-17 15h38.30.316137 +0530,
,Objects\244a.jpg,109,0,110,,,,,j,1.0650140999932773,0.1523975000018254,None,,,,,,110,0,109,943.3254920000327,,,,,,,,,,,,,,,,,,,,,,,943.3084214000264,943.3254920000327,943.8102210000507,,,,,,,,,,,,,,,,,,,943.8236225,943.8433394000167,943.8433394000167,943.8433394000167,946.8206781000481,indoor,j,1.0650140999932773,0.1523975000018254,946.8207311000442,946.8207431000192,None,,,,,,,,,,,,,,,00041,001,2026-01-17_15h38.16.978,MST_task,2024.2.0,59.61720982628425,2026-01-17 15h38.30.316137 +0530,
,Objects\370a.jpg,110,0,111,,,,,j,1.104443300049752,0.18500050000147894,None,,,,,,111,0,110,946.8374572000466,,,,,,,,,,,,,,,,,,,,,,,946.820812400023,946.8374572000466,947.3222682000487,,,,,,,,,,,,,,,,,,,947.337287500035,947.3557499000453,947.3557499000453,947.3557499000453,950.3327822000138,indoor,j,1.104443300049752,0.18500050000147894,950.3328239000402,950.3328353000106,None,,,,,,,,,,,,,,,00041,001,2026-01-17_15h38.16.978,MST_task,2024.2.0,59.61720982628425,2026-01-17 15h38.30.316137 +0530,
,Objects\083a.jpg,111,0,112,,,,,None,,,f,1.1759174999897368,None,,,,112,0,111,950.3496110000415,,,,,,,,,,,,,,,,,,,,,,,950.3329261000035,950.3496110000415,950.8346173000173,,,,,,,,,,,,,,,,,,,950.8438512000139,950.8681968000019,950.8681968000019,950.8681968000019,953.8451922000386,indoor,None,,,953.8452312000445,955.0499298000359,f,953.8617737000459,953.8617737000459,1.1759174999897368,None,,,,,,,,,,,00041,001,2026-01-17_15h38.16.978,MST_task,2024.2.0,59.61720982628425,2026-01-17 15h38.30.316137 +0530,
,Objects\364a.jpg,112,0,113,,,,,f,1.9574929000227712,0.16014789999462664,None,,,,,,113,0,112,955.0660079000518,,,,,,,,,,,,,,,,,,,,,,,955.0500187000143,955.0660079000518,955.5513384000515,,,,,,,,,,,,,,,,,,,955.5583859000471,955.5673721000203,955.5673721000203,955.5673721000203,958.5617140000104,shoe,f,1.9574929000227712,0.16014789999462664,958.5633362000226,958.5633540000417,None,,,,,,,,,,,,,,,00041,001,2026-01-17_15h38.16.978,MST_task,2024.2.0,59.61720982628425,2026-01-17 15h38.30.316137 +0530,
,Objects\106a.jpg,113,0,114,,,,,f,1.7174273999989964,0.14423340000212193,None,,,,,,114,0,113,958.5784155000001,,,,,,,,,,,,,,,,,,,,,,,958.5634656000184,958.5784155000001,959.0634987000376,,,,,,,,,,,,,,,,,,,959.071100000001,959.0795390999992,959.0795390999992,959.0795390999992,962.074028300005,shoe,f,1.7174273999989964,0.14423340000212193,962.0743642000016,962.07438190002,None,,,,,,,,,,,,,,,00041,001,2026-01-17_15h38.16.978,MST_task,2024.2.0,59.61720982628425,2026-01-17 15h38.30.316137 +0530,
,Objects\043a.jpg,114,0,115,,,,,j,2.7308414000435732,0.1604177999543026,None,,,,,,115,0,114,962.0905999000533,,,,,,,,,,,,,,,,,,,,,,,962.0744894000236,962.0905999000533,962.5758041000227,,,,,,,,,,,,,,,,,,,962.5858085000073,962.609349800041,962.609349800041,962.609349800041,965.5867090000538,shoe,j,2.7308414000435732,0.1604177999543026,965.5867597000324,965.5867725000135,None,,,,,,,,,,,,,,,00041,001,2026-01-17_15h38.16.978,MST_task,2024.2.0,59.61720982628425,2026-01-17 15h38.30.316137 +0530,
,Objects\377a.jpg,115,0,116,,,,,j,1.2840128000243567,0.11994189996039495,None,,,,,,116,0,115,965.6030448000529,,,,,,,,,,,,,,,,,,,,,,,965.5868470000569,965.6030448000529,966.0881244000047,,,,,,,,,,,,,,,,,,,966.0945586000453,966.1046149000176,966.1046149000176,966.1046149000176,969.0985190000501,shoe,j,1.2840128000243567,0.11994189996039495,969.0985664000036,969.0985780000337,None,,,,,,,,,,,,,,,00041,001,2026-01-17_15h38.16.978,MST_task,2024.2.0,59.61720982628425,2026-01-17 15h38.30.316137 +0530,
,Objects\256a.jpg,116,0,117,,,,,f,1.8452798000071198,0.156943499983754,None,,,,,,117,0,116,969.1153249000199,,,,,,,,,,,,,,,,,,,,,,,969.0986833000206,969.1153249000199,969.6003059000359,,,,,,,,,,,,,,,,,,,969.6086370000266,969.6339085000218,969.6339085000218,969.6339085000218,972.6108880000538,shoe,f,1.8452798000071198,0.156943499983754,972.6110830000252,972.6111131000216,None,,,,,,,,,,,,,,,00041,001,2026-01-17_15h38.16.978,MST_task,2024.2.0,59.61720982628425,2026-01-17 15h38.30.316137 +0530,
,Objects\119a.jpg,117,0,118,,,,,f,1.2032165999989957,0.14362379995873198,None,,,,,,118,0,117,972.6274817000376,,,,,,,,,,,,,,,,,,,,,,,972.6111922000418,972.6274817000376,973.1127043000306,,,,,,,,,,,,,,,,,,,973.1195304000285,973.1292488000472,973.1292488000472,973.1292488000472,976.1231896000099,shoe,f,1.2032165999989957,0.14362379995873198,976.123244700022,976.1232566000544,None,,,,,,,,,,,,,,,00041,001,2026-01-17_15h38.16.978,MST_task,2024.2.0,59.61720982628425,2026-01-17 15h38.30.316137 +0530,
,Objects\282a.jpg,118,0,119,,,,,j,0.8188099999679253,0.21608580002794042,None,,,,,,119,0,118,976.1397979000467,,,,,,,,,,,,,,,,,,,,,,,976.1233617000398,976.1397979000467,976.6251361000468,,,,,,,,,,,,,,,,,,,976.628455500002,976.6415031000506,976.6415031000506,976.6415031000506,979.6354969000095,shoe,j,0.8188099999679253,0.21608580002794042,979.6355388000375,979.6355505000101,None,,,,,,,,,,,,,,,00041,001,2026-01-17_15h38.16.978,MST_task,2024.2.0,59.61720982628425,2026-01-17 15h38.30.316137 +0530,
,Objects\204a.jpg,119,0,120,,,,,j,2.1950906999991275,0.17578079999657348,None,,,,,,120,0,119,979.6520950000267,,,,,,,,,,,,,,,,,,,,,,,979.6356201000162,979.6520950000267,980.1372956000268,,,,,,,,,,,,,,,,,,,980.1411759000039,980.1538083000341,980.1538083000341,980.1538083000341,983.1477958000032,indoor,j,2.1950906999991275,0.17578079999657348,983.1492713000043,983.1492907000356,None,,,,,,,,,,,,,,,00041,001,2026-01-17_15h38.16.978,MST_task,2024.2.0,59.61720982628425,2026-01-17 15h38.30.316137 +0530,
,Objects\212a.jpg,120,0,121,,,,,j,0.9938090999494307,0.1435403000214137,None,,,,,,121,0,120,983.1643783000181,,,,,,,,,,,,,,,,,,,,,,,983.1493604000425,983.1643783000181,983.6496542000095,,,,,,,,,,,,,,,,,,,983.6580055000377,983.682947000023,983.682947000023,983.682947000023,986.6602117000148,indoor,j,0.9938090999494307,0.1435403000214137,986.6602530000382,986.6602640000056,None,,,,,,,,,,,,,,,00041,001,2026-01-17_15h38.16.978,MST_task,2024.2.0,59.61720982628425,2026-01-17 15h38.30.316137 +0530,
,Objects\113a.jpg,121,0,122,,,,,j,0.7056157000479288,0.1678844999987632,None,,,,,,122,0,121,986.6766933000181,,,,,,,,,,,,,,,,,,,,,,,986.6603307000478,986.6766933000181,987.1618910000543,,,,,,,,,,,,,,,,,,,987.1698895000154,987.1951172000263,987.1951172000263,987.1951172000263,990.1724453000352,indoor,j,0.7056157000479288,0.1678844999987632,990.1724873000057,990.1724991000374,None,,,,,,,,,,,,,,,00041,001,2026-01-17_15h38.16.978,MST_task,2024.2.0,59.61720982628425,2026-01-17 15h38.30.316137 +0530,
,Objects\160a.jpg,122,0,123,,,,,j,2.360893099976238,0.16802260000258684,None,,,,,,123,0,122,990.1892859000363,,,,,,,,,,,,,,,,,,,,,,,990.1725695000496,990.1892859000363,990.6742474000202,,,,,,,,,,,,,,,,,,,990.686485400016,990.7077157000313,990.7077157000313,990.7077157000313,993.6848563000094,indoor,j,2.360893099976238,0.16802260000258684,993.6848965000245,993.6849188000197,None,,,,,,,,,,,,,,,00041,001,2026-01-17_15h38.16.978,MST_task,2024.2.0,59.61720982628425,2026-01-17 15h38.30.316137 +0530,
,Objects\156a.jpg,123,0,124,,,,,j,1.6502205000142567,0.17525560001377016,None,,,,,,124,0,123,993.7014581000549,,,,,,,,,,,,,,,,,,,,,,,993.6849875000189,993.7014581000549,994.1865681000054,,,,,,,,,,,,,,,,,,,994.1892221000162,994.203169400047,994.203169400047,994.203169400047,997.1971357000293,indoor,j,1.6502205000142567,0.17525560001377016,997.1971780000022,997.1972022000118,None,,,,,,,,,,,,,,,00041,001,2026-01-17_15h38.16.978,MST_task,2024.2.0,59.61720982628425,2026-01-17 15h38.30.316137 +0530,
,Objects\167a.jpg,124,0,125,,,,,j,1.3137427000328898,0.1439361999509856,None,,,,,,125,0,124,997.2137422000524,,,,,,,,,,,,,,,,,,,,,,,997.1972707000095,997.2137422000524,997.6992897000164,,,,,,,,,,,,,,,,,,,997.7020883000223,997.7154326000018,997.7154326000018,997.7154326000018,1000.7092805000138,indoor,j,1.3137427000328898,0.1439361999509856,1000.7093238000525,1000.7093361000298,None,,,,,,,,,,,,,,,00041,001,2026-01-17_15h38.16.978,MST_task,2024.2.0,59.61720982628425,2026-01-17 15h38.30.316137 +0530,
,Objects\231a.jpg,125,0,126,,,,,j,0.8649443999747746,0.16825430002063513,None,,,,,,126,0,125,1000.7258663000539,,,,,,,,,,,,,,,,,,,,,,,1000.7094072000473,1000.7258663000539,1001.2110786000267,,,,,,,,,,,,,,,,,,,1001.2164670000202,1001.2275872000027,1001.2275872000027,1001.2275872000027,1004.2214797000051,indoor,j,0.8649443999747746,0.16825430002063513,1004.2215219000354,1004.2215332000051,None,,,,,,,,,,,,,,,00041,001,2026-01-17_15h38.16.978,MST_task,2024.2.0,59.61720982628425,2026-01-17 15h38.30.316137 +0530,
,Objects\313a.jpg,126,0,127,,,,,j,2.0235315000172704,0.11305849999189377,None,,,,,,127,0,126,1004.2383049000055,,,,,,,,,,,,,,,,,,,,,,,1004.2216297000414,1004.2383049000055,1004.7232671000529,,,,,,,,,,,,,,,,,,,1004.7324963000137,1004.7567443000153,1004.7567443000153,1004.7567443000153,1007.7338861000026,shoe,j,2.0235315000172704,0.11305849999189377,1007.735593600024,1007.7356110000401,None,,,,,,,,,,,,,,,00041,001,2026-01-17_15h38.16.978,MST_task,2024.2.0,59.61720982628425,2026-01-17 15h38.30.316137 +0530,
,Objects\149a.jpg,127,0,128,,,,,j,1.616569800011348,0.16730530001223087,None,,,,,,128,0,127,1007.7504814999993,,,,,,,,,,,,,,,,,,,,,,,1007.7356812000507,1007.7504814999993,1008.2356871000375,,,,,,,,,,,,,,,,,,,1008.2384989000275,1008.2521883000154,1008.2521883000154,1008.2521883000154,1011.2461903000367,shoe,j,1.616569800011348,0.16730530001223087,1011.2462335000164,1011.2462560000131,None,,,,,,,,,,,,,,,00041,001,2026-01-17_15h38.16.978,MST_task,2024.2.0,59.61720982628425,2026-01-17 15h38.30.316137 +0530,
,Objects\165a.jpg,128,0,129,,,,,f,1.3594478000304662,0.12806680001085624,None,,,,,,129,0,128,1011.2632064000354,,,,,,,,,,,,,,,,,,,,,,,1011.2463610000559,1011.2632064000354,1011.7479893999989,,,,,,,,,,,,,,,,,,,1011.7508708000532,1011.7646089000045,1011.7646089000045,1011.7646089000045,1014.758489800035,shoe,f,1.3594478000304662,0.12806680001085624,1014.7585349000292,1014.7585472000064,None,,,,,,,,,,,,,,,00041,001,2026-01-17_15h38.16.978,MST_task,2024.2.0,59.61720982628425,2026-01-17 15h38.30.316137 +0530,
,Objects\169a.jpg,129,0,130,,,,,j,2.0231187000172213,0.16867579997051507,None,,,,,,130,0,129,1014.7750709000393,,,,,,,,,,,,,,,,,,,,,,,1014.7586526000523,1014.7750709000393,1015.2603283000062,,,,,,,,,,,,,,,,,,,1015.2698112000362,1015.2937833000324,1015.2937833000324,1015.2937833000324,1018.2708011000068,shoe,j,2.0231187000172213,0.16867579997051507,1018.2708455000538,1018.2708572000265,None,,,,,,,,,,,,,,,00041,001,2026-01-17_15h38.16.978,MST_task,2024.2.0,59.61720982628425,2026-01-17 15h38.30.316137 +0530,
,Objects\070a.jpg,130,0,131,,,,,f,0.9999288000399247,0.15953139995690435,None,,,,,,131,0,130,1018.2875014000456,,,,,,,,,,,,,,,,,,,,,,,1018.2709315000102,1018.2875014000456,1018.7724613000173,,,,,,,,,,,,,,,,,,,1018.775709700014,1018.7893225000007,1018.7893225000007,1018.7893225000007,1021.7830587000353,shoe,f,0.9999288000399247,0.15953139995690435,1021.7832614000072,1021.783293400018,None,,,,,,,,,,,,,,,00041,001,2026-01-17_15h38.16.978,MST_task,2024.2.0,59.61720982628425,2026-01-17 15h38.30.316137 +0530,
,Objects\147a.jpg,131,0,132,,,,,None,,,j,0.5092850999790244,None,,,,132,0,131,1021.799664500053,,,,,,,,,,,,,,,,,,,,,,,1021.7833724000375,1021.799664500053,1022.2848799000494,,,,,,,,,,,,,,,,,,,1022.2878748000367,1022.3013794000144,1022.3013794000144,1022.3013794000144,1025.2953677000478,shoe,None,,,1025.295567400055,1025.8312830000068,j,1025.311980700004,1025.311980700004,0.5092850999790244,None,,,,,,,,,,,00041,001,2026-01-17_15h38.16.978,MST_task,2024.2.0,59.61720982628425,2026-01-17 15h38.30.316137 +0530,
,Objects\178a.jpg,132,0,133,,,,,f,1.7750984000158496,0.17007679998641834,None,,,,,,133,0,132,1025.8471814000513,,,,,,,,,,,,,,,,,,,,,,,1025.831370400032,1025.8471814000513,1026.332362200017,,,,,,,,,,,,,,,,,,,1026.3356621000567,1026.3490066000377,1026.3490066000377,1026.3490066000377,1029.342878000054,shoe,f,1.7750984000158496,0.17007679998641834,1029.343102200015,1029.3431162000052,None,,,,,,,,,,,,,,,00041,001,2026-01-17_15h38.16.978,MST_task,2024.2.0,59.61720982628425,2026-01-17 15h38.30.316137 +0530,
,Objects\057a.jpg,133,0,134,,,,,None,,,f,0.06041059998096898,None,,,,134,0,133,1029.359473700053,,,,,,,,,,,,,,,,,,,,,,,1029.3431854000082,1029.359473700053,1029.8446824999992,,,,,,,,,,,,,,,,,,,1029.8486325000413,1029.8611865000566,1029.8611865000566,1029.8611865000566,1032.8553143000463,indoor,None,,,1032.8565268000239,1032.9393790000468,f,1032.871765900054,1032.871765900054,0.06041059998096898,None,,,,,,,,,,,00041,001,2026-01-17_15h38.16.978,MST_task,2024.2.0,59.61720982628425,2026-01-17 15h38.30.316137 +0530,
,Objects\337a.jpg,134,0,135,,,,,f,1.4188624999951571,0.14306800003396347,None,,,,,,135,0,134,1032.9556346000172,,,,,,,,,,,,,,,,,,,,,,,1032.93946350005,1032.9556346000172,1033.440485500032,,,,,,,,,,,,,,,,,,,1033.4549304000102,1033.474099700048,1033.474099700048,1033.474099700048,1036.4511163000134,indoor,f,1.4188624999951571,0.14306800003396347,1036.4511581000406,1036.451170300017,None,,,,,,,,,,,,,,,00041,001,2026-01-17_15h38.16.978,MST_task,2024.2.0,59.61720982628425,2026-01-17 15h38.30.316137 +0530,
,Objects\196a.jpg,135,0,136,,,,,j,2.1467042000149377,0.17601529997773468,None,,,,,,136,0,135,1036.4676953000017,,,,,,,,,,,,,,,,,,,,,,,1036.4512398000224,1036.4676953000017,1036.9529096000479,,,,,,,,,,,,,,,,,,,1036.9620634000166,1036.9861344000092,1036.9861344000092,1036.9861344000092,1039.9632859000121,indoor,j,2.1467042000149377,0.17601529997773468,1039.963341100025,1039.9633563000243,None,,,,,,,,,,,,,,,00041,001,2026-01-17_15h38.16.978,MST_task,2024.2.0,59.61720982628425,2026-01-17 15h38.30.316137 +0530,
,Objects\199a.jpg,136,0,137,,,,,j,0.945945399987977,0.18479759996989742,None,,,,,,137,0,136,1039.980105100025,,,,,,,,,,,,,,,,,,,,,,,1039.9634288000525,1039.980105100025,1040.465101000038,,,,,,,,,,,,,,,,,,,1040.4714712999994,1040.4820574000478,1040.4820574000478,1040.4820574000478,1043.4755804000306,indoor,j,0.945945399987977,0.18479759996989742,1043.475635400042,1043.4756470000139,None,,,,,,,,,,,,,,,00041,001,2026-01-17_15h38.16.978,MST_task,2024.2.0,59.61720982628425,2026-01-17 15h38.30.316137 +0530,
,Objects\211a.jpg,137,0,138,,,,,f,1.570071599970106,0.1360380999976769,None,,,,,,138,0,137,1043.4925132000353,,,,,,,,,,,,,,,,,,,,,,,1043.4757188000367,1043.4925132000353,1043.9773711000453,,,,,,,,,,,,,,,,,,,1043.9841971000424,1043.994256200036,1043.994256200036,1043.994256200036,1046.9883316000341,indoor,f,1.570071599970106,0.1360380999976769,1046.988391700026,1046.9884048000094,None,,,,,,,,,,,,,,,00041,001,2026-01-17_15h38.16.978,MST_task,2024.2.0,59.61720982628425,2026-01-17 15h38.30.316137 +0530,
,Objects\383a.jpg,138,0,139,,,,,f,1.1787678000400774,0.22435609996318817,None,,,,,,139,0,138,1047.0052585000522,,,,,,,,,,,,,,,,,,,,,,,1046.9884874000563,1047.0052585000522,1047.4896772000357,,,,,,,,,,,,,,,,,,,1047.4970762000303,1047.5059717000113,1047.5059717000113,1047.5059717000113,1050.500182900054,indoor,f,1.1787678000400774,0.22435609996318817,1050.5002253000275,1050.5002365000546,None,,,,,,,,,,,,,,,00041,001,2026-01-17_15h38.16.978,MST_task,2024.2.0,59.61720982628425,2026-01-17 15h38.30.316137 +0530,
,Objects\269a.jpg,139,0,140,,,,,j,1.6245791999972425,0.20010329998331144,None,,,,,,140,0,139,1050.5170028000139,,,,,,,,,,,,,,,,,,,,,,,1050.5003094000276,1050.5170028000139,1051.00222210004,,,,,,,,,,,,,,,,,,,1051.0179484000546,1051.0354579000268,1051.0354579000268,1051.0354579000268,1054.0125909000053,indoor,j,1.6245791999972425,0.20010329998331144,1054.012632100028,1054.0126435000566,None,,,,,,,,,,,,,,,00041,001,2026-01-17_15h38.16.978,MST_task,2024.2.0,59.61720982628425,2026-01-17 15h38.30.316137 +0530,
,Objects\307a.jpg,140,0,141,,,,,f,2.593896100006532,0.06319259997690096,None,,,,,,141,0,140,1054.0291840000427,,,,,,,,,,,,,,,,,,,,,,,1054.0127112000482,1054.0291840000427,1054.5148390000104,,,,,,,,,,,,,,,,,,,1054.5237267000484,1054.547636000032,1054.547636000032,1054.547636000032,1057.5249131000019,shoe,f,2.593896100006532,0.06319259997690096,1057.5266823000275,1057.5267011000542,None,,,,,,,,,,,,,,,00041,001,2026-01-17_15h38.16.978,MST_task,2024.2.0,59.61720982628425,2026-01-17 15h38.30.316137 +0530,
,Objects\285a.jpg,141,0,142,,,,,f,1.6412400000263005,0.12779639998916537,None,,,,,,142,0,141,1057.5417344000307,,,,,,,,,,,,,,,,,,,,,,,1057.526772400015,1057.5417344000307,1058.0269873000216,,,,,,,,,,,,,,,,,,,1058.0304849000531,1058.0434642000473,1058.0434642000473,1058.0434642000473,1061.0371785000316,shoe,f,1.6412400000263005,0.12779639998916537,1061.0372342000483,1061.0372476000339,None,,,,,1058.0434642000473,,,,,,,,,,00041,001,2026-01-17_15h38.16.978,MST_task,2024.2.0,59.61720982628425,2026-01-17 15h38.30.316137 +0530,
,Objects\048a.jpg,142,0,143,,,,,j,2.049918800010346,0.15187579998746514,None,,,,,,143,0,142,1061.0537760000443,,,,,,,,,,,,,,,,,,,,,,,1061.03731590003,1061.0537760000443,1061.5389732000185,,,,,,,,,,,,,,,,,,,1061.5422256000456,1061.555487500038,1061.555487500038,1061.555487500038,1064.549485400028,shoe,j,2.049918800010346,0.15187579998746514,1064.549527700001,1064.549539700034,None,,,,,,,,,,,,,,,00041,001,2026-01-17_15h38.16.978,MST_task,2024.2.0,59.61720982628425,2026-01-17 15h38.30.316137 +0530,
,Objects\097a.jpg,143,0,144,,,,,j,2.352919499971904,0.21653220005100593,None,,,,,,144,0,143,1064.566090700042,,,,,,,,,,,,,,,,,,,,,,,1064.5496091000387,1064.566090700042,1065.0512865000055,,,,,,,,,,,,,,,,,,,1065.0542223000084,1065.0678071000148,1065.0678071000148,1065.0678071000148,1068.0618407000438,shoe,j,2.352919499971904,0.21653220005100593,1068.0618846000289,1068.0618964000023,None,,,,,,,,,,,,,,,00041,001,2026-01-17_15h38.16.978,MST_task,2024.2.0,59.61720982628425,2026-01-17 15h38.30.316137 +0530,
,Objects\288a.jpg,144,0,145,,,,,f,1.2484439000254497,0.14314030000241473,None,,,,,,145,0,144,1068.078374200035,,,,,,,,,,,,,,,,,,,,,,,1068.0619727000012,1068.078374200035,1068.5635527000413,,,,,,,,,,,,,,,,,,,1068.571832900052,1068.596824200009,1068.596824200009,1068.596824200009,1071.5746458000503,shoe,f,1.2484439000254497,0.14314030000241473,1071.574694400013,1071.5747075000545,None,,,,,,,,,,,,,,,00041,001,2026-01-17_15h38.16.978,MST_task,2024.2.0,59.61720982628425,2026-01-17 15h38.30.316137 +0530,
,Objects\232a.jpg,145,0,146,,,,,f,1.8644902000087313,0.13672259997110814,None,,,,,,146,0,145,1071.590944399999,,,,,,,,,,,,,,,,,,,,,,,1071.5747970000375,1071.590944399999,1072.0758974000346,,,,,,,,,,,,,,,,,,,1072.0833886000328,1072.0919642000226,1072.0919642000226,1072.0919642000226,1075.0865740000154,shoe,f,1.8644902000087313,0.13672259997110814,1075.0866212000255,1075.0866332000005,None,,,,,,,,,,,,,,,00041,001,2026-01-17_15h38.16.978,MST_task,2024.2.0,59.61720982628425,2026-01-17 15h38.30.316137 +0530,
,Objects\188a.jpg,146,0,147,,,,,f,0.9588531999615952,0.12762570002814755,None,,,,,,147,0,146,1075.1031495000352,,,,,,,,,,,,,,,,,,,,,,,1075.0867036000127,1075.1031495000352,1075.5883405000204,,,,,,,,,,,,,,,,,,,1075.5974834000226,1075.621583,1075.621583,1075.621583,1078.5988267000066,shoe,f,0.9588531999615952,0.12762570002814755,1078.5988827000256,1078.598898700031,None,,,,,,,,,,,,,,,00041,001,2026-01-17_15h38.16.978,MST_task,2024.2.0,59.61720982628425,2026-01-17 15h38.30.316137 +0530,
,Objects\201a.jpg,147,0,148,,,,,None,,,f,0.5163332999800332,None,,,,148,0,147,1078.6155610000133,,,,,,,,,,,,,,,,,,,,,,,1078.5990694000502,1078.6155610000133,1079.1005162000074,,,,,,,,,,,,,,,,,,,1079.1082192000467,1079.1168071000138,1079.1168071000138,1079.1168071000138,1082.1110323000466,indoor,None,,,1082.112407000037,1082.6466667000204,f,1082.1278635000344,1082.1278635000344,0.5163332999800332,None,,,,,,,,,,,00041,001,2026-01-17_15h38.16.978,MST_task,2024.2.0,59.61720982628425,2026-01-17 15h38.30.316137 +0530,
,Objects\246a.jpg,148,0,149,,,,,f,1.6726979000377469,0.1520788999623619,None,,,,,,149,0,148,1082.663070700015,,,,,,,,,,,,,,,,,,,,,,,1082.6467565000057,1082.663070700015,1083.1480392000522,,,,,,,,,,,,,,,,,,,1083.1554751000367,1083.1642687999993,1083.1642687999993,1083.1642687999993,1086.1585224000155,indoor,f,1.6726979000377469,0.1520788999623619,1086.1585770000238,1086.1585894000018,None,,,,,,,,,,,,,,,00041,001,2026-01-17_15h38.16.978,MST_task,2024.2.0,59.61720982628425,2026-01-17 15h38.30.316137 +0530,
,Objects\049a.jpg,149,0,150,,,,,f,2.6720121999969706,0.12816789996577427,None,,,,,,150,0,149,1086.1753798000282,,,,,,,,,,,,,,,,,,,,,,,1086.1586649000528,1086.1753798000282,1086.660344700038,,,,,,,,,,,,,,,,,,,1086.6629180000164,1086.6770857000374,1086.6770857000374,1086.6770857000374,1089.670845900022,indoor,f,2.6720121999969706,0.12816789996577427,1089.6708881000523,1089.6708993000211,None,,,,,,,,,,,,,,,00041,001,2026-01-17_15h38.16.978,MST_task,2024.2.0,59.61720982628425,2026-01-17 15h38.30.316137 +0530,
,Objects\368a.jpg,150,0,151,,,,,j,0.8948174999677576,0.16892940003890544,None,,,,,,151,0,150,1089.6876577000367,,,,,,,,,,,,,,,,,,,,,,,1089.6709676000173,1089.6876577000367,1090.1726198000251,,,,,,,,,,,,,,,,,,,1090.17899450002,1090.1895186000038,1090.1895186000038,1090.1895186000038,1093.183224700042,indoor,j,0.8948174999677576,0.16892940003890544,1093.1832675000187,1093.1832795000519,None,,,,,,,,,,,,,,,00041,001,2026-01-17_15h38.16.978,MST_task,2024.2.0,59.61720982628425,2026-01-17 15h38.30.316137 +0530,
,Objects\176a.jpg,151,0,152,,,,,j,0.7195673999958672,0.1518557000090368,None,,,,,,152,0,151,1093.2004406000488,,,,,,,,,,,,,,,,,,,,,,,1093.1833486000542,1093.2004406000488,1093.6849940000102,,,,,,,,,,,,,,,,,,,1093.6923437000369,1093.7011710000224,1093.7011710000224,1093.7011710000224,1096.6955482000485,indoor,j,0.7195673999958672,0.1518557000090368,1096.6955899000168,1096.69560190005,None,,,,,,,,,,,,,,,00041,001,2026-01-17_15h38.16.978,MST_task,2024.2.0,59.61720982628425,2026-01-17 15h38.30.316137 +0530,
,Objects\108a.jpg,152,0,153,,,,,f,1.0780102999997325,0.15159860003041103,None,,,,,,153,0,152,1096.7121438000468,,,,,,,,,,,,,,,,,,,,,,,1096.6956802000059,1096.7121438000468,1097.197853300022,,,,,,,,,,,,,,,,,,,1097.2072420000331,1097.230942400056,1097.230942400056,1097.230942400056,1100.207778400043,indoor,f,1.0780102999997325,0.15159860003041103,1100.207825700054,1100.2078388000373,None,,,,,,,,,,,,,,,00041,001,2026-01-17_15h38.16.978,MST_task,2024.2.0,59.61720982628425,2026-01-17 15h38.30.316137 +0530,
,Objects\079a.jpg,153,0,154,,,,,f,0.8461578999995254,0.10337880003498867,None,,,,,,154,0,153,1100.2246586000547,,,,,,,,,,,,,,,,,,,,,,,1100.208199900051,1100.2246586000547,1100.710152500018,,,,,,,,,,,,,,,,,,,1100.7218358000391,1100.7428488000296,1100.7428488000296,1100.7428488000296,1103.71997440001,indoor,f,0.8461578999995254,0.10337880003498867,1103.7200164000387,1103.720028300013,None,,,,,,,,,,,,,,,00041,001,2026-01-17_15h38.16.978,MST_task,2024.2.0,59.61720982628425,2026-01-17 15h38.30.316137 +0530,
,Objects\067a.jpg,154,0,155,,,,,j,1.2868485999642871,0.15148890001000836,None,,,,,,155,0,154,1103.7365720000234,,,,,,,,,,,,,,,,,,,,,,,1103.7200976000167,1103.7365720000234,1104.221939400013,,,,,,,,,,,,,,,,,,,1104.2266091000056,1104.238274000003,1104.238274000003,1104.238274000003,1107.2321728000534,shoe,j,1.2868485999642871,0.15148890001000836,1107.2338680000394,1107.2339007000555,None,,,,,,,,,,,,,,,00041,001,2026-01-17_15h38.16.978,MST_task,2024.2.0,59.61720982628425,2026-01-17 15h38.30.316137 +0530,
,Objects\132a.jpg,155,0,156,,,,,j,1.9094814999843948,0.19253499998012558,None,,,,,,156,0,155,1107.248992000008,,,,,,,,,,,,,,,,,,,,,,,1107.2339972000336,1107.248992000008,1107.733951000031,,,,,,,,,,,,,,,,,,,1107.7366901000496,1107.7506946000503,1107.7506946000503,1107.7506946000503,1110.7444669000106,shoe,j,1.9094814999843948,0.19253499998012558,1110.7445096000447,1110.744521500019,None,,,,,,,,,,,,,,,00041,001,2026-01-17_15h38.16.978,MST_task,2024.2.0,59.61720982628425,2026-01-17 15h38.30.316137 +0530,
,Objects\045a.jpg,156,0,157,,,,,j,2.3583303000195883,0.1679844999453053,None,,,,,,157,0,156,1110.7613965000492,,,,,,,,,,,,,,,,,,,,,,,1110.7446281000157,1110.7613965000492,1111.2462534000515,,,,,,,,,,,,,,,,,,,1111.2493874000502,1111.2631292000297,1111.2631292000297,1111.2631292000297,1114.2567430000054,shoe,j,2.3583303000195883,0.1679844999453053,1114.2567971000099,1114.2568096000468,None,,,,,,,,,,,,,,,00041,001,2026-01-17_15h38.16.978,MST_task,2024.2.0,59.61720982628425,2026-01-17 15h38.30.316137 +0530,
,Objects\227a.jpg,157,0,158,,,,,j,2.662140000029467,0.15902600000845268,None,,,,,,158,0,157,1114.273581400048,,,,,,,,,,,,,,,,,,,,,,,1114.2569159000413,1114.273581400048,1114.7585593000404,,,,,,,,,,,,,,,,,,,1114.7644861000008,1114.775478800002,1114.775478800002,1114.775478800002,1117.7690364000155,shoe,j,2.662140000029467,0.15902600000845268,1117.7690853000386,1117.769100000034,None,,,,,,,,,,,,,,,00041,001,2026-01-17_15h38.16.978,MST_task,2024.2.0,59.61720982628425,2026-01-17 15h38.30.316137 +0530,
,Objects\191a.jpg,158,0,159,,,,,f,1.732796700031031,0.15202049998333678,None,,,,,,159,0,158,1117.7858784000273,,,,,,,,,,,,,,,,,,,,,,,1117.7691814000136,1117.7858784000273,1118.270838299999,,,,,,,,,,,,,,,,,,,1118.2736876000417,1118.2875959000085,1118.2875959000085,1118.2875959000085,1121.2814877000055,shoe,f,1.732796700031031,0.15202049998333678,1121.2815423000138,1121.2815542000462,None,,,,,,,,,,,,,,,00041,001,2026-01-17_15h38.16.978,MST_task,2024.2.0,59.61720982628425,2026-01-17 15h38.30.316137 +0530,
,Objects\374a.jpg,159,0,160,,,,,f,0.9803596999845468,0.11197729996638373,None,,,,,,160,0,159,1121.29826520005,,,,,,,,,,,,,,,,,,,,,,,1121.2816588000278,1121.29826520005,1121.7831298000528,,,,,,,,,,,,,,,,,,,1121.7981341000414,1121.8167007000302,1121.8167007000302,1121.8167007000302,1124.7937661000178,shoe,f,0.9803596999845468,0.11197729996638373,1124.7938070000382,1124.7938186000101,None,,,,,,,,,,,,,,,00041,001,2026-01-17_15h38.16.978,MST_task,2024.2.0,59.61720982628425,2026-01-17 15h38.30.316137 +0530,
,Objects\153a.jpg,160,0,161,,,,,f,1.6606809999793768,0.1201232000021264,None,,,,,,161,0,160,1124.8105771000264,,,,,,,,,,,,,,,,,,,,,,,1124.7939226000453,1124.8105771000264,1125.2955683000037,,,,,,,,,,,,,,,,,,,1125.3037448000396,1125.3118703000364,1125.3118703000364,1125.3118703000364,1128.3061596000334,shoe,f,1.6606809999793768,0.1201232000021264,1128.3062270000228,1128.3062391999993,None,,,,,,,,,,,,,,,00041,001,2026-01-17_15h38.16.978,MST_task,2024.2.0,59.61720982628425,2026-01-17 15h38.30.316137 +0530,
,Objects\261a.jpg,161,0,162,,,,,f,1.5560210999683477,0.11152620002394542,None,,,,,,162,0,161,1128.3226550000254,,,,,,,,,,,,,,,,,,,,,,,1128.3063103000168,1128.3226550000254,1128.8079026000341,,,,,,,,,,,,,,,,,,,1128.8168692000327,1128.8413611000287,1128.8413611000287,1128.8413611000287,1131.8182442000252,indoor,f,1.5560210999683477,0.11152620002394542,1131.81949980004,1131.8195206000237,None,,,,,,,,,,,,,,,00041,001,2026-01-17_15h38.16.978,MST_task,2024.2.0,59.61720982628425,2026-01-17 15h38.30.316137 +0530,
,Objects\180a.jpg,162,0,163,,,,,f,2.475865399988834,0.1187882000231184,None,,,,,,163,0,162,1131.835082400008,,,,,,,,,,,,,,,,,,,,,,,1131.8195933000534,1131.835082400008,1132.320046000008,,,,,,,,,,,,,,,,,,,1132.3277957000537,1132.3535145000205,1132.3535145000205,1132.3535145000205,1135.3306398000568,indoor,f,2.475865399988834,0.1187882000231184,1135.330682400032,1135.3306942000054,None,,,,,,,,,,,,,,,00041,001,2026-01-17_15h38.16.978,MST_task,2024.2.0,59.61720982628425,2026-01-17 15h38.30.316137 +0530,
,Objects\078a.jpg,163,0,164,,,,,f,0.9230510999914259,0.15975210000760853,None,,,,,,164,0,163,1135.3472654000507,,,,,,,,,,,,,,,,,,,,,,,1135.330779300013,1135.3472654000507,1135.8324676000047,,,,,,,,,,,,,,,,,,,1135.8416654000175,1135.865698700014,1135.865698700014,1135.865698700014,1138.8429707000032,indoor,f,0.9230510999914259,0.15975210000760853,1138.8430120000266,1138.8430232000537,None,,,,,,,,,,,,,,,00041,001,2026-01-17_15h38.16.978,MST_task,2024.2.0,59.61720982628425,2026-01-17 15h38.30.316137 +0530,
,Objects\068a.jpg,164,0,165,,,,,j,2.7228522999794222,0.17720590002136305,None,,,,,,165,0,164,1138.859671800048,,,,,,,,,,,,,,,,,,,,,,,1138.8430928000016,1138.859671800048,1139.344632500026,,,,,,,,,,,,,,,,,,,1139.3472194000497,1139.3613857000018,1139.3613857000018,1139.3613857000018,1142.3552754000411,indoor,j,2.7228522999794222,0.17720590002136305,1142.3553187000216,1142.3553303000517,None,,,,,,,,,,,,,,,00041,001,2026-01-17_15h38.16.978,MST_task,2024.2.0,59.61720982628425,2026-01-17 15h38.30.316137 +0530,
,Objects\348a.jpg,165,0,166,,,,,j,1.4194892999948934,0.12696779996622354,None,,,,,,166,0,165,1142.3718692000257,,,,,,,,,,,,,,,,,,,,,,,1142.355397700041,1142.3718692000257,1142.8570605000132,,,,,,,,,,,,,,,,,,,1142.8641305000056,1142.8735632000025,1142.8735632000025,1142.8735632000025,1145.8677312000073,indoor,j,1.4194892999948934,0.12696779996622354,1145.8677803000319,1145.867793100013,None,,,,,,,,,,,,,,,00041,001,2026-01-17_15h38.16.978,MST_task,2024.2.0,59.61720982628425,2026-01-17 15h38.30.316137 +0530,
,Objects\044a.jpg,166,0,167,,,,,j,1.691071400011424,0.17498100001830608,None,,,,,,167,0,166,1145.8842803000007,,,,,,,,,,,,,,,,,,,,,,,1145.8678712000255,1145.8842803000007,1146.3693753000116,,,,,,,,,,,,,,,,,,,1146.3834256000118,1146.4026094000437,1146.4026094000437,1146.4026094000437,1149.3798831000458,indoor,j,1.691071400011424,0.17498100001830608,1149.379941400024,1149.3799536000006,None,,,,,,,,,,,,,,,00041,001,2026-01-17_15h38.16.978,MST_task,2024.2.0,59.61720982628425,2026-01-17 15h38.30.316137 +0530,
,Objects\380a.jpg,167,0,168,,,,,j,1.5140365000115708,0.19270219997270033,None,,,,,,168,0,167,1149.3965717000538,,,,,,,,,,,,,,,,,,,,,,,1149.3802934000269,1149.3965717000538,1149.8815340000438,,,,,,,,,,,,,,,,,,,1149.884297200013,1149.898280000023,1149.898280000023,1149.898280000023,1152.892022300046,indoor,j,1.5140365000115708,0.19270219997270033,1152.8920777000021,1152.8920889000292,None,,,,,,,,,,,,,,,00041,001,2026-01-17_15h38.16.978,MST_task,2024.2.0,59.61720982628425,2026-01-17 15h38.30.316137 +0530,
,Objects\360a.jpg,168,0,169,,,,,f,1.0727410999825224,0.1443859999999404,None,,,,,,169,0,168,1152.9088586000144,,,,,,,,,,,,,,,,,,,,,,,1152.892158600036,1152.9088586000144,1153.3938106000423,,,,,,,,,,,,,,,,,,,1153.402479100041,1153.4273111000075,1153.4273111000075,1153.4273111000075,1156.404449500027,shoe,f,1.0727410999825224,0.1443859999999404,1156.4062043000013,1156.4062229000265,None,,,,,,,,,,,,,,,00041,001,2026-01-17_15h38.16.978,MST_task,2024.2.0,59.61720982628425,2026-01-17 15h38.30.316137 +0530,
,Objects\063a.jpg,169,0,170,,,,,None,,,j,0.14258799998788163,None,,,,170,0,169,1156.4210435000132,,,,,,,,,,,,,,,,,,,,,,,1156.4062941000448,1156.4210435000132,1156.9063936000457,,,,,,,,,,,,,,,,,,,1156.922726400022,1156.9395437000203,1156.9395437000203,1156.9395437000203,1159.916747900017,shoe,None,,,1159.9168005000101,1160.0844217000413,j,1159.9334575000103,1159.9334575000103,0.14258799998788163,None,1156.9395437000203,,,,,,,,,,00041,001,2026-01-17_15h38.16.978,MST_task,2024.2.0,59.61720982628425,2026-01-17 15h38.30.316137 +0530,
,Objects\289a.jpg,170,0,171,,,,,f,1.9130894999834709,0.1599296000204049,None,,,,,,171,0,170,1160.1007086000172,,,,,,,,,,,,,,,,,,,,,,,1160.0845830000471,1160.1007086000172,1160.5856825000374,,,,,,,,,,,,,,,,,,,1160.594203900022,1160.619574500015,1160.619574500015,1160.619574500015,1163.5963022000506,shoe,f,1.9130894999834709,0.1599296000204049,1163.5963452000287,1163.5963572000037,None,,,,,,,,,,,,,,,00041,001,2026-01-17_15h38.16.978,MST_task,2024.2.0,59.61720982628425,2026-01-17 15h38.30.316137 +0530,
,Objects\124a.jpg,171,0,172,,,,,f,0.8656077000196092,0.13514979998581111,None,,,,,,172,0,171,1163.6129007000127,,,,,,,,,,,,,,,,,,,,,,,1163.5964275000151,1163.6129007000127,1164.0980835000519,,,,,,,,,,,,,,,,,,,1164.11395790003,1164.1314665000536,1164.1314665000536,1164.1314665000536,1167.1086355000152,shoe,f,0.8656077000196092,0.13514979998581111,1167.1086927000433,1167.1087055000244,None,,,,,,,,,,,,,,,00041,001,2026-01-17_15h38.16.978,MST_task,2024.2.0,59.61720982628425,2026-01-17 15h38.30.316137 +0530,
,Objects\315a.jpg,172,0,173,,,,,f,0.9543604999780655,0.1679042000323534,None,,,,,,173,0,172,1167.1253033000394,,,,,,,,,,,,,,,,,,,,,,,1167.109129700053,1167.1253033000394,1167.610258700035,,,,,,,,,,,,,,,,,,,1167.617207900039,1167.6269297000254,1167.6269297000254,1167.6269297000254,1170.6207614000305,shoe,f,0.9543604999780655,0.1679042000323534,1170.6208031999995,1170.620815500035,None,,,,,,,,,,,,,,,00041,001,2026-01-17_15h38.16.978,MST_task,2024.2.0,59.61720982628425,2026-01-17 15h38.30.316137 +0530,
,Objects\146a.jpg,173,0,174,,,,,j,1.737520900031086,0.18469379999442026,None,,,,,,174,0,173,1170.6375905000023,,,,,,,,,,,,,,,,,,,,,,,1170.6212230000529,1170.6375905000023,1171.122616800014,,,,,,,,,,,,,,,,,,,1171.1303653000505,1171.1394916000427,1171.1394916000427,1171.1394916000427,1174.133074500016,shoe,j,1.737520900031086,0.18469379999442026,1174.1331158000394,1174.133127100009,None,,,,,,,,,,,,,,,00041,001,2026-01-17_15h38.16.978,MST_task,2024.2.0,59.61720982628425,2026-01-17 15h38.30.316137 +0530,
,Objects\150a.jpg,174,0,175,,,,,j,1.1358634000062011,0.15172429999802262,None,,,,,,175,0,174,1174.1499210000038,,,,,,,,,,,,,,,,,,,,,,,1174.1331956000067,1174.1499210000038,1174.6348432000377,,,,,,,,,,,,,,,,,,,1174.6446014000103,1174.668527700007,1174.668527700007,1174.668527700007,1177.645663400006,shoe,j,1.1358634000062011,0.15172429999802262,1177.645704500028,1177.6457160999998,None,,,,,,,,,,,,,,,00041,001,2026-01-17_15h38.16.978,MST_task,2024.2.0,59.61720982628425,2026-01-17 15h38.30.316137 +0530,
,Objects\158a.jpg,175,0,176,,,,,f,2.0411922999774106,0.1363186000380665,None,,,,,,176,0,175,1177.6620806000428,,,,,,,,,,,,,,,,,,,,,,,1177.6457852000021,1177.6620806000428,1178.1472906999988,,,,,,,,,,,,,,,,,,,1178.1513034000527,1178.1637971000164,1178.1637971000164,1178.1637971000164,1181.1579661000287,indoor,f,2.0411922999774106,0.1363186000380665,1181.159322200052,1181.159340000013,None,,,,,,,,,,,,,,,00041,001,2026-01-17_15h38.16.978,MST_task,2024.2.0,59.61720982628425,2026-01-17 15h38.30.316137 +0530,
,Objects\342a.jpg,176,0,177,,,,,f,2.3601419999613427,0.16152760002296418,None,,,,,,177,0,176,1181.174377700023,,,,,,,,,,,,,,,,,,,,,,,1181.1594106000266,1181.174377700023,1181.6595786000253,,,,,,,,,,,,,,,,,,,1181.6622773000272,1181.6760963000124,1181.6760963000124,1181.6760963000124,1184.670079100004,indoor,f,2.3601419999613427,0.16152760002296418,1184.6701208000304,1184.6701323000016,None,,,,,,,,,,,,,,,00041,001,2026-01-17_15h38.16.978,MST_task,2024.2.0,59.61720982628425,2026-01-17 15h38.30.316137 +0530,
,Objects\330a.jpg,177,0,178,,,,,j,1.0879473999957554,0.15957940003136173,None,,,,,,178,0,177,1184.686677700025,,,,,,,,,,,,,,,,,,,,,,,1184.6702017000061,1184.686677700025,1185.1719739000546,,,,,,,,,,,,,,,,,,,1185.180290600052,1185.205114900018,1185.205114900018,1185.205114900018,1188.1822545000468,indoor,j,1.0879473999957554,0.15957940003136173,1188.1822960000136,1188.1823077000445,None,,,,,,,,,,,,,,,00041,001,2026-01-17_15h38.16.978,MST_task,2024.2.0,59.61720982628425,2026-01-17 15h38.30.316137 +0530,
,Objects\101a.jpg,178,0,179,,,,,j,0.8152792000328191,0.16824369999812916,None,,,,,,179,0,178,1188.1991043000016,,,,,,,,,,,,,,,,,,,,,,,1188.1823756000376,1188.1991043000016,1188.6840776000172,,,,,,,,,,,,,,,,,,,1188.691600900027,1188.70084830001,1188.70084830001,1188.70084830001,1191.6947100000107,indoor,j,0.8152792000328191,0.16824369999812916,1191.6947569000185,1191.6947683000471,None,,,,,,,,,,,,,,,00041,001,2026-01-17_15h38.16.978,MST_task,2024.2.0,59.61720982628425,2026-01-17 15h38.30.316137 +0530,
,Objects\173a.jpg,179,0,180,,,,,f,1.4230760000064038,0.12829570000758395,None,,,,,,180,0,179,1191.7115466000396,,,,,,,,,,,,,,,,,,,,,,,1191.694837600051,1191.7115466000396,1192.1965533000184,,,,,,,,,,,,,,,,,,,1192.1994859000552,1192.2132794000208,1192.2132794000208,1192.2132794000208,1195.2070453000488,indoor,f,1.4230760000064038,0.12829570000758395,1195.2070875000209,1195.2070993000525,None,,,,,,,,,,,,,,,00041,001,2026-01-17_15h38.16.978,MST_task,2024.2.0,59.61720982628425,2026-01-17 15h38.30.316137 +0530,
,Objects\015a.jpg,180,0,181,,,,,f,0.7911708000465296,0.12011389998951927,None,,,,,,181,0,180,1195.2235817000037,,,,,,,,,,,,,,,,,,,,,,,1195.2071672000457,1195.2235817000037,1195.7088160000276,,,,,,,,,,,,,,,,,,,1195.7120761000551,1195.7254635000136,1195.7254635000136,1195.7254635000136,1198.7192676000413,indoor,f,0.7911708000465296,0.12011389998951927,1198.7193105000188,1198.7193226000527,None,,,,,,,,,,,,,,,00041,001,2026-01-17_15h38.16.978,MST_task,2024.2.0,59.61720982628425,2026-01-17 15h38.30.316137 +0530,
,Objects\241a.jpg,181,0,182,,,,,f,2.8474750999594107,None,None,,,,,,182,0,181,1198.7358791000443,,,,,,,,,,,,,,,,,,,,,,,1198.719393700012,1198.7358791000443,1199.2210795000428,,,,,,,,,,,,,,,,,,,1199.2236079000286,1199.2375768000493,1199.2375768000493,1199.2375768000493,1202.2315665000351,indoor,f,2.8474750999594107,None,1202.2317590000457,1202.2317754000542,None,,,,,,,,,,,,,,,00041,001,2026-01-17_15h38.16.978,MST_task,2024.2.0,59.61720982628425,2026-01-17 15h38.30.316137 +0530,
,Objects\243a.jpg,182,0,183,,,,,f,1.3659844999783672,0.24811910005519167,None,,,,,,183,0,182,1202.2481640000478,,,,,,,,,,,,,,,,,,,,,,,1202.2318494000356,1202.2481640000478,1202.7333734000567,,,,,,,,,,,,,,,,,,,1202.7421428000089,1202.7666002000333,1202.7666002000333,1202.7666002000333,1205.7439091000124,shoe,f,1.3659844999783672,0.24811910005519167,1205.7453501000418,1205.7453692000126,None,,,,,,,,,,,,,,,00041,001,2026-01-17_15h38.16.978,MST_task,2024.2.0,59.61720982628425,2026-01-17 15h38.30.316137 +0530,
,Objects\353a.jpg,183,0,184,,,,,f,0.7101509000058286,0.192668900010176,None,,,,,,184,0,183,1205.7607511000242,,,,,,,,,,,,,,,,,,,,,,,1205.745437400008,1205.7607511000242,1206.245716000034,,,,,,,,,,,,,,,,,,,1206.2521240000497,1206.2623521000496,1206.2623521000496,1206.2623521000496,1209.2560333000147,shoe,f,0.7101509000058286,0.192668900010176,1209.2560926000006,1209.2561051000375,None,,,,,,,,,,,,,,,00041,001,2026-01-17_15h38.16.978,MST_task,2024.2.0,59.61720982628425,2026-01-17 15h38.30.316137 +0530,
