thisN,thisTrialN,thisRepN,key_resp_3.keys,key_resp_3.rt,key_resp_3.duration,trials.thisRepN,trials.thisTrialN,trials.thisN,thisRow.t,notes,intro_page.started,text.started,key_resp.started,intro_page.stopped,key_resp.keys,key_resp.rt,key_resp.duration,instructions.started,text_2.started,key_resp_2.started,instructions.stopped,key_resp_2.keys,key_resp_2.rt,key_resp_2.duration,demo1.started,image_1.started,image_2.started,text_7.started,key_resp_6.started,text_9.started,demo1.stopped,key_resp_6.keys,key_resp_6.rt,key_resp_6.duration,demo3.started,image_5.started,image_6.started,text_11.started,text_12.started,key_resp_8.started,demo3.stopped,key_resp_8.keys,key_resp_8.rt,key_resp_8.duration,demo_conclusion.started,text_13.started,key_resp_9.started,demo_conclusion.stopped,key_resp_9.keys,key_resp_9.rt,key_resp_9.duration,start_test.started,text_6.started,key_resp_5.started,start_test.stopped,key_resp_5.keys,key_resp_5.rt,key_resp_5.duration,ISI.started,text_4.started,ISI.stopped,routine_1.started,image.started,text_3.started,key_resp_3.started,routine_1.stopped,image_path,position_of_stimuli,trials.key_resp_3.keys,trials.key_resp_3.rt,trials.key_resp_3.duration,End_page.started,text_5.started,key_resp_4.started,End_page.stopped,key_resp_4.keys,key_resp_4.rt,key_resp_4.duration,participant,session,date,expName,psychopyVersion,frameRate,expStart,
,,,,,,,,,,,0.017641799990087748,0.03404020000016317,0.03404020000016317,1.8446478999685496,space,1.8025279000285082,None,,,,,,,,,,,,,,,,,,,,,,,,,,,,,,,,,,,,,,,,,,,,,,,,,,,,,,,,,,,,,,00047,001,2026-01-18_12h29.07.522,MST_test,2024.2.0,59.78058136062168,2026-01-18 12h29.20.392237 +0530,
,,,,,,,,,,,,,,,,,,1.8446817999938503,1.875291100004688,1.875291100004688,9.703717899974436,space,7.824160300020594,None,,,,,,,,,,,,,,,,,,,,,,,,,,,,,,,,,,,,,,,,,,,,,,,,,,,,,,,00047,001,2026-01-18_12h29.07.522,MST_test,2024.2.0,59.78058136062168,2026-01-18 12h29.20.392237 +0530,
,,,,,,,,,,,,,,,,,,,,,,,,,9.703745700011496,9.719731299963314,9.719731299963314,9.719731299963314,9.719731299963314,9.719731299963314,14.320001999964006,space,4.596371799998451,None,,,,,,,,,,,,,,,,,,,,,,,,,,,,,,,,,,,,,,,,,,,,,00047,001,2026-01-18_12h29.07.522,MST_test,2024.2.0,59.78058136062168,2026-01-18 12h29.20.392237 +0530,
,,,,,,,,,,,,,,,,,,,,,,,,,,,,,,,,,,,14.320035999990068,14.33591179997893,14.33591179997893,14.33591179997893,14.33591179997893,14.33591179997893,16.276651999971364,space,1.9316449000034481,None,,,,,,,,,,,,,,,,,,,,,,,,,,,,,,,,,,,00047,001,2026-01-18_12h29.07.522,MST_test,2024.2.0,59.78058136062168,2026-01-18 12h29.20.392237 +0530,
,,,,,,,,,,,,,,,,,,,,,,,,,,,,,,,,,,,,,,,,,,,,,16.27668289997382,16.292751299974043,16.292751299974043,29.088213099981658,space,12.791486200003419,None,,,,,,,,,,,,,,,,,,,,,,,,,,,,00047,001,2026-01-18_12h29.07.522,MST_test,2024.2.0,59.78058136062168,2026-01-18 12h29.20.392237 +0530,
,,,,,,,,,,,,,,,,,,,,,,,,,,,,,,,,,,,,,,,,,,,,,,,,,,,,29.088249199965503,29.121034500014503,29.121034500014503,47.03463989996817,space,17.898491799947806,None,,,,,,,,,,,,,,,,,,,,,00047,001,2026-01-18_12h29.07.522,MST_test,2024.2.0,59.78058136062168,2026-01-18 12h29.20.392237 +0530,
0,0,1,s,4.0185176999657415,None,1,0,0,47.05068509996636,,,,,,,,,,,,,,,,,,,,,,,,,,,,,,,,,,,,,,,,,,,,,,,,,,47.03764980001142,47.05068509996636,47.535566699982155,47.55337480001617,47.56907329999376,47.56907329999376,47.56907329999376,51.600457199965604,Objects\356b.jpg,post,s,4.0185176999657415,None,,,,,,,,00047,001,2026-01-18_12h29.07.522,MST_test,2024.2.0,59.78058136062168,2026-01-18 12h29.20.392237 +0530,
1,0,2,o,4.147969499987084,None,2,0,1,51.61655839998275,,,,,,,,,,,,,,,,,,,,,,,,,,,,,,,,,,,,,,,,,,,,,,,,,,51.600558599981014,51.61655839998275,52.10153340001125,52.10933169996133,52.13586350000696,52.13586350000696,52.13586350000696,56.30027389997849,Objects\119a.jpg,post,o,4.147969499987084,None,,,,,,,,00047,001,2026-01-18_12h29.07.522,MST_test,2024.2.0,59.78058136062168,2026-01-18 12h29.20.392237 +0530,
2,0,3,s,2.0091184999910183,None,3,0,2,56.31637469999259,,,,,,,,,,,,,,,,,,,,,,,,,,,,,,,,,,,,,,,,,,,,,,,,,,56.300367299991194,56.31637469999259,56.801360699988436,56.81720099999802,56.834852600004524,56.834852600004524,56.834852600004524,58.859226999979,Objects\230b.jpg,pre,s,2.0091184999910183,None,,,,,,,,00047,001,2026-01-18_12h29.07.522,MST_test,2024.2.0,59.78058136062168,2026-01-18 12h29.20.392237 +0530,
3,0,4,s,4.083573900046758,None,4,0,3,58.87523120001424,,,,,,,,,,,,,,,,,,,,,,,,,,,,,,,,,,,,,,,,,,,,,,,,,,58.85932499996852,58.87523120001424,59.36038969998481,59.37635500001488,59.39369150000857,59.39369150000857,59.39369150000857,63.49205369997071,Objects\281b.jpg,post,s,4.083573900046758,None,,,,,,,,00047,001,2026-01-18_12h29.07.522,MST_test,2024.2.0,59.78058136062168,2026-01-18 12h29.20.392237 +0530,
4,0,5,o,1.8730990000185557,None,5,0,4,63.50811309996061,,,,,,,,,,,,,,,,,,,,,,,,,,,,,,,,,,,,,,,,,,,,,,,,,,63.49215589999221,63.50811309996061,63.99332010000944,64.00273949996335,64.02666079998016,64.02666079998016,64.02666079998016,65.9006588999764,Objects\219b.jpg,post,o,1.8730990000185557,None,,,,,,,,00047,001,2026-01-18_12h29.07.522,MST_test,2024.2.0,59.78058136062168,2026-01-18 12h29.20.392237 +0530,
5,0,6,s,2.104844600020442,None,6,0,5,65.91665470000589,,,,,,,,,,,,,,,,,,,,,,,,,,,,,,,,,,,,,,,,,,,,,,,,,,65.90099539997755,65.91665470000589,66.40152309997939,66.41062159999274,66.43527429999085,66.43527429999085,66.43527429999085,68.5430804999778,Objects\220b.jpg,mid,s,2.104844600020442,None,,,,,,,,00047,001,2026-01-18_12h29.07.522,MST_test,2024.2.0,59.78058136062168,2026-01-18 12h29.20.392237 +0530,
6,0,7,n,2.1256856999825686,None,7,0,6,68.5591186999809,,,,,,,,,,,,,,,,,,,,,,,,,,,,,,,,,,,,,,,,,,,,,,,,,,68.54317499999888,68.5591186999809,69.04433499998413,69.0538843999966,69.07772489998024,69.07772489998024,69.07772489998024,71.21914319996722,Foils\017a.jpg,none,n,2.1256856999825686,None,,,,,,,,00047,001,2026-01-18_12h29.07.522,MST_test,2024.2.0,59.78058136062168,2026-01-18 12h29.20.392237 +0530,
7,0,8,o,2.497799100005068,None,8,0,7,71.23517220001668,,,,,,,,,,,,,,,,,,,,,,,,,,,,,,,,,,,,,,,,,,,,,,,,,,71.219239500002,71.23517220001668,71.7204901999794,71.72659109998494,71.73765789996833,71.73765789996833,71.73765789996833,74.24641279998468,Objects\353a.jpg,mid,o,2.497799100005068,None,,,,,,,,00047,001,2026-01-18_12h29.07.522,MST_test,2024.2.0,59.78058136062168,2026-01-18 12h29.20.392237 +0530,
8,0,9,o,1.0950440000160597,None,9,0,8,74.2625609000097,,,,,,,,,,,,,,,,,,,,,,,,,,,,,,,,,,,,,,,,,,,,,,,,,,74.2465107999742,74.2625609000097,74.7480711999815,74.7635595999891,74.78105079999659,74.78105079999659,74.78105079999659,75.88558639999246,Objects\317b.jpg,pre,o,1.0950440000160597,None,,,,,,,,00047,001,2026-01-18_12h29.07.522,MST_test,2024.2.0,59.78058136062168,2026-01-18 12h29.20.392237 +0530,
9,0,10,o,1.5358044000458904,None,10,0,9,75.9015197000117,,,,,,,,,,,,,,,,,,,,,,,,,,,,,,,,,,,,,,,,,,,,,,,,,,75.88568349997513,75.9015197000117,76.38671379996231,76.39796879998175,76.42000199999893,76.42000199999893,76.42000199999893,77.95942389999982,Objects\116b.jpg,pre,o,1.5358044000458904,None,,,,,,,,00047,001,2026-01-18_12h29.07.522,MST_test,2024.2.0,59.78058136062168,2026-01-18 12h29.20.392237 +0530,
10,0,11,o,1.6159022999927402,None,11,0,10,77.97555179998744,,,,,,,,,,,,,,,,,,,,,,,,,,,,,,,,,,,,,,,,,,,,,,,,,,77.95952340000076,77.97555179998744,78.46052600000985,78.46516720001819,78.4774132000166,78.4774132000166,78.4774132000166,80.10027160000755,Objects\326a.jpg,mid,o,1.6159022999927402,None,,,,,,,,00047,001,2026-01-18_12h29.07.522,MST_test,2024.2.0,59.78058136062168,2026-01-18 12h29.20.392237 +0530,
11,0,12,n,1.672580000013113,None,12,0,11,80.1163790000137,,,,,,,,,,,,,,,,,,,,,,,,,,,,,,,,,,,,,,,,,,,,,,,,,,80.10037180001382,80.1163790000137,80.60139610001352,80.6130584999919,80.63486459996784,80.63486459996784,80.63486459996784,82.30846339999698,Foils\033a.jpg,none,n,1.672580000013113,None,,,,,,,,00047,001,2026-01-18_12h29.07.522,MST_test,2024.2.0,59.78058136062168,2026-01-18 12h29.20.392237 +0530,
12,0,13,o,1.434111699985806,None,13,0,12,82.32401739998022,,,,,,,,,,,,,,,,,,,,,,,,,,,,,,,,,,,,,,,,,,,,,,,,,,82.30856309999945,82.32401739998022,82.80951509997249,82.81235879997257,82.82588489999762,82.82588489999762,82.82588489999762,84.26481169997714,Objects\127a.jpg,pre,o,1.434111699985806,None,,,,,,,,00047,001,2026-01-18_12h29.07.522,MST_test,2024.2.0,59.78058136062168,2026-01-18 12h29.20.392237 +0530,
13,0,14,o,2.5008891000179574,None,14,0,13,84.2808556999662,,,,,,,,,,,,,,,,,,,,,,,,,,,,,,,,,,,,,,,,,,,,,,,,,,84.26490999996895,84.2808556999662,84.76612609997392,84.77572259999579,84.7993483999744,84.7993483999744,84.7993483999744,87.30885869998019,Objects\083b.jpg,post,o,2.5008891000179574,None,,,,,,,,00047,001,2026-01-18_12h29.07.522,MST_test,2024.2.0,59.78058136062168,2026-01-18 12h29.20.392237 +0530,
14,0,15,s,1.59305729996413,None,15,0,14,87.32495639997069,,,,,,,,,,,,,,,,,,,,,,,,,,,,,,,,,,,,,,,,,,,,,,,,,,87.30895299999975,87.32495639997069,87.80996729998151,87.82650289998855,87.84344869997585,87.84344869997585,87.84344869997585,89.44974949996686,Objects\250b.jpg,mid,s,1.59305729996413,None,,,,,,,,00047,001,2026-01-18_12h29.07.522,MST_test,2024.2.0,59.78058136062168,2026-01-18 12h29.20.392237 +0530,
15,0,16,o,1.9159859000355937,None,16,0,15,89.46567479998339,,,,,,,,,,,,,,,,,,,,,,,,,,,,,,,,,,,,,,,,,,,,,,,,,,89.44984740001382,89.46567479998339,89.95086729998002,89.96557230001781,89.98414939997019,89.98414939997019,89.98414939997019,91.90832049999153,Objects\135b.jpg,post,o,1.9159859000355937,None,,,,,,,,00047,001,2026-01-18_12h29.07.522,MST_test,2024.2.0,59.78058136062168,2026-01-18 12h29.20.392237 +0530,
16,0,17,o,1.6421983999898657,None,17,0,16,91.92428310000105,,,,,,,,,,,,,,,,,,,,,,,,,,,,,,,,,,,,,,,,,,,,,,,,,,91.908414000005,91.92428310000105,92.40952549997019,92.41232389997458,92.42602899996564,92.42602899996564,92.42602899996564,94.08263369998895,Objects\073a.jpg,post,o,1.6421983999898657,None,,,,,,,,00047,001,2026-01-18_12h29.07.522,MST_test,2024.2.0,59.78058136062168,2026-01-18 12h29.20.392237 +0530,
17,0,18,n,1.3873403000179678,None,18,0,17,94.09868369996548,,,,,,,,,,,,,,,,,,,,,,,,,,,,,,,,,,,,,,,,,,,,,,,,,,94.08273329999065,94.09868369996548,94.58365089999279,94.59312679996947,94.61721389996819,94.61721389996819,94.61721389996819,96.00604309997289,Foils\121a.jpg,none,n,1.3873403000179678,None,,,,,,,,00047,001,2026-01-18_12h29.07.522,MST_test,2024.2.0,59.78058136062168,2026-01-18 12h29.20.392237 +0530,
18,0,19,o,2.5996812999946997,None,19,0,18,96.02209039998706,,,,,,,,,,,,,,,,,,,,,,,,,,,,,,,,,,,,,,,,,,,,,,,,,,96.00613659998635,96.02209039998706,96.50735279999208,96.51656690001255,96.54054949997226,96.54054949997226,96.54054949997226,99.15045239997562,Objects\229a.jpg,post,o,2.5996812999946997,None,,,,,,,,00047,001,2026-01-18_12h29.07.522,MST_test,2024.2.0,59.78058136062168,2026-01-18 12h29.20.392237 +0530,
19,0,20,s,1.9510874000261538,None,20,0,19,99.1663172999979,,,,,,,,,,,,,,,,,,,,,,,,,,,,,,,,,,,,,,,,,,,,,,,,,,99.15054579998832,99.1663172999979,99.65222639997955,99.66829739999957,99.68477900000289,99.68477900000289,99.68477900000289,101.64237539999885,Objects\286b.jpg,pre,s,1.9510874000261538,None,,,,,,,,00047,001,2026-01-18_12h29.07.522,MST_test,2024.2.0,59.78058136062168,2026-01-18 12h29.20.392237 +0530,
20,0,21,o,2.3238920000148937,None,21,0,20,101.65837249998003,,,,,,,,,,,,,,,,,,,,,,,,,,,,,,,,,,,,,,,,,,,,,,,,,,101.64246850000927,101.65837249998003,102.14359379996313,102.15194359997986,102.1768572999863,102.1768572999863,102.1768572999863,104.5025424999767,Objects\186a.jpg,mid,o,2.3238920000148937,None,,,,,,,,00047,001,2026-01-18_12h29.07.522,MST_test,2024.2.0,59.78058136062168,2026-01-18 12h29.20.392237 +0530,
21,0,22,o,1.3753821999998763,None,22,0,21,104.5186556999688,,,,,,,,,,,,,,,,,,,,,,,,,,,,,,,,,,,,,,,,,,,,,,,,,,104.50263439997798,104.5186556999688,105.00359440001193,105.01110369997332,105.03686140000354,105.03686140000354,105.03686140000354,106.42589579999913,Objects\325a.jpg,mid,o,1.3753821999998763,None,,,,,,,,00047,001,2026-01-18_12h29.07.522,MST_test,2024.2.0,59.78058136062168,2026-01-18 12h29.20.392237 +0530,
22,0,23,o,1.131057000020519,None,23,0,22,106.44178599998122,,,,,,,,,,,,,,,,,,,,,,,,,,,,,,,,,,,,,,,,,,,,,,,,,,106.42598840000574,106.44178599998122,106.92712439998286,106.9354677000083,106.96038659999613,106.96038659999613,106.96038659999613,108.09854500001529,Objects\290a.jpg,pre,o,1.131057000020519,None,,,,,,,,00047,001,2026-01-18_12h29.07.522,MST_test,2024.2.0,59.78058136062168,2026-01-18 12h29.20.392237 +0530,
23,0,24,o,1.059100500016939,None,24,0,23,108.1144255999825,,,,,,,,,,,,,,,,,,,,,,,,,,,,,,,,,,,,,,,,,,,,,,,,,,108.09864290000405,108.1144255999825,108.59939879999729,108.60718819999602,108.6330543999793,108.6330543999793,108.6330543999793,109.70398990000831,Objects\167a.jpg,mid,o,1.059100500016939,None,,,,,,,,00047,001,2026-01-18_12h29.07.522,MST_test,2024.2.0,59.78058136062168,2026-01-18 12h29.20.392237 +0530,
24,0,25,o,1.061742200050503,None,25,0,24,109.71992110001156,,,,,,,,,,,,,,,,,,,,,,,,,,,,,,,,,,,,,,,,,,,,,,,,,,109.70408950001001,109.71992110001156,110.20526949997293,110.21366670000134,110.23840580001706,110.23840580001706,110.23840580001706,111.30974439997226,Objects\213a.jpg,post,o,1.061742200050503,None,,,,,,,,00047,001,2026-01-18_12h29.07.522,MST_test,2024.2.0,59.78058136062168,2026-01-18 12h29.20.392237 +0530,
25,0,26,o,1.2079881000099704,None,26,0,25,111.32566570001654,,,,,,,,,,,,,,,,,,,,,,,,,,,,,,,,,,,,,,,,,,,,,,,,,,111.3098376999842,111.32566570001654,111.81076899997424,111.82761370000662,111.84404140000697,111.84404140000697,111.84404140000697,113.06600549997529,Objects\263b.jpg,pre,o,1.2079881000099704,None,,,,,,,,00047,001,2026-01-18_12h29.07.522,MST_test,2024.2.0,59.78058136062168,2026-01-18 12h29.20.392237 +0530,
26,0,27,n,1.3790662999963388,None,27,0,26,113.0818561000051,,,,,,,,,,,,,,,,,,,,,,,,,,,,,,,,,,,,,,,,,,,,,,,,,,113.066105099977,113.0818561000051,113.56690899998648,113.58172249997733,113.6003055999754,113.6003055999754,113.6003055999754,114.98902330000419,Foils\097a.jpg,none,n,1.3790662999963388,None,,,,,,,,00047,001,2026-01-18_12h29.07.522,MST_test,2024.2.0,59.78058136062168,2026-01-18 12h29.20.392237 +0530,
27,0,28,o,4.60816010000417,None,28,0,27,115.00509569997666,,,,,,,,,,,,,,,,,,,,,,,,,,,,,,,,,,,,,,,,,,,,,,,,,,114.98911819997011,115.00509569997666,115.49030549998861,115.50593109999318,115.52357610000763,115.52357610000763,115.52357610000763,120.14045539998915,Objects\265b.jpg,post,o,4.60816010000417,None,,,,,,,,00047,001,2026-01-18_12h29.07.522,MST_test,2024.2.0,59.78058136062168,2026-01-18 12h29.20.392237 +0530,
28,0,29,n,1.9209425000008196,None,29,0,28,120.15661439998075,,,,,,,,,,,,,,,,,,,,,,,,,,,,,,,,,,,,,,,,,,,,,,,,,,120.14055109996116,120.15661439998075,120.64157729997532,120.65849930001423,120.6750708000036,120.6750708000036,120.6750708000036,122.599309000012,Foils\050a.jpg,none,n,1.9209425000008196,None,,,,,,,,00047,001,2026-01-18_12h29.07.522,MST_test,2024.2.0,59.78058136062168,2026-01-18 12h29.20.392237 +0530,
29,0,30,o,1.4872537000337616,None,30,0,29,122.61520269996254,,,,,,,,,,,,,,,,,,,,,,,,,,,,,,,,,,,,,,,,,,,,,,,,,,122.59940559999086,122.61520269996254,123.1002126999665,123.10968809999758,123.13368089997675,123.13368089997675,123.13368089997675,124.62285430001793,Objects\276b.jpg,pre,o,1.4872537000337616,None,,,,,,,,00047,001,2026-01-18_12h29.07.522,MST_test,2024.2.0,59.78058136062168,2026-01-18 12h29.20.392237 +0530,
30,0,31,o,1.58265900000697,None,31,0,30,124.63895930000581,,,,,,,,,,,,,,,,,,,,,,,,,,,,,,,,,,,,,,,,,,,,,,,,,,124.62295350001659,124.63895930000581,125.12401279999176,125.1337958999793,125.15742880001199,125.15742880001199,125.15742880001199,126.74680799996713,Objects\088b.jpg,post,o,1.58265900000697,None,,,,,,,,00047,001,2026-01-18_12h29.07.522,MST_test,2024.2.0,59.78058136062168,2026-01-18 12h29.20.392237 +0530,
31,0,32,s,1.762477200012654,None,32,0,31,126.76307159999851,,,,,,,,,,,,,,,,,,,,,,,,,,,,,,,,,,,,,,,,,,,,,,,,,,126.74690520000877,126.76307159999851,127.24815509998007,127.25750309997238,127.28154449997237,127.28154449997237,127.28154449997237,129.0549924999941,Objects\098b.jpg,pre,s,1.762477200012654,None,,,,,,,,00047,001,2026-01-18_12h29.07.522,MST_test,2024.2.0,59.78058136062168,2026-01-18 12h29.20.392237 +0530,
32,0,33,s,2.982529299973976,None,33,0,32,129.07115899998462,,,,,,,,,,,,,,,,,,,,,,,,,,,,,,,,,,,,,,,,,,,,,,,,,,129.05510220001452,129.07115899998462,129.55612259998452,129.5669083999819,129.5897632999695,129.5897632999695,129.5897632999695,132.58449269999983,Objects\059b.jpg,pre,s,2.982529299973976,None,,,,,,,,00047,001,2026-01-18_12h29.07.522,MST_test,2024.2.0,59.78058136062168,2026-01-18 12h29.20.392237 +0530,
33,0,34,n,1.6855111999902874,None,34,0,33,132.6003138999804,,,,,,,,,,,,,,,,,,,,,,,,,,,,,,,,,,,,,,,,,,,,,,,,,,132.58458809996955,132.6003138999804,133.08513409999432,133.09459789999528,133.1186590999714,133.1186590999714,133.1186590999714,134.80860529997153,Foils\010a.jpg,none,n,1.6855111999902874,None,,,,,,,,00047,001,2026-01-18_12h29.07.522,MST_test,2024.2.0,59.78058136062168,2026-01-18 12h29.20.392237 +0530,
34,0,35,s,1.8619381000171416,None,35,0,34,134.8246257000137,,,,,,,,,,,,,,,,,,,,,,,,,,,,,,,,,,,,,,,,,,,,,,,,,,134.80870130000403,134.8246257000137,135.31012189999456,135.31324079999467,135.32637389999582,135.32637389999582,135.32637389999582,137.20010889996774,Objects\043a.jpg,post,s,1.8619381000171416,None,,,,,,,,00047,001,2026-01-18_12h29.07.522,MST_test,2024.2.0,59.78058136062168,2026-01-18 12h29.20.392237 +0530,
35,0,36,o,1.2613797999802046,None,36,0,35,137.21621609997237,,,,,,,,,,,,,,,,,,,,,,,,,,,,,,,,,,,,,,,,,,,,,,,,,,137.20020329998806,137.21621609997237,137.70141979999607,137.70439139998052,137.71809599996777,137.71809599996777,137.71809599996777,138.98994860000676,Objects\308a.jpg,pre,o,1.2613797999802046,None,,,,,,,,00047,001,2026-01-18_12h29.07.522,MST_test,2024.2.0,59.78058136062168,2026-01-18 12h29.20.392237 +0530,
36,0,37,o,1.1440145000233315,None,37,0,36,139.00593320000917,,,,,,,,,,,,,,,,,,,,,,,,,,,,,,,,,,,,,,,,,,,,,,,,,,138.99004509998485,139.00593320000917,139.49088019999908,139.49371199996676,139.5079480999848,139.5079480999848,139.5079480999848,140.66241170000285,Objects\007a.jpg,mid,o,1.1440145000233315,None,,,,,,,,00047,001,2026-01-18_12h29.07.522,MST_test,2024.2.0,59.78058136062168,2026-01-18 12h29.20.392237 +0530,
37,0,38,n,1.4152639000094496,None,38,0,37,140.67846909997752,,,,,,,,,,,,,,,,,,,,,,,,,,,,,,,,,,,,,,,,,,,,,,,,,,140.66250979999313,140.67846909997752,141.1634316999698,141.17492449999554,141.1969452999765,141.1969452999765,141.1969452999765,142.6191884999862,Foils\098a.jpg,none,n,1.4152639000094496,None,,,,,,,,00047,001,2026-01-18_12h29.07.522,MST_test,2024.2.0,59.78058136062168,2026-01-18 12h29.20.392237 +0530,
38,0,39,s,3.170107099984307,None,39,0,38,142.63532880001003,,,,,,,,,,,,,,,,,,,,,,,,,,,,,,,,,,,,,,,,,,,,,,,,,,142.61928569996962,142.63532880001003,143.12040229997365,143.13120730000082,143.1538031999953,143.1538031999953,143.1538031999953,146.33240259997547,Foils\042a.jpg,none,s,3.170107099984307,None,,,,,,,,00047,001,2026-01-18_12h29.07.522,MST_test,2024.2.0,59.78058136062168,2026-01-18 12h29.20.392237 +0530,
39,0,40,n,1.4334321999922395,None,40,0,39,146.34831590001704,,,,,,,,,,,,,,,,,,,,,,,,,,,,,,,,,,,,,,,,,,,,,,,,,,146.33249429997522,146.34831590001704,146.83329119998962,146.84304979996523,146.8669315999723,146.8669315999723,146.8669315999723,148.30586939997738,Foils\082a.jpg,none,n,1.4334321999922395,None,,,,,,,,00047,001,2026-01-18_12h29.07.522,MST_test,2024.2.0,59.78058136062168,2026-01-18 12h29.20.392237 +0530,
40,0,41,o,1.3967713000020012,None,41,0,40,148.32189730001846,,,,,,,,,,,,,,,,,,,,,,,,,,,,,,,,,,,,,,,,,,,,,,,,,,148.30596009996952,148.32189730001846,148.8069832000183,148.8142564999871,148.82300679996843,148.82300679996843,148.82300679996843,150.2294819999952,Objects\358a.jpg,mid,o,1.3967713000020012,None,,,,,,,,00047,001,2026-01-18_12h29.07.522,MST_test,2024.2.0,59.78058136062168,2026-01-18 12h29.20.392237 +0530,
41,0,42,o,1.4652936999918893,None,42,0,41,150.24549599998863,,,,,,,,,,,,,,,,,,,,,,,,,,,,,,,,,,,,,,,,,,,,,,,,,,150.2295794999809,150.24549599998863,150.73043080000207,150.73847779998323,150.7462627000059,150.7462627000059,150.7462627000059,152.21969699999318,Objects\011a.jpg,pre,o,1.4652936999918893,None,,,,,,,,00047,001,2026-01-18_12h29.07.522,MST_test,2024.2.0,59.78058136062168,2026-01-18 12h29.20.392237 +0530,
42,0,43,s,1.6592135999817401,None,43,0,42,152.23550609999802,,,,,,,,,,,,,,,,,,,,,,,,,,,,,,,,,,,,,,,,,,,,,,,,,,152.21978990000207,152.23550609999802,152.72070890001487,152.73101200000383,152.75395320000825,152.75395320000825,152.75395320000825,154.42732700001216,Objects\151b.jpg,post,s,1.6592135999817401,None,,,,,,,,00047,001,2026-01-18_12h29.07.522,MST_test,2024.2.0,59.78058136062168,2026-01-18 12h29.20.392237 +0530,
43,0,44,s,3.7620672000339255,None,44,0,43,154.4431921999785,,,,,,,,,,,,,,,,,,,,,,,,,,,,,,,,,,,,,,,,,,,,,,,,,,154.42742329998873,154.4431921999785,154.92844749998767,154.9374582999735,154.9617033000104,154.9617033000104,154.9617033000104,158.7256121999817,Objects\382b.jpg,post,s,3.7620672000339255,None,,,,,,,,00047,001,2026-01-18_12h29.07.522,MST_test,2024.2.0,59.78058136062168,2026-01-18 12h29.20.392237 +0530,
44,0,45,n,2.2482830000226386,None,45,0,44,158.7416144000017,,,,,,,,,,,,,,,,,,,,,,,,,,,,,,,,,,,,,,,,,,,,,,,,,,158.72575879999204,158.7416144000017,159.2268421999761,159.24383059999673,159.26008209999418,159.26008209999418,159.26008209999418,161.51901589997578,Objects\244b.jpg,pre,n,2.2482830000226386,None,,,,,,,,00047,001,2026-01-18_12h29.07.522,MST_test,2024.2.0,59.78058136062168,2026-01-18 12h29.20.392237 +0530,
45,0,46,n,1.0547397999907844,None,46,0,45,161.53471929999068,,,,,,,,,,,,,,,,,,,,,,,,,,,,,,,,,,,,,,,,,,,,,,,,,,161.5191076999763,161.53471929999068,162.02003620000323,162.03636520000873,162.05318139999872,162.05318139999872,162.05318139999872,163.12423499999568,Foils\105a.jpg,none,n,1.0547397999907844,None,,,,,,,,00047,001,2026-01-18_12h29.07.522,MST_test,2024.2.0,59.78058136062168,2026-01-18 12h29.20.392237 +0530,
46,0,47,s,1.841315499972552,None,47,0,46,163.14034059998812,,,,,,,,,,,,,,,,,,,,,,,,,,,,,,,,,,,,,,,,,,,,,,,,,,163.12433269998292,163.14034059998812,163.62556829996174,163.63483309996082,163.6589171999949,163.6589171999949,163.6589171999949,165.516029099992,Objects\190b.jpg,post,s,1.841315499972552,None,,,,,,,,00047,001,2026-01-18_12h29.07.522,MST_test,2024.2.0,59.78058136062168,2026-01-18 12h29.20.392237 +0530,
47,0,48,o,1.648830000020098,None,48,0,47,165.53216349997092,,,,,,,,,,,,,,,,,,,,,,,,,,,,,,,,,,,,,,,,,,,,,,,,,,165.51612659997772,165.53216349997092,166.0171393000055,166.02656570001272,166.05065479996847,166.05065479996847,166.05065479996847,167.7071895999834,Objects\080b.jpg,mid,o,1.648830000020098,None,,,,,,,,00047,001,2026-01-18_12h29.07.522,MST_test,2024.2.0,59.78058136062168,2026-01-18 12h29.20.392237 +0530,
48,0,49,n,1.5858848000061698,None,49,0,48,167.7232081000111,,,,,,,,,,,,,,,,,,,,,,,,,,,,,,,,,,,,,,,,,,,,,,,,,,167.70729320001556,167.7232081000111,168.20813250000356,168.21727999998257,168.24167570000282,168.24167570000282,168.24167570000282,169.83111849997658,Foils\113a.jpg,none,n,1.5858848000061698,None,,,,,,,,00047,001,2026-01-18_12h29.07.522,MST_test,2024.2.0,59.78058136062168,2026-01-18 12h29.20.392237 +0530,
49,0,50,n,1.1661490999977104,None,50,0,49,169.84753679996356,,,,,,,,,,,,,,,,,,,,,,,,,,,,,,,,,,,,,,,,,,,,,,,,,,169.831217799976,169.84753679996356,170.3323520999984,170.34195969998837,170.36573610000778,170.36573610000778,170.36573610000778,171.53738599998178,Foils\090a.jpg,none,n,1.1661490999977104,None,,,,,,,,00047,001,2026-01-18_12h29.07.522,MST_test,2024.2.0,59.78058136062168,2026-01-18 12h29.20.392237 +0530,
50,0,51,o,1.3802078000153415,None,51,0,50,171.55313379998552,,,,,,,,,,,,,,,,,,,,,,,,,,,,,,,,,,,,,,,,,,,,,,,,,,171.53747889999067,171.55313379998552,172.03848149999976,172.04656679998152,172.0716166999773,172.0716166999773,172.0716166999773,173.46085979999043,Objects\350a.jpg,mid,o,1.3802078000153415,None,,,,,,,,00047,001,2026-01-18_12h29.07.522,MST_test,2024.2.0,59.78058136062168,2026-01-18 12h29.20.392237 +0530,
51,0,52,s,3.536934799980372,None,52,0,51,173.47652329999255,,,,,,,,,,,,,,,,,,,,,,,,,,,,,,,,,,,,,,,,,,,,,,,,,,173.46096689999104,173.47652329999255,173.96189999999478,173.97809509997023,173.99502939998638,173.99502939998638,173.99502939998638,177.54142329999013,Objects\256b.jpg,post,s,3.536934799980372,None,,,,,,,,00047,001,2026-01-18_12h29.07.522,MST_test,2024.2.0,59.78058136062168,2026-01-18 12h29.20.392237 +0530,
52,0,53,s,1.6088671999750659,None,53,0,52,177.5577525999979,,,,,,,,,,,,,,,,,,,,,,,,,,,,,,,,,,,,,,,,,,,,,,,,,,177.54151979996823,177.5577525999979,178.04256779997377,178.05836819997057,178.07613000000129,178.07613000000129,178.07613000000129,179.69879449997097,Objects\212b.jpg,mid,s,1.6088671999750659,None,,,,,,,,00047,001,2026-01-18_12h29.07.522,MST_test,2024.2.0,59.78058136062168,2026-01-18 12h29.20.392237 +0530,
53,0,54,s,1.5058161999913864,None,54,0,53,179.7151549999835,,,,,,,,,,,,,,,,,,,,,,,,,,,,,,,,,,,,,,,,,,,,,,,,,,179.69892230001278,179.7151549999835,180.20044970000163,180.21013029996539,180.2337577000144,180.2337577000144,180.2337577000144,181.75629990000743,Objects\155b.jpg,post,s,1.5058161999913864,None,,,,,,,,00047,001,2026-01-18_12h29.07.522,MST_test,2024.2.0,59.78058136062168,2026-01-18 12h29.20.392237 +0530,
54,0,55,s,1.3527498000185005,None,55,0,54,181.77225300000282,,,,,,,,,,,,,,,,,,,,,,,,,,,,,,,,,,,,,,,,,,,,,,,,,,181.75639329996193,181.77225300000282,182.25757519999752,182.26662720000604,182.2908379000146,182.2908379000146,182.2908379000146,183.64606220001588,Objects\241b.jpg,post,s,1.3527498000185005,None,,,,,,,,00047,001,2026-01-18_12h29.07.522,MST_test,2024.2.0,59.78058136062168,2026-01-18 12h29.20.392237 +0530,
55,0,56,o,2.0543354999972507,None,56,0,55,183.6626976999687,,,,,,,,,,,,,,,,,,,,,,,,,,,,,,,,,,,,,,,,,,,,,,,,,,183.64615960000083,183.6626976999687,184.14780579996295,184.1617935000104,184.18129769997904,184.18129769997904,184.18129769997904,186.23851190001005,Objects\327b.jpg,mid,o,2.0543354999972507,None,,,,,,,,00047,001,2026-01-18_12h29.07.522,MST_test,2024.2.0,59.78058136062168,2026-01-18 12h29.20.392237 +0530,
56,0,57,o,1.487271599995438,None,57,0,56,186.25489169999491,,,,,,,,,,,,,,,,,,,,,,,,,,,,,,,,,,,,,,,,,,,,,,,,,,186.2386074999813,186.25489169999491,186.739879700006,186.75465959997382,186.7733797999681,186.7733797999681,186.7733797999681,188.26236639998388,Objects\164b.jpg,mid,o,1.487271599995438,None,,,,,,,,00047,001,2026-01-18_12h29.07.522,MST_test,2024.2.0,59.78058136062168,2026-01-18 12h29.20.392237 +0530,
57,0,58,o,0.9991343000438064,None,58,0,57,188.27864139998564,,,,,,,,,,,,,,,,,,,,,,,,,,,,,,,,,,,,,,,,,,,,,,,,,,188.26246890000766,188.27864139998564,188.76366240001516,188.76612129999558,188.78039189998526,188.78039189998526,188.78039189998526,189.78446120000444,Objects\150a.jpg,post,o,0.9991343000438064,None,,,,,,,,00047,001,2026-01-18_12h29.07.522,MST_test,2024.2.0,59.78058136062168,2026-01-18 12h29.20.392237 +0530,
58,0,59,n,1.3007390000275336,None,59,0,58,189.8007379999617,,,,,,,,,,,,,,,,,,,,,,,,,,,,,,,,,,,,,,,,,,,,,,,,,,189.78455899999244,189.8007379999617,190.2861058000126,190.29586969997035,190.31901089998428,190.31901089998428,190.31901089998428,191.62461920001078,Foils\101b.jpg,none,n,1.3007390000275336,None,,,,,,,,00047,001,2026-01-18_12h29.07.522,MST_test,2024.2.0,59.78058136062168,2026-01-18 12h29.20.392237 +0530,
59,0,60,o,1.4141232999973,None,60,0,59,191.640808199998,,,,,,,,,,,,,,,,,,,,,,,,,,,,,,,,,,,,,,,,,,,,,,,,,,191.6247223999817,191.640808199998,192.12525989999995,192.13203360000625,192.14241039997432,192.14241039997432,192.14241039997432,193.56439580000006,Objects\264a.jpg,mid,o,1.4141232999973,None,,,,,,,,00047,001,2026-01-18_12h29.07.522,MST_test,2024.2.0,59.78058136062168,2026-01-18 12h29.20.392237 +0530,
60,0,61,o,1.1462778999703005,None,61,0,60,193.58050360000925,,,,,,,,,,,,,,,,,,,,,,,,,,,,,,,,,,,,,,,,,,,,,,,,,,193.56449229997816,193.58050360000925,194.06546780001372,194.0745607999852,194.0989888999611,194.0989888999611,194.0989888999611,195.253478300001,Objects\330a.jpg,post,o,1.1462778999703005,None,,,,,,,,00047,001,2026-01-18_12h29.07.522,MST_test,2024.2.0,59.78058136062168,2026-01-18 12h29.20.392237 +0530,
61,0,62,o,0.864387399982661,None,62,0,61,195.26964579999913,,,,,,,,,,,,,,,,,,,,,,,,,,,,,,,,,,,,,,,,,,,,,,,,,,195.25357090000762,195.26964579999913,195.7546360999695,195.7634198999731,195.7881118999794,195.7881118999794,195.7881118999794,196.65860550000798,Objects\016a.jpg,pre,o,0.864387399982661,None,,,,,,,,00047,001,2026-01-18_12h29.07.522,MST_test,2024.2.0,59.78058136062168,2026-01-18 12h29.20.392237 +0530,
62,0,63,s,2.9629903999739327,None,63,0,62,196.6744311999646,,,,,,,,,,,,,,,,,,,,,,,,,,,,,,,,,,,,,,,,,,,,,,,,,,196.65869690000545,196.6744311999646,197.15964899997925,197.16922889999114,197.1929056000081,197.1929056000081,197.1929056000081,200.17068390001077,Foils\081a.jpg,none,s,2.9629903999739327,None,,,,,,,,00047,001,2026-01-18_12h29.07.522,MST_test,2024.2.0,59.78058136062168,2026-01-18 12h29.20.392237 +0530,
63,0,64,s,2.123459400027059,None,64,0,63,200.18674569996074,,,,,,,,,,,,,,,,,,,,,,,,,,,,,,,,,,,,,,,,,,,,,,,,,,200.17078220000258,200.18674569996074,200.6719384000171,200.674778399989,200.68847970000934,200.68847970000934,200.68847970000934,202.81337019999046,Objects\114a.jpg,post,s,2.123459400027059,None,,,,,,,,00047,001,2026-01-18_12h29.07.522,MST_test,2024.2.0,59.78058136062168,2026-01-18 12h29.20.392237 +0530,
64,0,65,n,2.1359041000250727,None,65,0,64,202.8295785000082,,,,,,,,,,,,,,,,,,,,,,,,,,,,,,,,,,,,,,,,,,,,,,,,,,202.8134653000161,202.8295785000082,203.314507699979,203.32591479999246,203.3479420999647,203.3479420999647,203.3479420999647,205.48932509997394,Foils\018a.jpg,none,n,2.1359041000250727,None,,,,,,,,00047,001,2026-01-18_12h29.07.522,MST_test,2024.2.0,59.78058136062168,2026-01-18 12h29.20.392237 +0530,
65,0,66,o,1.3819555999943987,None,66,0,65,205.5054824000108,,,,,,,,,,,,,,,,,,,,,,,,,,,,,,,,,,,,,,,,,,,,,,,,,,205.48942080000415,205.5054824000108,205.99044799996773,205.9935484000016,206.00723920000019,206.00723920000019,206.00723920000019,207.39619699999457,Objects\142a.jpg,mid,o,1.3819555999943987,None,,,,,,,,00047,001,2026-01-18_12h29.07.522,MST_test,2024.2.0,59.78058136062168,2026-01-18 12h29.20.392237 +0530,
66,0,67,o,2.241084899986163,None,67,0,66,207.4121618999634,,,,,,,,,,,,,,,,,,,,,,,,,,,,,,,,,,,,,,,,,,,,,,,,,,207.3962914000149,207.4121618999634,207.89744289999362,207.91420130000915,207.9306253999821,207.9306253999821,207.9306253999821,210.1727737999754,Objects\288b.jpg,pre,o,2.241084899986163,None,,,,,,,,00047,001,2026-01-18_12h29.07.522,MST_test,2024.2.0,59.78058136062168,2026-01-18 12h29.20.392237 +0530,
67,0,68,o,1.3373791999765672,None,68,0,67,210.18843859998742,,,,,,,,,,,,,,,,,,,,,,,,,,,,,,,,,,,,,,,,,,,,,,,,,,210.17286649998277,210.18843859998742,210.67379999998957,210.6823582999641,210.7068992999848,210.7068992999848,210.7068992999848,212.04561520001153,Objects\081a.jpg,pre,o,1.3373791999765672,None,,,,,,,,00047,001,2026-01-18_12h29.07.522,MST_test,2024.2.0,59.78058136062168,2026-01-18 12h29.20.392237 +0530,
68,0,69,o,1.5922345999861136,None,69,0,68,212.06177679996472,,,,,,,,,,,,,,,,,,,,,,,,,,,,,,,,,,,,,,,,,,,,,,,,,,212.04571400000714,212.06177679996472,212.54686120001134,212.5570604999666,212.58025759999873,212.58025759999873,212.58025759999873,214.18648279999616,Objects\170b.jpg,pre,o,1.5922345999861136,None,,,,,,,,00047,001,2026-01-18_12h29.07.522,MST_test,2024.2.0,59.78058136062168,2026-01-18 12h29.20.392237 +0530,
69,0,70,n,1.3882393999956548,None,70,0,69,214.20248109998647,,,,,,,,,,,,,,,,,,,,,,,,,,,,,,,,,,,,,,,,,,,,,,,,,,214.1865758000058,214.20248109998647,214.6876880999771,214.69715289998567,214.7210021999781,214.7210021999781,214.7210021999781,216.1100913999835,Foils\106a.jpg,none,n,1.3882393999956548,None,,,,,,,,00047,001,2026-01-18_12h29.07.522,MST_test,2024.2.0,59.78058136062168,2026-01-18 12h29.20.392237 +0530,
70,0,71,o,4.711022200004663,None,71,0,70,216.12601169996196,,,,,,,,,,,,,,,,,,,,,,,,,,,,,,,,,,,,,,,,,,,,,,,,,,216.11019079998368,216.12601169996196,216.61110099998768,216.62039190001087,216.64435359998606,216.64435359998606,216.64435359998606,221.36189880000893,Objects\379b.jpg,mid,o,4.711022200004663,None,,,,,,,,00047,001,2026-01-18_12h29.07.522,MST_test,2024.2.0,59.78058136062168,2026-01-18 12h29.20.392237 +0530,
71,0,72,o,1.1089649999630637,None,72,0,71,221.37762649997603,,,,,,,,,,,,,,,,,,,,,,,,,,,,,,,,,,,,,,,,,,,,,,,,,,221.36199140001554,221.37762649997603,221.86285249999491,221.86832740000682,221.87935920001473,221.87935920001473,221.87935920001473,223.0006612999714,Objects\200a.jpg,mid,o,1.1089649999630637,None,,,,,,,,00047,001,2026-01-18_12h29.07.522,MST_test,2024.2.0,59.78058136062168,2026-01-18 12h29.20.392237 +0530,
72,0,73,o,1.9326737000374123,None,73,0,72,223.01668399997288,,,,,,,,,,,,,,,,,,,,,,,,,,,,,,,,,,,,,,,,,,,,,,,,,,223.00076079997234,223.01668399997288,223.50187390000792,223.5168040000135,223.5352682999801,223.5352682999801,223.5352682999801,225.4767135999864,Objects\084b.jpg,mid,o,1.9326737000374123,None,,,,,,,,00047,001,2026-01-18_12h29.07.522,MST_test,2024.2.0,59.78058136062168,2026-01-18 12h29.20.392237 +0530,
73,0,74,o,1.2257637999719009,None,74,0,73,225.4921422000043,,,,,,,,,,,,,,,,,,,,,,,,,,,,,,,,,,,,,,,,,,,,,,,,,,225.47682499996154,225.4921422000043,225.97708470001817,225.98824799997965,226.01062399998773,226.01062399998773,226.01062399998773,227.2486654999666,Objects\311b.jpg,mid,o,1.2257637999719009,None,,,,,,,,00047,001,2026-01-18_12h29.07.522,MST_test,2024.2.0,59.78058136062168,2026-01-18 12h29.20.392237 +0530,
74,0,75,s,2.868448499997612,None,75,0,74,227.26527019997593,,,,,,,,,,,,,,,,,,,,,,,,,,,,,,,,,,,,,,,,,,,,,,,,,,227.2487743999809,227.26527019997593,227.75011839997023,227.7674344999832,227.7834844000172,227.7834844000172,227.7834844000172,230.66087079996942,Objects\221b.jpg,post,s,2.868448499997612,None,,,,,,,,00047,001,2026-01-18_12h29.07.522,MST_test,2024.2.0,59.78058136062168,2026-01-18 12h29.20.392237 +0530,
75,0,76,n,3.048180699988734,None,76,0,75,230.67695270001423,,,,,,,,,,,,,,,,,,,,,,,,,,,,,,,,,,,,,,,,,,,,,,,,,,230.6609764000168,230.67695270001423,231.16197319998173,231.17845840001246,231.19550879998133,231.19550879998133,231.19550879998133,234.25674219999928,Foils\093b.jpg,none,n,3.048180699988734,None,,,,,,,,00047,001,2026-01-18_12h29.07.522,MST_test,2024.2.0,59.78058136062168,2026-01-18 12h29.20.392237 +0530,
76,0,77,o,1.8452580000157468,None,77,0,76,234.27301900001476,,,,,,,,,,,,,,,,,,,,,,,,,,,,,,,,,,,,,,,,,,,,,,,,,,234.25683470000513,234.27301900001476,234.75797410000814,234.76132970000617,234.77457489998778,234.77457489998778,234.77457489998778,236.63176069996553,Objects\228a.jpg,mid,o,1.8452580000157468,None,,,,,,,,00047,001,2026-01-18_12h29.07.522,MST_test,2024.2.0,59.78058136062168,2026-01-18 12h29.20.392237 +0530,
77,0,78,o,1.3261561999679543,None,78,0,77,236.6477748999605,,,,,,,,,,,,,,,,,,,,,,,,,,,,,,,,,,,,,,,,,,,,,,,,,,236.63185539998813,236.6477748999605,237.13295359996846,237.13597319996916,237.14969330001622,237.14969330001622,237.14969330001622,238.4880242999643,Objects\110a.jpg,mid,o,1.3261561999679543,None,,,,,,,,00047,001,2026-01-18_12h29.07.522,MST_test,2024.2.0,59.78058136062168,2026-01-18 12h29.20.392237 +0530,
78,0,79,o,1.3973035999806598,None,79,0,78,238.5043682999676,,,,,,,,,,,,,,,,,,,,,,,,,,,,,,,,,,,,,,,,,,,,,,,,,,238.48812019999605,238.5043682999676,238.98935689998325,238.99229259998538,239.00611650000792,239.00611650000792,239.00611650000792,240.41186439996818,Objects\045a.jpg,post,o,1.3973035999806598,None,,,,,,,,00047,001,2026-01-18_12h29.07.522,MST_test,2024.2.0,59.78058136062168,2026-01-18 12h29.20.392237 +0530,
79,0,80,s,4.162327700003516,None,80,0,79,240.4276555000106,,,,,,,,,,,,,,,,,,,,,,,,,,,,,,,,,,,,,,,,,,,,,,,,,,240.41195899999002,240.4276555000106,240.91302699997323,240.91601709998213,240.92940879997332,240.92940879997332,240.92940879997332,245.0947598000057,Objects\052a.jpg,pre,s,4.162327700003516,None,,,,,,,,00047,001,2026-01-18_12h29.07.522,MST_test,2024.2.0,59.78058136062168,2026-01-18 12h29.20.392237 +0530,
80,0,81,n,2.1355539999785833,None,81,0,80,245.11072409996996,,,,,,,,,,,,,,,,,,,,,,,,,,,,,,,,,,,,,,,,,,,,,,,,,,245.09485210001003,245.11072409996996,245.59610399999656,245.5991974999779,245.6125298999832,245.6125298999832,245.6125298999832,247.7539931999636,Objects\160a.jpg,post,n,2.1355539999785833,None,,,,,,,,00047,001,2026-01-18_12h29.07.522,MST_test,2024.2.0,59.78058136062168,2026-01-18 12h29.20.392237 +0530,
81,0,82,s,2.3069991000229493,None,82,0,81,247.77014739997685,,,,,,,,,,,,,,,,,,,,,,,,,,,,,,,,,,,,,,,,,,,,,,,,,,247.7540857999702,247.77014739997685,248.25512320001144,248.26493349997327,248.28861559997313,248.28861559997313,248.28861559997313,250.59765040001366,Objects\372b.jpg,post,s,2.3069991000229493,None,,,,,,,,00047,001,2026-01-18_12h29.07.522,MST_test,2024.2.0,59.78058136062168,2026-01-18 12h29.20.392237 +0530,
82,0,83,s,1.8558412999846041,None,83,0,82,250.61331420001807,,,,,,,,,,,,,,,,,,,,,,,,,,,,,,,,,,,,,,,,,,,,,,,,,,250.5977416000096,250.61331420001807,251.09870599996066,251.11120139999548,251.13178970001172,251.13178970001172,251.13178970001172,252.98916639998788,Foils\f6.jpg,none,s,1.8558412999846041,None,,,,,,,,00047,001,2026-01-18_12h29.07.522,MST_test,2024.2.0,59.78058136062168,2026-01-18 12h29.20.392237 +0530,
83,0,84,o,1.8570937000331469,None,84,0,83,253.00526499998523,,,,,,,,,,,,,,,,,,,,,,,,,,,,,,,,,,,,,,,,,,,,,,,,,,252.9892608000082,253.00526499998523,253.49011289997725,253.49870830000145,253.5236312999623,253.5236312999623,253.5236312999623,255.39746770000784,Objects\254a.jpg,post,o,1.8570937000331469,None,,,,,,,,00047,001,2026-01-18_12h29.07.522,MST_test,2024.2.0,59.78058136062168,2026-01-18 12h29.20.392237 +0530,
84,0,85,n,1.4726004999829456,None,85,0,84,255.4134672000073,,,,,,,,,,,,,,,,,,,,,,,,,,,,,,,,,,,,,,,,,,,,,,,,,,255.39756499999203,255.4134672000073,255.89864510000916,255.91545049997512,255.93192669999553,255.93192669999553,255.93192669999553,257.4210366999614,Foils\057a.jpg,none,n,1.4726004999829456,None,,,,,,,,00047,001,2026-01-18_12h29.07.522,MST_test,2024.2.0,59.78058136062168,2026-01-18 12h29.20.392237 +0530,
85,0,86,o,1.1693554000230506,None,86,0,85,257.4372298999806,,,,,,,,,,,,,,,,,,,,,,,,,,,,,,,,,,,,,,,,,,,,,,,,,,257.4211268000072,257.4372298999806,257.9224210999673,257.9281607000157,257.9392259999877,257.9392259999877,257.9392259999877,259.11047650000546,Objects\367a.jpg,post,o,1.1693554000230506,None,,,,,,,,00047,001,2026-01-18_12h29.07.522,MST_test,2024.2.0,59.78058136062168,2026-01-18 12h29.20.392237 +0530,
86,0,87,o,1.7108417000272311,None,87,0,86,259.12658769998234,,,,,,,,,,,,,,,,,,,,,,,,,,,,,,,,,,,,,,,,,,,,,,,,,,259.1105666999938,259.12658769998234,259.61194329999853,259.61945429997286,259.6450621999684,259.6450621999684,259.6450621999684,261.3687071999884,Objects\162a.jpg,pre,o,1.7108417000272311,None,,,,,,,,00047,001,2026-01-18_12h29.07.522,MST_test,2024.2.0,59.78058136062168,2026-01-18 12h29.20.392237 +0530,
87,0,88,o,2.1089356999727897,None,88,0,87,261.38460099999793,,,,,,,,,,,,,,,,,,,,,,,,,,,,,,,,,,,,,,,,,,,,,,,,,,261.3688084000023,261.38460099999793,261.86949419998564,261.8786551000085,261.9029767999891,261.9029767999891,261.9029767999891,264.02766600000905,Foils\066a.jpg,none,o,2.1089356999727897,None,,,,,,,,00047,001,2026-01-18_12h29.07.522,MST_test,2024.2.0,59.78058136062168,2026-01-18 12h29.20.392237 +0530,
88,0,89,o,2.1146372000221163,None,89,0,88,264.0438079999876,,,,,,,,,,,,,,,,,,,,,,,,,,,,,,,,,,,,,,,,,,,,,,,,,,264.0277560999966,264.0438079999876,264.5287672000122,264.53620709996903,264.5451948000118,264.5451948000118,264.5451948000118,266.67052099999273,Objects\339a.jpg,pre,o,2.1146372000221163,None,,,,,,,,00047,001,2026-01-18_12h29.07.522,MST_test,2024.2.0,59.78058136062168,2026-01-18 12h29.20.392237 +0530,
89,0,90,n,3.200096599990502,None,90,0,89,266.6863994000014,,,,,,,,,,,,,,,,,,,,,,,,,,,,,,,,,,,,,,,,,,,,,,,,,,266.6706148000085,266.6863994000014,267.17136799998116,267.18547169998055,267.204863699968,267.204863699968,267.204863699968,270.4166640000185,Foils\f7.jpg,none,n,3.200096599990502,None,,,,,,,,00047,001,2026-01-18_12h29.07.522,MST_test,2024.2.0,59.78058136062168,2026-01-18 12h29.20.392237 +0530,
90,0,91,s,2.0121038000215776,None,91,0,90,270.43300109996926,,,,,,,,,,,,,,,,,,,,,,,,,,,,,,,,,,,,,,,,,,,,,,,,,,270.4167633000179,270.43300109996926,270.9179816999822,270.9329674000037,270.9513325999724,270.9513325999724,270.9513325999724,272.9754685999942,Foils\086a.jpg,none,s,2.0121038000215776,None,,,,,,,,00047,001,2026-01-18_12h29.07.522,MST_test,2024.2.0,59.78058136062168,2026-01-18 12h29.20.392237 +0530,
91,0,92,o,1.2463163000065833,None,92,0,91,272.9918259999831,,,,,,,,,,,,,,,,,,,,,,,,,,,,,,,,,,,,,,,,,,,,,,,,,,272.9755652999738,272.9918259999831,273.4769497999805,273.4797181999893,273.49379249999765,273.49379249999765,273.49379249999765,274.7484727000119,Objects\009a.jpg,mid,o,1.2463163000065833,None,,,,,,,,00047,001,2026-01-18_12h29.07.522,MST_test,2024.2.0,59.78058136062168,2026-01-18 12h29.20.392237 +0530,
92,0,93,o,1.1610675999545492,None,93,0,92,274.7648468000116,,,,,,,,,,,,,,,,,,,,,,,,,,,,,,,,,,,,,,,,,,,,,,,,,,274.74856749997707,274.7648468000116,275.2496926999884,275.252305699978,275.26645150000695,275.26645150000695,275.26645150000695,276.4377535000094,Objects\089a.jpg,pre,o,1.1610675999545492,None,,,,,,,,00047,001,2026-01-18_12h29.07.522,MST_test,2024.2.0,59.78058136062168,2026-01-18 12h29.20.392237 +0530,
93,0,94,s,2.1203623000183143,None,94,0,93,276.45381540001836,,,,,,,,,,,,,,,,,,,,,,,,,,,,,,,,,,,,,,,,,,,,,,,,,,276.43785479996586,276.45381540001836,276.9391827000072,276.953972599993,276.9727969999658,276.9727969999658,276.9727969999658,279.0970882999827,Objects\324b.jpg,pre,s,2.1203623000183143,None,,,,,,,,00047,001,2026-01-18_12h29.07.522,MST_test,2024.2.0,59.78058136062168,2026-01-18 12h29.20.392237 +0530,
94,0,95,o,1.1711959999520332,None,95,0,94,279.1132750000106,,,,,,,,,,,,,,,,,,,,,,,,,,,,,,,,,,,,,,,,,,,,,,,,,,279.0971879999852,279.1132750000106,279.5983343999833,279.61224459996447,279.63237880001543,279.63237880001543,279.63237880001543,280.81978069996694,Objects\224b.jpg,post,o,1.1711959999520332,None,,,,,,,,00047,001,2026-01-18_12h29.07.522,MST_test,2024.2.0,59.78058136062168,2026-01-18 12h29.20.392237 +0530,
95,0,96,n,3.2813553999876603,None,96,0,95,280.8360109999776,,,,,,,,,,,,,,,,,,,,,,,,,,,,,,,,,,,,,,,,,,,,,,,,,,280.8198778000078,280.8360109999776,281.3211917000008,281.3368190000183,281.3544926000177,281.3544926000177,281.3544926000177,284.6498801999842,Foils\034a.jpg,none,n,3.2813553999876603,None,,,,,,,,00047,001,2026-01-18_12h29.07.522,MST_test,2024.2.0,59.78058136062168,2026-01-18 12h29.20.392237 +0530,
96,0,97,o,1.6442632999969646,None,97,0,96,284.66605559998425,,,,,,,,,,,,,,,,,,,,,,,,,,,,,,,,,,,,,,,,,,,,,,,,,,284.6501157999737,284.66605559998425,285.1512822000077,285.15895690000616,285.1845403999905,285.1845403999905,285.1845403999905,286.8408975999919,Objects\306a.jpg,pre,o,1.6442632999969646,None,,,,,,,,00047,001,2026-01-18_12h29.07.522,MST_test,2024.2.0,59.78058136062168,2026-01-18 12h29.20.392237 +0530,
97,0,98,n,1.6121791999903508,None,98,0,97,286.8570921999635,,,,,,,,,,,,,,,,,,,,,,,,,,,,,,,,,,,,,,,,,,,,,,,,,,286.84099050000077,286.8570921999635,287.3423033999861,287.357196500001,287.375549599994,287.375549599994,287.375549599994,288.9983571000048,Foils\020b.jpg,none,n,1.6121791999903508,None,,,,,,,,00047,001,2026-01-18_12h29.07.522,MST_test,2024.2.0,59.78058136062168,2026-01-18 12h29.20.392237 +0530,
98,0,99,o,3.327823600033298,None,99,0,98,289.01469320000615,,,,,,,,,,,,,,,,,,,,,,,,,,,,,,,,,,,,,,,,,,,,,,,,,,288.9984478999977,289.01469320000615,289.49974449997535,289.5023124999716,289.51653399999486,289.51653399999486,289.51653399999486,292.8455059999833,Objects\078a.jpg,post,o,3.327823600033298,None,,,,,,,,00047,001,2026-01-18_12h29.07.522,MST_test,2024.2.0,59.78058136062168,2026-01-18 12h29.20.392237 +0530,
99,0,100,s,1.4738432000158355,None,100,0,99,292.8615440999856,,,,,,,,,,,,,,,,,,,,,,,,,,,,,,,,,,,,,,,,,,,,,,,,,,292.84559919999447,292.8615440999856,293.34653509996133,293.35315639997134,293.3621265999973,293.3621265999973,293.3621265999973,294.8521564999828,Objects\338a.jpg,post,s,1.4738432000158355,None,,,,,,,,00047,001,2026-01-18_12h29.07.522,MST_test,2024.2.0,59.78058136062168,2026-01-18 12h29.20.392237 +0530,
100,0,101,s,1.0564946999656968,None,101,0,100,294.86828019999666,,,,,,,,,,,,,,,,,,,,,,,,,,,,,,,,,,,,,,,,,,,,,,,,,,294.8522490999894,294.86828019999666,295.35351240000455,295.36832060001325,295.38677270000335,295.38677270000335,295.38677270000335,296.4580228999839,Objects\333b.jpg,pre,s,1.0564946999656968,None,,,,,,,,00047,001,2026-01-18_12h29.07.522,MST_test,2024.2.0,59.78058136062168,2026-01-18 12h29.20.392237 +0530,
101,0,102,o,1.1878876999835484,None,102,0,101,296.47415279998677,,,,,,,,,,,,,,,,,,,,,,,,,,,,,,,,,,,,,,,,,,,,,,,,,,296.4581162999966,296.47415279998677,296.9591339000035,296.9750098999939,296.9926339999656,296.9926339999656,296.9926339999656,298.19713429996045,Objects\149b.jpg,mid,o,1.1878876999835484,None,,,,,,,,00047,001,2026-01-18_12h29.07.522,MST_test,2024.2.0,59.78058136062168,2026-01-18 12h29.20.392237 +0530,
102,0,103,o,1.136447400029283,None,103,0,102,298.2133555000182,,,,,,,,,,,,,,,,,,,,,,,,,,,,,,,,,,,,,,,,,,,,,,,,,,298.19724219996715,298.2133555000182,298.6985380999977,298.70117740001297,298.71525209996616,298.71525209996616,298.71525209996616,299.8537453999743,Objects\005a.jpg,mid,o,1.136447400029283,None,,,,,,,,00047,001,2026-01-18_12h29.07.522,MST_test,2024.2.0,59.78058136062168,2026-01-18 12h29.20.392237 +0530,
103,0,104,o,1.28897059999872,None,104,0,103,299.8693690999644,,,,,,,,,,,,,,,,,,,,,,,,,,,,,,,,,,,,,,,,,,,,,,,,,,299.8538577000145,299.8693690999644,300.3542784000165,300.3568912000046,300.37112719996367,300.37112719996367,300.37112719996367,301.6762598999776,Objects\154a.jpg,mid,o,1.28897059999872,None,,,,,,,,00047,001,2026-01-18_12h29.07.522,MST_test,2024.2.0,59.78058136062168,2026-01-18 12h29.20.392237 +0530,
104,0,105,o,0.7387979000341147,None,105,0,104,301.69237239996437,,,,,,,,,,,,,,,,,,,,,,,,,,,,,,,,,,,,,,,,,,,,,,,,,,301.6763569000177,301.69237239996437,302.17755159997614,302.1802088000113,302.19409429997904,302.19409429997904,302.19409429997904,302.9473569999682,Objects\029a.jpg,post,o,0.7387979000341147,None,,,,,,,,00047,001,2026-01-18_12h29.07.522,MST_test,2024.2.0,59.78058136062168,2026-01-18 12h29.20.392237 +0530,
105,0,106,o,0.6990737000014633,None,106,0,105,302.9634708999656,,,,,,,,,,,,,,,,,,,,,,,,,,,,,,,,,,,,,,,,,,,,,,,,,,302.9474548000144,302.9634708999656,303.44868069997756,303.45138290000614,303.4652366999653,303.4652366999653,303.4652366999653,304.16810939996503,Objects\070a.jpg,pre,o,0.6990737000014633,None,,,,,,,,00047,001,2026-01-18_12h29.07.522,MST_test,2024.2.0,59.78058136062168,2026-01-18 12h29.20.392237 +0530,
106,0,107,s,1.3902817000052892,None,107,0,106,304.1845853999839,,,,,,,,,,,,,,,,,,,,,,,,,,,,,,,,,,,,,,,,,,,,,,,,,,304.16820169996936,304.1845853999839,304.66951300000073,304.6792844000156,304.7030181000009,304.7030181000009,304.7030181000009,306.1083145000157,Objects\237b.jpg,post,s,1.3902817000052892,None,,,,,,,,00047,001,2026-01-18_12h29.07.522,MST_test,2024.2.0,59.78058136062168,2026-01-18 12h29.20.392237 +0530,
107,0,108,s,1.409028899972327,None,108,0,107,306.1246635999996,,,,,,,,,,,,,,,,,,,,,,,,,,,,,,,,,,,,,,,,,,,,,,,,,,306.10840470000403,306.1246635999996,306.60964320000494,306.62517839996144,306.6431917999871,306.6431917999871,306.6431917999871,308.06509310001275,Objects\360b.jpg,pre,s,1.409028899972327,None,,,,,,,,00047,001,2026-01-18_12h29.07.522,MST_test,2024.2.0,59.78058136062168,2026-01-18 12h29.20.392237 +0530,
108,0,109,s,1.4362385999993421,None,109,0,108,308.081588800007,,,,,,,,,,,,,,,,,,,,,,,,,,,,,,,,,,,,,,,,,,,,,,,,,,308.06518699997105,308.081588800007,308.5664879999822,308.58129239996197,308.5999899000162,308.5999899000162,308.5999899000162,310.0387245999882,Objects\204b.jpg,post,s,1.4362385999993421,None,,,,,,,,00047,001,2026-01-18_12h29.07.522,MST_test,2024.2.0,59.78058136062168,2026-01-18 12h29.20.392237 +0530,
109,0,110,s,1.18304580001859,None,110,0,109,310.0549611999886,,,,,,,,,,,,,,,,,,,,,,,,,,,,,,,,,,,,,,,,,,,,,,,,,,310.0388335000025,310.0549611999886,310.5404336999636,310.54310419998365,310.556566299987,310.556566299987,310.556566299987,311.7446434000158,Objects\123a.jpg,pre,s,1.18304580001859,None,,,,,,,,00047,001,2026-01-18_12h29.07.522,MST_test,2024.2.0,59.78058136062168,2026-01-18 12h29.20.392237 +0530,
110,0,111,s,1.4124401999870315,None,111,0,110,311.7607710000011,,,,,,,,,,,,,,,,,,,,,,,,,,,,,,,,,,,,,,,,,,,,,,,,,,311.74474049999844,311.7607710000011,312.2461601999821,312.2555853999802,312.27925590000814,312.27925590000814,312.27925590000814,313.70172259997344,Objects\008b.jpg,pre,s,1.4124401999870315,None,,,,,,,,00047,001,2026-01-18_12h29.07.522,MST_test,2024.2.0,59.78058136062168,2026-01-18 12h29.20.392237 +0530,
111,0,112,o,1.4163530999794602,None,112,0,111,313.7176555999904,,,,,,,,,,,,,,,,,,,,,,,,,,,,,,,,,,,,,,,,,,,,,,,,,,313.70181260001846,313.7176555999904,314.20283329999074,314.2118795000133,314.23611739999615,314.23611739999615,314.23611739999615,315.6588715999969,Objects\138b.jpg,mid,o,1.4163530999794602,None,,,,,,,,00047,001,2026-01-18_12h29.07.522,MST_test,2024.2.0,59.78058136062168,2026-01-18 12h29.20.392237 +0530,
112,0,113,s,1.2345722000463866,None,113,0,112,315.67449890001444,,,,,,,,,,,,,,,,,,,,,,,,,,,,,,,,,,,,,,,,,,,,,,,,,,315.65896339999745,315.67449890001444,316.1598079999676,316.16896390001057,316.1930892000091,316.1930892000091,316.1930892000091,317.43140249996213,Objects\024b.jpg,mid,s,1.2345722000463866,None,,,,,,,,00047,001,2026-01-18_12h29.07.522,MST_test,2024.2.0,59.78058136062168,2026-01-18 12h29.20.392237 +0530,
113,0,114,n,2.877845899958629,None,114,0,113,317.4476447000052,,,,,,,,,,,,,,,,,,,,,,,,,,,,,,,,,,,,,,,,,,,,,,,,,,317.4314948999672,317.4476447000052,317.93244720000075,317.942502699967,317.96583659999305,317.96583659999305,317.96583659999305,320.86003689997597,Foils\002a.jpg,none,n,2.877845899958629,None,,,,,,,,00047,001,2026-01-18_12h29.07.522,MST_test,2024.2.0,59.78058136062168,2026-01-18 12h29.20.392237 +0530,
114,0,115,o,1.1131332999793813,None,115,0,114,320.8760226999875,,,,,,,,,,,,,,,,,,,,,,,,,,,,,,,,,,,,,,,,,,,,,,,,,,320.860130999994,320.8760226999875,321.36127749999287,321.37098910001805,321.3945117999683,321.3945117999683,321.3945117999683,322.5161651999806,Objects\166b.jpg,mid,o,1.1131332999793813,None,,,,,,,,00047,001,2026-01-18_12h29.07.522,MST_test,2024.2.0,59.78058136062168,2026-01-18 12h29.20.392237 +0530,
115,0,116,s,1.4341326999710873,None,116,0,115,322.53183849999914,,,,,,,,,,,,,,,,,,,,,,,,,,,,,,,,,,,,,,,,,,,,,,,,,,322.5162565999781,322.53183849999914,323.01721079996787,323.02699119999306,323.0503466000082,323.0503466000082,323.0503466000082,324.489396399993,Objects\188b.jpg,mid,s,1.4341326999710873,None,,,,,,,,00047,001,2026-01-18_12h29.07.522,MST_test,2024.2.0,59.78058136062168,2026-01-18 12h29.20.392237 +0530,
116,0,117,o,1.211794699949678,None,117,0,116,324.5065850999672,,,,,,,,,,,,,,,,,,,,,,,,,,,,,,,,,,,,,,,,,,,,,,,,,,324.4894895000034,324.5065850999672,324.99093329999596,325.0017321999767,325.02405030000955,325.02405030000955,325.02405030000955,326.24584469996626,Objects\003b.jpg,pre,o,1.211794699949678,None,,,,,,,,00047,001,2026-01-18_12h29.07.522,MST_test,2024.2.0,59.78058136062168,2026-01-18 12h29.20.392237 +0530,
117,0,118,s,1.2737004000227898,None,118,0,117,326.2622258999618,,,,,,,,,,,,,,,,,,,,,,,,,,,,,,,,,,,,,,,,,,,,,,,,,,326.2459387999843,326.2622258999618,326.74693289998686,326.75355429999763,326.762563199969,326.762563199969,326.762563199969,328.0518537000171,Objects\365a.jpg,pre,s,1.2737004000227898,None,,,,,,,,00047,001,2026-01-18_12h29.07.522,MST_test,2024.2.0,59.78058136062168,2026-01-18 12h29.20.392237 +0530,
118,0,119,s,1.3053753999993205,None,119,0,118,328.06805960001657,,,,,,,,,,,,,,,,,,,,,,,,,,,,,,,,,,,,,,,,,,,,,,,,,,328.05194879998453,328.06805960001657,328.55316529999254,328.5698253000155,328.58691089996137,328.58691089996137,328.58691089996137,329.9089316999889,Objects\129b.jpg,mid,s,1.3053753999993205,None,,,,,,,,00047,001,2026-01-18_12h29.07.522,MST_test,2024.2.0,59.78058136062168,2026-01-18 12h29.20.392237 +0530,
119,0,120,o,1.1285651999642141,None,120,0,119,329.92548490001354,,,,,,,,,,,,,,,,,,,,,,,,,,,,,,,,,,,,,,,,,,,,,,,,,,329.9090301999822,329.92548490001354,330.4097985000117,330.4197128000087,330.4429414999904,330.4429414999904,330.4429414999904,331.5816162999836,Objects\072b.jpg,post,o,1.1285651999642141,None,,,,,,,,00047,001,2026-01-18_12h29.07.522,MST_test,2024.2.0,59.78058136062168,2026-01-18 12h29.20.392237 +0530,
120,0,121,o,1.0093645000015385,None,121,0,120,331.5971772999619,,,,,,,,,,,,,,,,,,,,,,,,,,,,,,,,,,,,,,,,,,,,,,,,,,331.5817131999647,331.5971772999619,332.0820355999749,332.0848682000069,332.09877460001735,332.09877460001735,332.09877460001735,333.1194158999715,Objects\168a.jpg,pre,o,1.0093645000015385,None,,,,,,,,00047,001,2026-01-18_12h29.07.522,MST_test,2024.2.0,59.78058136062168,2026-01-18 12h29.20.392237 +0530,
121,0,122,s,1.6228756000055,None,122,0,121,333.1359111999627,,,,,,,,,,,,,,,,,,,,,,,,,,,,,,,,,,,,,,,,,,,,,,,,,,333.1195108999964,333.1359111999627,333.62077899998985,333.623477599991,333.63737499999115,333.63737499999115,333.63737499999115,335.26137680001557,Objects\225a.jpg,mid,s,1.6228756000055,None,,,,,,,,00047,001,2026-01-18_12h29.07.522,MST_test,2024.2.0,59.78058136062168,2026-01-18 12h29.20.392237 +0530,
122,0,123,n,1.5296510999905877,None,123,0,122,335.2764792999951,,,,,,,,,,,,,,,,,,,,,,,,,,,,,,,,,,,,,,,,,,,,,,,,,,335.26147179998225,335.2764792999951,335.7616685999674,335.7712373000104,335.7949357999605,335.7949357999605,335.7949357999605,337.3341848999844,Objects\341b.jpg,pre,n,1.5296510999905877,None,,,,,,,,00047,001,2026-01-18_12h29.07.522,MST_test,2024.2.0,59.78058136062168,2026-01-18 12h29.20.392237 +0530,
123,0,124,o,0.9838367999764159,None,124,0,123,337.3505101999617,,,,,,,,,,,,,,,,,,,,,,,,,,,,,,,,,,,,,,,,,,,,,,,,,,337.33427739999024,337.3505101999617,337.8355964999646,337.84303779999027,337.8515332000097,337.8515332000097,337.8515332000097,338.83962400001474,Objects\284a.jpg,pre,o,0.9838367999764159,None,,,,,,,,00047,001,2026-01-18_12h29.07.522,MST_test,2024.2.0,59.78058136062168,2026-01-18 12h29.20.392237 +0530,
124,0,125,o,1.69362600002205,None,125,0,124,338.85577829997055,,,,,,,,,,,,,,,,,,,,,,,,,,,,,,,,,,,,,,,,,,,,,,,,,,338.83971859997837,338.85577829997055,339.3408934000181,339.3564946000115,339.3742460999638,339.3742460999638,339.3742460999638,341.08117640001,Objects\159b.jpg,mid,o,1.69362600002205,None,,,,,,,,00047,001,2026-01-18_12h29.07.522,MST_test,2024.2.0,59.78058136062168,2026-01-18 12h29.20.392237 +0530,
125,0,126,o,0.7501430999836884,None,126,0,125,341.09689619997516,,,,,,,,,,,,,,,,,,,,,,,,,,,,,,,,,,,,,,,,,,,,,,,,,,341.08127460000105,341.09689619997516,341.5821897999849,341.58937709999736,341.5981840000022,341.5981840000022,341.5981840000022,342.35266629996477,Objects\348a.jpg,pre,o,0.7501430999836884,None,,,,,,,,00047,001,2026-01-18_12h29.07.522,MST_test,2024.2.0,59.78058136062168,2026-01-18 12h29.20.392237 +0530,
126,0,127,s,1.2847859000321478,None,127,0,126,342.36826680001104,,,,,,,,,,,,,,,,,,,,,,,,,,,,,,,,,,,,,,,,,,,,,,,,,,342.3527585999691,342.36826680001104,342.8532145000063,342.8667431999929,342.8867431000108,342.8867431000108,342.8867431000108,344.1752623000066,Objects\287b.jpg,mid,s,1.2847859000321478,None,,,,,,,,00047,001,2026-01-18_12h29.07.522,MST_test,2024.2.0,59.78058136062168,2026-01-18 12h29.20.392237 +0530,
127,0,128,o,0.9590183999971487,None,128,0,127,344.1913165000151,,,,,,,,,,,,,,,,,,,,,,,,,,,,,,,,,,,,,,,,,,,,,,,,,,344.1753613000037,344.1913165000151,344.6762693999917,344.68446059996495,344.70977469999343,344.70977469999343,344.70977469999343,345.68037770001683,Objects\023a.jpg,pre,o,0.9590183999971487,None,,,,,,,,00047,001,2026-01-18_12h29.07.522,MST_test,2024.2.0,59.78058136062168,2026-01-18 12h29.20.392237 +0530,
128,0,129,s,1.300913999963086,None,129,0,128,345.69643860001815,,,,,,,,,,,,,,,,,,,,,,,,,,,,,,,,,,,,,,,,,,,,,,,,,,345.6804773999611,345.69643860001815,346.18167069996707,346.1958376999828,346.2149308999651,346.2149308999651,346.2149308999651,347.5199741999968,Objects\361b.jpg,mid,s,1.300913999963086,None,,,,,,,,00047,001,2026-01-18_12h29.07.522,MST_test,2024.2.0,59.78058136062168,2026-01-18 12h29.20.392237 +0530,
129,0,130,s,0.9103657999658026,None,130,0,129,347.5363675999688,,,,,,,,,,,,,,,,,,,,,,,,,,,,,,,,,,,,,,,,,,,,,,,,,,347.5200690999627,347.5363675999688,348.0213272999972,348.02838839998003,348.0373416999937,348.0373416999937,348.0373416999937,348.95840519998455,Objects\252a.jpg,post,s,0.9103657999658026,None,,,,,,,,00047,001,2026-01-18_12h29.07.522,MST_test,2024.2.0,59.78058136062168,2026-01-18 12h29.20.392237 +0530,
130,0,131,o,1.127130999986548,None,131,0,130,348.97470259998227,,,,,,,,,,,,,,,,,,,,,,,,,,,,,,,,,,,,,,,,,,,,,,,,,,348.9585005000117,348.97470259998227,349.4596847000066,349.4624036999885,349.4764757999801,349.4764757999801,349.4764757999801,350.61433879996184,Objects\183a.jpg,post,o,1.127130999986548,None,,,,,,,,00047,001,2026-01-18_12h29.07.522,MST_test,2024.2.0,59.78058136062168,2026-01-18 12h29.20.392237 +0530,
131,0,132,s,1.4714275999576785,None,132,0,131,350.6304222000181,,,,,,,,,,,,,,,,,,,,,,,,,,,,,,,,,,,,,,,,,,,,,,,,,,350.61443479999434,350.6304222000181,351.11559960001614,351.1248642000137,351.14892969996436,351.14892969996436,351.14892969996436,352.62150790001033,Objects\146b.jpg,mid,s,1.4714275999576785,None,,,,,,,,00047,001,2026-01-18_12h29.07.522,MST_test,2024.2.0,59.78058136062168,2026-01-18 12h29.20.392237 +0530,
132,0,133,n,1.471617100003641,None,133,0,132,352.63749629998347,,,,,,,,,,,,,,,,,,,,,,,,,,,,,,,,,,,,,,,,,,,,,,,,,,352.6216026999755,352.63749629998347,353.1224998999969,353.131613000005,353.156047699973,353.156047699973,353.156047699973,354.6283171999967,Foils\049a.jpg,none,n,1.471617100003641,None,,,,,,,,00047,001,2026-01-18_12h29.07.522,MST_test,2024.2.0,59.78058136062168,2026-01-18 12h29.20.392237 +0530,
133,0,134,s,2.106076900032349,None,134,0,133,354.64445510000223,,,,,,,,,,,,,,,,,,,,,,,,,,,,,,,,,,,,,,,,,,,,,,,,,,354.6284103000071,354.64445510000223,355.12966939999023,355.1323112999671,355.1463472999749,355.1463472999749,355.1463472999749,357.2541711999802,Objects\111a.jpg,post,s,2.106076900032349,None,,,,,,,,00047,001,2026-01-18_12h29.07.522,MST_test,2024.2.0,59.78058136062168,2026-01-18 12h29.20.392237 +0530,
134,0,135,n,1.4881449000095017,None,135,0,134,357.2704302999773,,,,,,,,,,,,,,,,,,,,,,,,,,,,,,,,,,,,,,,,,,,,,,,,,,357.25428310001735,357.2704302999773,357.755379499984,357.76458789996104,357.78882299998077,357.78882299998077,357.78882299998077,359.2777042000089,Foils\026a.jpg,none,n,1.4881449000095017,None,,,,,,,,00047,001,2026-01-18_12h29.07.522,MST_test,2024.2.0,59.78058136062168,2026-01-18 12h29.20.392237 +0530,
135,0,136,o,1.361103200004436,None,136,0,135,359.29403980000643,,,,,,,,,,,,,,,,,,,,,,,,,,,,,,,,,,,,,,,,,,,,,,,,,,359.2777977999649,359.29403980000643,359.77929159998894,359.7818755999906,359.795831299969,359.795831299969,359.795831299969,361.1679074999993,Objects\028a.jpg,mid,o,1.361103200004436,None,,,,,,,,00047,001,2026-01-18_12h29.07.522,MST_test,2024.2.0,59.78058136062168,2026-01-18 12h29.20.392237 +0530,
136,0,137,n,1.652945899986662,None,137,0,136,361.1838604999939,,,,,,,,,,,,,,,,,,,,,,,,,,,,,,,,,,,,,,,,,,,,,,,,,,361.1679981999914,361.1838604999939,361.66906200000085,361.6785312999855,361.7023479999625,361.7023479999625,361.7023479999625,363.35896709997905,Foils\058a.jpg,none,n,1.652945899986662,None,,,,,,,,00047,001,2026-01-18_12h29.07.522,MST_test,2024.2.0,59.78058136062168,2026-01-18 12h29.20.392237 +0530,
137,0,138,o,1.2388997999951243,None,138,0,137,363.37485779996496,,,,,,,,,,,,,,,,,,,,,,,,,,,,,,,,,,,,,,,,,,,,,,,,,,363.35906049999176,363.37485779996496,363.8600585999666,363.86968479998177,363.89340000000084,363.89340000000084,363.89340000000084,365.14840060001006,Objects\203a.jpg,pre,o,1.2388997999951243,None,,,,,,,,00047,001,2026-01-18_12h29.07.522,MST_test,2024.2.0,59.78058136062168,2026-01-18 12h29.20.392237 +0530,
138,0,139,n,1.7285567999933846,None,139,0,138,365.16446389997145,,,,,,,,,,,,,,,,,,,,,,,,,,,,,,,,,,,,,,,,,,,,,,,,,,365.14849089999916,365.16446389997145,365.64992349996464,365.66584370000055,365.6829347999883,365.6829347999883,365.6829347999883,367.423103899986,Objects\282b.jpg,pre,n,1.7285567999933846,None,,,,,,,,00047,001,2026-01-18_12h29.07.522,MST_test,2024.2.0,59.78058136062168,2026-01-18 12h29.20.392237 +0530,
139,0,140,o,1.094612600049004,None,140,0,139,367.4392028999864,,,,,,,,,,,,,,,,,,,,,,,,,,,,,,,,,,,,,,,,,,,,,,,,,,367.4232076999615,367.4392028999864,367.9241764000035,367.9327349999803,367.9577144999639,367.9577144999639,367.9577144999639,369.06214930000715,Objects\300a.jpg,post,o,1.094612600049004,None,,,,,,,,00047,001,2026-01-18_12h29.07.522,MST_test,2024.2.0,59.78058136062168,2026-01-18 12h29.20.392237 +0530,
140,0,141,o,1.089674599992577,None,141,0,140,369.07827990001533,,,,,,,,,,,,,,,,,,,,,,,,,,,,,,,,,,,,,,,,,,,,,,,,,,369.06224220001604,369.07827990001533,369.563358000014,369.5697994999937,369.5799874999793,369.5799874999793,369.5799874999793,370.6845162999816,Objects\199a.jpg,post,o,1.089674599992577,None,,,,,,,,00047,001,2026-01-18_12h29.07.522,MST_test,2024.2.0,59.78058136062168,2026-01-18 12h29.20.392237 +0530,
141,0,142,o,0.8408063999959268,None,142,0,141,370.70062869996764,,,,,,,,,,,,,,,,,,,,,,,,,,,,,,,,,,,,,,,,,,,,,,,,,,370.6846081999829,370.70062869996764,371.1856134000118,371.20223719999194,371.21911289996933,371.21911289996933,371.21911289996933,372.0726998000173,Objects\103b.jpg,mid,o,0.8408063999959268,None,,,,,,,,00047,001,2026-01-18_12h29.07.522,MST_test,2024.2.0,59.78058136062168,2026-01-18 12h29.20.392237 +0530,
142,0,143,o,1.2601046999916434,None,143,0,142,372.08894220000366,,,,,,,,,,,,,,,,,,,,,,,,,,,,,,,,,,,,,,,,,,,,,,,,,,372.0727949999855,372.08894220000366,372.5738562999759,372.58295090001775,372.60730119998334,372.60730119998334,372.60730119998334,373.87909780000336,Objects\094b.jpg,pre,o,1.2601046999916434,None,,,,,,,,00047,001,2026-01-18_12h29.07.522,MST_test,2024.2.0,59.78058136062168,2026-01-18 12h29.20.392237 +0530,
143,0,144,s,1.4145547000225633,None,144,0,143,373.89504129998386,,,,,,,,,,,,,,,,,,,,,,,,,,,,,,,,,,,,,,,,,,,,,,,,,,373.87919120001607,373.89504129998386,374.3803408999811,374.3901323999744,374.4135154999676,374.4135154999676,374.4135154999676,375.8359064999968,Foils\073a.jpg,none,s,1.4145547000225633,None,,,,,,,,00047,001,2026-01-18_12h29.07.522,MST_test,2024.2.0,59.78058136062168,2026-01-18 12h29.20.392237 +0530,
144,0,145,o,1.8332832000451162,None,145,0,144,375.8518904999946,,,,,,,,,,,,,,,,,,,,,,,,,,,,,,,,,,,,,,,,,,,,,,,,,,375.8360093999654,375.8518904999946,376.3371012000134,376.3465286999708,376.37036040000385,376.37036040000385,376.37036040000385,378.2108772000065,Objects\140b.jpg,pre,o,1.8332832000451162,None,,,,,,,,00047,001,2026-01-18_12h29.07.522,MST_test,2024.2.0,59.78058136062168,2026-01-18 12h29.20.392237 +0530,
145,0,146,n,1.2981597000034526,None,146,0,145,378.2268643999705,,,,,,,,,,,,,,,,,,,,,,,,,,,,,,,,,,,,,,,,,,,,,,,,,,378.210970599961,378.2268643999705,378.7120585999801,378.7212549999822,378.74533499998506,378.74533499998506,378.74533499998506,380.0509183999966,Foils\074a.jpg,none,n,1.2981597000034526,None,,,,,,,,00047,001,2026-01-18_12h29.07.522,MST_test,2024.2.0,59.78058136062168,2026-01-18 12h29.20.392237 +0530,
146,0,147,o,0.9394869999960065,None,147,0,146,380.06676189997233,,,,,,,,,,,,,,,,,,,,,,,,,,,,,,,,,,,,,,,,,,,,,,,,,,380.0510188000044,380.06676189997233,380.5517645999789,380.5554080000147,380.56850230001146,380.56850230001146,380.56850230001146,381.52230419998523,Objects\027a.jpg,mid,o,0.9394869999960065,None,,,,,,,,00047,001,2026-01-18_12h29.07.522,MST_test,2024.2.0,59.78058136062168,2026-01-18 12h29.20.392237 +0530,
147,0,148,n,2.756441400037147,None,148,0,147,381.5387095999904,,,,,,,,,,,,,,,,,,,,,,,,,,,,,,,,,,,,,,,,,,,,,,,,,,381.52239729999565,381.5387095999904,382.0237168999738,382.02648699999554,382.04051099997014,382.04051099997014,382.04051099997014,384.80050249997294,Objects\036a.jpg,mid,n,2.756441400037147,None,,,,,,,,00047,001,2026-01-18_12h29.07.522,MST_test,2024.2.0,59.78058136062168,2026-01-18 12h29.20.392237 +0530,
148,0,149,s,1.2921441000071354,None,149,0,148,384.8169016999891,,,,,,,,,,,,,,,,,,,,,,,,,,,,,,,,,,,,,,,,,,,,,,,,,,384.800601099967,384.8169016999891,385.3018792999792,385.31416449998505,385.3354796000058,385.3354796000058,385.3354796000058,386.6401349999942,Objects\124b.jpg,post,s,1.2921441000071354,None,,,,,,,,00047,001,2026-01-18_12h29.07.522,MST_test,2024.2.0,59.78058136062168,2026-01-18 12h29.20.392237 +0530,
149,0,150,s,0.8278319999808446,None,150,0,149,386.65655539999716,,,,,,,,,,,,,,,,,,,,,,,,,,,,,,,,,,,,,,,,,,,,,,,,,,386.64023109996924,386.65655539999716,387.1416822000174,387.15284059999976,387.17616530001396,387.17616530001396,387.17616530001396,388.0118853999884,Objects\303a.jpg,pre,s,0.8278319999808446,None,,,,,,,,00047,001,2026-01-18_12h29.07.522,MST_test,2024.2.0,59.78058136062168,2026-01-18 12h29.20.392237 +0530,
,,,,,,,,,,,,,,,,,,,,,,,,,,,,,,,,,,,,,,,,,,,,,,,,,,,,,,,,,,,,,,,,,,,,,,,,388.0119536999846,388.0280418000184,388.0280418000184,389.483623099979,space,1.4403671999461949,None,00047,001,2026-01-18_12h29.07.522,MST_test,2024.2.0,59.78058136062168,2026-01-18 12h29.20.392237 +0530,
