Sl_no,image_path,thisN,thisTrialN,thisRepN,key_resp_5.keys,key_resp_5.rt,key_resp_5.duration,key_resp_7.keys,key_resp_7.rt,key_resp_7.duration,key_resp_9.keys,key_resp_9.rt,key_resp_9.duration,key_resp_8.keys,key_resp_8.rt,key_resp_8.duration,practice.thisRepN,practice.thisTrialN,practice.thisN,trials.thisRepN,trials.thisTrialN,trials.thisN,thisRow.t,notes,welcome_page.started,text.started,key_resp.started,welcome_page.stopped,key_resp.keys,key_resp.rt,key_resp.duration,instructions.started,ins.started,key_resp_2.started,instructions.stopped,key_resp_2.keys,key_resp_2.rt,key_resp_2.duration,objects_only_instruction.started,text_3.started,key_resp_3.started,objects_only_instruction.stopped,key_resp_3.keys,key_resp_3.rt,key_resp_3.duration,ISI.started,text_4.started,ISI.stopped,practice_block.started,image.started,key_resp_5.started,text_5.started,practice_block.stopped,practice.key_resp_5.keys,practice.key_resp_5.rt,practice.key_resp_5.duration,indoor_outdoor.started,indoor_outdoor.stopped,practice.key_resp_7.keys,text_7.started,key_resp_7.started,practice.key_resp_7.rt,practice.key_resp_7.duration,practice_to_main.started,text_2.started,key_resp_4.started,practice_to_main.stopped,key_resp_4.keys,key_resp_4.rt,key_resp_4.duration,objects.started,image_2.started,text_9.started,key_resp_9.started,objects.stopped,category,trials.key_resp_9.keys,trials.key_resp_9.rt,trials.key_resp_9.duration,encoding_task.started,encoding_task.stopped,trials.key_resp_8.keys,text_4.stopped,text_8.started,key_resp_8.started,trials.key_resp_8.rt,trials.key_resp_8.duration,end_experiment.started,text_6.started,key_resp_6.started,end_experiment.stopped,key_resp_6.keys,key_resp_6.rt,key_resp_6.duration,list_of_stimuli,encoding_task_accuracy,participant,session,date,expName,psychopyVersion,frameRate,expStart,
,,,,,,,,,,,,,,,,,,,,,,,,,0.0184488000231795,0.034834899997804314,0.034834899997804314,14.088803399994504,space,14.05055570002878,None,,,,,,,,,,,,,,,,,,,,,,,,,,,,,,,,,,,,,,,,,,,,,,,,,,,,,,,,,,,,,,,,,,00048,001,2026-01-18_12h44.08.666,MST_task,2024.2.0,60.14932670715276,2026-01-18 12h44.21.999051 +0530,
,,,,,,,,,,,,,,,,,,,,,,,,,,,,,,,,14.088837300019804,14.102430100028869,14.102430100028869,42.419280499976594,space,28.31060789996991,None,,,,,,,,,,,,,,,,,,,,,,,,,,,,,,,,,,,,,,,,,,,,,,,,,,,,,,,,,,,00048,001,2026-01-18_12h44.08.666,MST_task,2024.2.0,60.14932670715276,2026-01-18 12h44.21.999051 +0530,
,,,,,,,,,,,,,,,,,,,,,,,,,,,,,,,,,,,,,,,42.419319099979475,42.43439920002129,42.43439920002129,52.88890409999294,space,10.450749100011308,None,,,,,,,,,,,,,,,,,,,,,,,,,,,,,,,,,,,,,,,,,,,,,,,,,,,,00048,001,2026-01-18_12h44.08.666,MST_task,2024.2.0,60.14932670715276,2026-01-18 12h44.21.999051 +0530,
10,practice_images/182a.jpg,0,0,1,f,2.3182731000124477,0.1516721000079997,None,,,,,,,,,1,0,0,,,,52.90514460002305,,,,,,,,,,,,,,,,,,,,,,,52.89303039998049,52.90514460002305,53.39027779997559,53.40067140001338,53.4070046999841,53.4070046999841,53.4070046999841,56.400662200001534,f,2.3182731000124477,0.1516721000079997,56.401921099983156,56.401940000010654,None,,,,,,,,,,,,,,,,,,,,,,,,,,,,,,,,,,,,,,00048,001,2026-01-18_12h44.08.666,MST_task,2024.2.0,60.14932670715276,2026-01-18 12h44.21.999051 +0530,
4,practice_images/002b.jpg,1,1,1,j,2.6543620000011288,0.14343479997478426,None,,,,,,,,,1,1,1,,,,56.41745730000548,,,,,,,,,,,,,,,,,,,,,,,56.402565800002776,56.41745730000548,56.90230940002948,56.90418910002336,56.91919450002024,56.91919450002024,56.91919450002024,59.91294549999293,j,2.6543620000011288,0.14343479997478426,59.912981699977536,59.91300479997881,None,,,,,,,,,,,,,,,,,,,,,,,,,,,,,,,,,,,,,,00048,001,2026-01-18_12h44.08.666,MST_task,2024.2.0,60.14932670715276,2026-01-18 12h44.21.999051 +0530,
9,practice_images/180a.jpg,2,2,1,j,2.2212609000271186,0.1442234999849461,None,,,,,,,,,1,2,2,,,,59.92986530001508,,,,,,,,,,,,,,,,,,,,,,,59.913071000017226,59.92986530001508,60.41470590000972,60.41635600000154,60.43148349999683,60.43148349999683,60.43148349999683,63.42529869999271,j,2.2212609000271186,0.1442234999849461,63.425350499979686,63.425367999996524,None,,,,,,,,,,,,,,,,,,,,,,,,,,,,,,,,,,,,,,00048,001,2026-01-18_12h44.08.666,MST_task,2024.2.0,60.14932670715276,2026-01-18 12h44.21.999051 +0530,
6,practice_images/158a.jpg,3,3,1,j,2.7089647999964654,0.18433940003160387,None,,,,,,,,,1,3,3,,,,63.44217270001536,,,,,,,,,,,,,,,,,,,,,,,63.42545799998334,63.44217270001536,63.92717510001967,63.928697899973486,63.94368670001859,63.94368670001859,63.94368670001859,66.93766930000857,j,2.7089647999964654,0.18433940003160387,66.93771919998107,66.93773280002642,None,,,,,,,,,,,,,,,,,,,,,,,,,,,,,,,,,,,,,,00048,001,2026-01-18_12h44.08.666,MST_task,2024.2.0,60.14932670715276,2026-01-18 12h44.21.999051 +0530,
2,practice_images/031a.jpg,4,4,1,f,2.3253315999754705,0.08001739997416735,None,,,,,,,,,1,4,4,,,,66.95423279999522,,,,,,,,,,,,,,,,,,,,,,,66.93779990001349,66.95423279999522,67.43943829997443,67.44098740001209,67.45598869997775,67.45598869997775,67.45598869997775,70.44997269997839,f,2.3253315999754705,0.08001739997416735,70.45000940002501,70.45002639997983,None,,,,,,,,,,,,,,,,,,,,,,,,,,,,,,,,,,,,,,00048,001,2026-01-18_12h44.08.666,MST_task,2024.2.0,60.14932670715276,2026-01-18 12h44.21.999051 +0530,
5,practice_images/139a.jpg,5,5,1,None,,,j,0.12364840001100674,None,,,,,,,1,5,5,,,,70.46652940002969,,,,,,,,,,,,,,,,,,,,,,,70.45009340002434,70.46652940002969,70.95175750000635,70.95542980002938,70.96852220001165,70.96852220001165,70.96852220001165,73.96216459997231,None,,,73.96360830002232,74.11340400000336,j,73.97896259999834,73.97896259999834,0.12364840001100674,None,,,,,,,,,,,,,,,,,,,,,,,,,,,,,,,,,,00048,001,2026-01-18_12h44.08.666,MST_task,2024.2.0,60.14932670715276,2026-01-18 12h44.21.999051 +0530,
3,practice_images/037a.jpg,6,6,1,f,2.1586248999810778,0.20722500002011657,None,,,,,,,,,1,6,6,,,,74.1293655000045,,,,,,,,,,,,,,,,,,,,,,,74.11348499997985,74.1293655000045,74.61455739999656,74.61606079997728,74.63122390001081,74.63122390001081,74.63122390001081,77.62512620002963,f,2.1586248999810778,0.20722500002011657,77.6251660999842,77.62518159998581,None,,,,,,,,,,,,,,,,,,,,,,,,,,,,,,,,,,,,,,00048,001,2026-01-18_12h44.08.666,MST_task,2024.2.0,60.14932670715276,2026-01-18 12h44.21.999051 +0530,
7,practice_images/166a.jpg,7,7,1,f,1.8452554999967106,0.12052430002950132,None,,,,,,,,,1,7,7,,,,77.64178399997763,,,,,,,,,,,,,,,,,,,,,,,77.62524929997744,77.64178399997763,78.12690119998297,78.12841030000709,78.14342089998536,78.14342089998536,78.14342089998536,81.13728169997921,f,1.8452554999967106,0.12052430002950132,81.13732049998362,81.13733330002287,None,,,,,,,,,,,,,,,,,,,,,,,,,,,,,,,,,,,,,,00048,001,2026-01-18_12h44.08.666,MST_task,2024.2.0,60.14932670715276,2026-01-18 12h44.21.999051 +0530,
1,practice_images/013a.jpg,8,8,1,j,2.0057794000022113,0.12699229997815564,None,,,,,,,,,1,8,8,,,,81.15408700000262,,,,,,,,,,,,,,,,,,,,,,,81.1374005000107,81.15408700000262,81.63903630001005,81.64070139999967,81.65582510002423,81.65582510002423,81.65582510002423,84.64960180001799,j,2.0057794000022113,0.12699229997815564,84.64964050002163,84.64965410000877,None,,,,,,,,,,,,,,,,,,,,,,,,,,,,,,,,,,,,,,00048,001,2026-01-18_12h44.08.666,MST_task,2024.2.0,60.14932670715276,2026-01-18 12h44.21.999051 +0530,
8,practice_images/178a.jpg,9,9,1,f,2.917284600029234,None,None,,,,,,,,,1,9,9,,,,84.66638920002151,,,,,,,,,,,,,,,,,,,,,,,84.64972159999888,84.66638920002151,85.15133710001828,85.15286390000256,85.16813060001004,85.16813060001004,85.16813060001004,88.16202019999037,f,2.917284600029234,None,88.16205689997878,88.16206970001804,None,,,,,,,,,,,,,,,,,,,,,,,,,,,,,,,,,,,,,,00048,001,2026-01-18_12h44.08.666,MST_task,2024.2.0,60.14932670715276,2026-01-18 12h44.21.999051 +0530,
,,,,,,,,,,,,,,,,,,,,,,,,,,,,,,,,,,,,,,,,,,,,,,,,,,,,,,,,,,,,,,,,88.16213950002566,88.17891249997774,88.17891249997774,97.5955452999915,space,9.410645199997816,None,,,,,,,,,,,,,,,,,,,,,,,,,,,00048,001,2026-01-18_12h44.08.666,MST_task,2024.2.0,60.14932670715276,2026-01-18 12h44.21.999051 +0530,
,Objects\137a.jpg,0,0,1,,,,,,,f,2.522020899981726,0.1285175000084564,None,,,,,,1,0,0,97.61159879999468,,,,,,,,,,,,,,,,,,,,,,,97.59648870001547,97.61159879999468,98.09681030001957,,,,,,,,,,,,,,,,,,,,,,,98.10712110000895,98.13103470002534,98.13103470002534,98.13103470002534,101.10722579999128,indoor,f,2.522020899981726,0.1285175000084564,101.10845930001233,101.10848749999423,None,,,,,,,,,,,,,,,00048,001,2026-01-18_12h44.08.666,MST_task,2024.2.0,60.14932670715276,2026-01-18 12h44.21.999051 +0530,
,Objects\090a.jpg,1,0,2,,,,,,,j,2.2424250000040047,0.11217209999449551,None,,,,,,2,0,1,101.12401430000318,,,,,,,,,,,,,,,,,,,,,,,101.10855870001251,101.12401430000318,101.60951919999206,,,,,,,,,,,,,,,,,,,,,,,101.61968780000461,101.64249350002501,101.64249350002501,101.64249350002501,104.61967450001976,indoor,j,2.2424250000040047,0.11217209999449551,104.61973510001553,104.61974850000115,None,,,,,,,,,,,,,,,00048,001,2026-01-18_12h44.08.666,MST_task,2024.2.0,60.14932670715276,2026-01-18 12h44.21.999051 +0530,
,Objects\049a.jpg,2,0,3,,,,,,,f,1.2914653000188991,0.14378929999656975,None,,,,,,3,0,2,104.63619400002062,,,,,,,,,,,,,,,,,,,,,,,104.61981790000573,104.63619400002062,105.12140120001277,,,,,,,,,,,,,,,,,,,,,,,105.1245246999897,105.1379495000001,105.1379495000001,105.1379495000001,108.1319357000175,indoor,f,1.2914653000188991,0.14378929999656975,108.13202530000126,108.13204090000363,None,,,,,,,,,,,,,,,00048,001,2026-01-18_12h44.08.666,MST_task,2024.2.0,60.14932670715276,2026-01-18 12h44.21.999051 +0530,
,Objects\304a.jpg,3,0,4,,,,,,,f,2.5541400999645703,0.12819900002796203,None,,,,,,4,0,3,108.14876760001061,,,,,,,,,,,,,,,,,,,,,,,108.13211700000102,108.14876760001061,108.63386770000216,,,,,,,,,,,,,,,,,,,,,,,108.65039419999812,108.66696729999967,108.66696729999967,108.66696729999967,111.6441354000126,indoor,f,2.5541400999645703,0.12819900002796203,111.64419209997868,111.64420510001946,None,,,,,,,,,,,,,,,00048,001,2026-01-18_12h44.08.666,MST_task,2024.2.0,60.14932670715276,2026-01-18 12h44.21.999051 +0530,
,Objects\107a.jpg,4,0,5,,,,,,,f,1.9952596999937668,0.11876049998681992,None,,,,,,5,0,4,111.66090830002213,,,,,,,,,,,,,,,,,,,,,,,111.64445369999157,111.66090830002213,112.1458567000227,,,,,,,,,,,,,,,,,,,,,,,112.15452219999861,112.17938320001122,112.17938320001122,112.17938320001122,115.15683719998924,indoor,f,1.9952596999937668,0.11876049998681992,115.15689019998536,115.1569037999725,None,,,,,,,,,,,,,,,00048,001,2026-01-18_12h44.08.666,MST_task,2024.2.0,60.14932670715276,2026-01-18 12h44.21.999051 +0530,
,Objects\190a.jpg,5,0,6,,,,,,,f,1.2981297000078484,0.1285016000038013,None,,,,,,6,0,5,115.17309270001715,,,,,,,,,,,,,,,,,,,,,,,115.15697850001743,115.17309270001715,115.65907910000533,,,,,,,,,,,,,,,,,,,,,,,115.66217700002016,115.67483410000568,115.67483410000568,115.67483410000568,118.6687439000234,indoor,f,1.2981297000078484,0.1285016000038013,118.66878750000615,118.66880039998796,None,,,,,,,,,,,,,,,00048,001,2026-01-18_12h44.08.666,MST_task,2024.2.0,60.14932670715276,2026-01-18 12h44.21.999051 +0530,
,Objects\380a.jpg,6,0,7,,,,,,,f,1.6098444000235759,0.11993439996149391,None,,,,,,7,0,6,118.68551320000552,,,,,,,,,,,,,,,,,,,,,,,118.66926049999893,118.68551320000552,119.17047100001946,,,,,,,,,,,,,,,,,,,,,,,119.17288989998633,119.18726139998762,119.18726139998762,119.18726139998762,122.18112470000051,indoor,f,1.6098444000235759,0.11993439996149391,122.1811844999902,122.18119730002945,None,,,,,,,,,,,,,,,00048,001,2026-01-18_12h44.08.666,MST_task,2024.2.0,60.14932670715276,2026-01-18 12h44.21.999051 +0530,
,Objects\376a.jpg,7,0,8,,,,,,,j,1.8411224000155926,0.12099299998953938,None,,,,,,8,0,7,122.19780540000647,,,,,,,,,,,,,,,,,,,,,,,122.18140689999564,122.19780540000647,122.68292360001942,,,,,,,,,,,,,,,,,,,,,,,122.68839640001534,122.6994303999818,122.6994303999818,122.6994303999818,125.69345279998379,shoe,j,1.8411224000155926,0.12099299998953938,125.69539619999705,125.69541669997852,None,,,,,,,,,,,,,,,00048,001,2026-01-18_12h44.08.666,MST_task,2024.2.0,60.14932670715276,2026-01-18 12h44.21.999051 +0530,
,Objects\076a.jpg,8,0,9,,,,,,,f,2.6901139999972656,0.12807389994850382,None,,,,,,9,0,8,125.70998510002391,,,,,,,,,,,,,,,,,,,,,,,125.69549429998733,125.70998510002391,126.19548130000476,,,,,,,,,,,,,,,,,,,,,,,126.19836229999783,126.21174970001448,126.21174970001448,126.21174970001448,129.20590609998908,shoe,f,2.6901139999972656,0.12807389994850382,129.205955500016,129.20596950000618,None,126.21174970001448,,,,,,,,,,,,,,00048,001,2026-01-18_12h44.08.666,MST_task,2024.2.0,60.14932670715276,2026-01-18 12h44.21.999051 +0530,
,Objects\258a.jpg,9,0,10,,,,,,,j,2.031450800015591,0.10369630000786856,None,,,,,,10,0,9,129.22245750000002,,,,,,,,,,,,,,,,,,,,,,,129.20606759999646,129.22245750000002,129.70769910002127,,,,,,,,,,,,,,,,,,,,,,,129.7141849999898,129.74174879997736,129.74174879997736,129.74174879997736,132.71793819998857,shoe,j,2.031450800015591,0.10369630000786856,132.7179808000219,132.7179943000083,None,,,,,,,,,,,,,,,00048,001,2026-01-18_12h44.08.666,MST_task,2024.2.0,60.14932670715276,2026-01-18 12h44.21.999051 +0530,
,Objects\234a.jpg,10,0,11,,,,,,,j,2.28785019996576,0.10435779998078942,None,,,,,,11,0,10,132.734701999987,,,,,,,,,,,,,,,,,,,,,,,132.71832109999377,132.734701999987,133.21973620000063,,,,,,,,,,,,,,,,,,,,,,,133.22890340001322,133.2531751000206,133.2531751000206,133.2531751000206,136.23022869997658,shoe,j,2.28785019996576,0.10435779998078942,136.2302746999776,136.23028860002523,None,,,,,,,,,,,,,,,00048,001,2026-01-18_12h44.08.666,MST_task,2024.2.0,60.14932670715276,2026-01-18 12h44.21.999051 +0530,
,Objects\311a.jpg,11,0,12,,,,,,,None,,,f,0.10947880003368482,None,,,,12,0,11,136.24700759997359,,,,,,,,,,,,,,,,,,,,,,,136.2303565000184,136.24700759997359,136.73200159997214,,,,,,,,,,,,,,,,,,,,,,,136.736132799997,136.74875209998572,136.74875209998572,136.74875209998572,139.74251469998853,shoe,None,,,139.7425685999915,139.87695710000116,f,,139.75942519999808,139.75942519999808,0.10947880003368482,None,,,,,,,,,,00048,001,2026-01-18_12h44.08.666,MST_task,2024.2.0,60.14932670715276,2026-01-18 12h44.21.999051 +0530,
,Objects\176a.jpg,12,0,13,,,,,,,j,1.792947700014338,0.08051759999943897,None,,,,,,13,0,12,139.89311120001366,,,,,,,,,,,,,,,,,,,,,,,139.87704230000963,139.89311120001366,140.37805459997617,,,,,,,,,,,,,,,,,,,,,,,140.39062020002166,140.41157930000918,140.41157930000918,140.41157930000918,143.38873750000494,shoe,j,1.792947700014338,0.08051759999943897,143.3887815999915,143.38879459997406,None,,,,,,,,,,,,,,,00048,001,2026-01-18_12h44.08.666,MST_task,2024.2.0,60.14932670715276,2026-01-18 12h44.21.999051 +0530,
,Objects\163a.jpg,13,0,14,,,,,,,j,2.1382329000043683,0.08832650003023446,None,,,,,,14,0,13,143.40528690000065,,,,,,,,,,,,,,,,,,,,,,,143.38889910001308,143.40528690000065,143.8904760000296,,,,,,,,,,,,,,,,,,,,,,,143.8935508999857,143.90703689999646,143.90703689999646,143.90703689999646,146.90100210002856,shoe,j,2.1382329000043683,0.08832650003023446,146.90106190001825,146.9010757000069,None,,,,,,,,,,,,,,,00048,001,2026-01-18_12h44.08.666,MST_task,2024.2.0,60.14932670715276,2026-01-18 12h44.21.999051 +0530,
,Objects\348a.jpg,14,0,15,,,,,,,None,,,j,1.8793109999969602,None,,,,15,0,14,146.91758160002064,,,,,,,,,,,,,,,,,,,,,,,146.90114650002215,146.91758160002064,147.40278349997243,,,,,,,,,,,,,,,,,,,,,,,147.41064249997726,147.43607190001057,147.43607190001057,147.43607190001057,150.41321560001234,indoor,None,,,150.41503329999978,152.32056070002727,j,,150.43002349999733,150.43002349999733,1.8793109999969602,None,,,,,,,,,,00048,001,2026-01-18_12h44.08.666,MST_task,2024.2.0,60.14932670715276,2026-01-18 12h44.21.999051 +0530,
,Objects\024a.jpg,15,0,16,,,,,,,f,1.5982684000045992,0.10432629997376353,None,,,,,,16,0,15,152.33667940000305,,,,,,,,,,,,,,,,,,,,,,,152.32065289997263,152.33667940000305,152.82175020000432,,,,,,,,,,,,,,,,,,,,,,,152.83055640000384,152.85516279999865,152.85516279999865,152.85516279999865,155.8323486999725,indoor,f,1.5982684000045992,0.10432629997376353,155.83244149998063,155.83245769998757,None,,,,,,,,,,,,,,,00048,001,2026-01-18_12h44.08.666,MST_task,2024.2.0,60.14932670715276,2026-01-18 12h44.21.999051 +0530,
,Objects\056a.jpg,16,0,17,,,,,,,None,,,j,0.5805103000020608,None,,,,17,0,16,155.84950599999866,,,,,,,,,,,,,,,,,,,,,,,155.8327994000283,155.84950599999866,156.33400889998302,,,,,,,,,,,,,,,,,,,,,,,156.33742789999815,156.35073180001928,156.35073180001928,156.35073180001928,159.34461029997328,indoor,None,,,159.34468510001898,159.94707430002745,j,,159.36128589999862,159.36128589999862,0.5805103000020608,None,,,,,,,,,,00048,001,2026-01-18_12h44.08.666,MST_task,2024.2.0,60.14932670715276,2026-01-18 12h44.21.999051 +0530,
,Objects\360a.jpg,17,0,18,,,,,,,f,1.2354940999648534,0.13599370000883937,None,,,,,,18,0,17,159.96350389998406,,,,,,,,,,,,,,,,,,,,,,,159.94716889999108,159.96350389998406,160.44859739998356,,,,,,,,,,,,,,,,,,,,,,,160.45609110000078,160.48185639997246,160.48185639997246,160.48185639997246,163.45900630002143,indoor,f,1.2354940999648534,0.13599370000883937,163.45905210002093,163.4590651000035,None,,,,,,,,,,,,,,,00048,001,2026-01-18_12h44.08.666,MST_task,2024.2.0,60.14932670715276,2026-01-18 12h44.21.999051 +0530,
,Objects\161a.jpg,18,0,19,,,,,,,j,2.810582500009332,0.08809560001827776,None,,,,,,19,0,18,163.47570459998678,,,,,,,,,,,,,,,,,,,,,,,163.45913460000884,163.47570459998678,163.96076819999143,,,,,,,,,,,,,,,,,,,,,,,163.97582609998062,163.9940414999728,163.9940414999728,163.9940414999728,166.97120329999598,indoor,j,2.810582500009332,0.08809560001827776,166.971247199981,166.97125980001874,None,,,,,,,,,,,,,,,00048,001,2026-01-18_12h44.08.666,MST_task,2024.2.0,60.14932670715276,2026-01-18 12h44.21.999051 +0530,
,Objects\338a.jpg,19,0,20,,,,,,,f,1.099733599985484,0.10404569999082014,None,,,,,,20,0,19,166.98799270001473,,,,,,,,,,,,,,,,,,,,,,,166.97133319999557,166.98799270001473,167.47308640001575,,,,,,,,,,,,,,,,,,,,,,,167.47995720000472,167.48898610001197,167.48898610001197,167.48898610001197,170.48363769997377,indoor,f,1.099733599985484,0.10404569999082014,170.48369470000034,170.4837074999814,None,,,,,,,,,,,,,,,00048,001,2026-01-18_12h44.08.666,MST_task,2024.2.0,60.14932670715276,2026-01-18 12h44.21.999051 +0530,
,Objects\317a.jpg,20,0,21,,,,,,,f,1.7702440000139177,0.11216899997089058,None,,,,,,21,0,20,170.50028239999665,,,,,,,,,,,,,,,,,,,,,,,170.48377599997912,170.50028239999665,170.9853803999722,,,,,,,,,,,,,,,,,,,,,,,170.9933033999987,171.01876810000977,171.01876810000977,171.01876810000977,173.99594569997862,indoor,f,1.7702440000139177,0.11216899997089058,173.99601340002846,173.9960278000217,None,,,,,,,,,,,,,,,00048,001,2026-01-18_12h44.08.666,MST_task,2024.2.0,60.14932670715276,2026-01-18 12h44.21.999051 +0530,
,Objects\100a.jpg,21,0,22,,,,,,,f,1.674398500006646,0.11273460002848879,None,,,,,,22,0,21,174.01246270001866,,,,,,,,,,,,,,,,,,,,,,,173.99610260000918,174.01246270001866,174.4976544000092,,,,,,,,,,,,,,,,,,,,,,,174.502251399972,174.51421509997454,174.51421509997454,174.51421509997454,177.50821090000682,shoe,f,1.674398500006646,0.11273460002848879,177.50964419997763,177.50966300000437,None,,,,,,,,,,,,,,,00048,001,2026-01-18_12h44.08.666,MST_task,2024.2.0,60.14932670715276,2026-01-18 12h44.21.999051 +0530,
,Objects\140a.jpg,22,0,23,,,,,,,None,,,f,0.3198573000263423,None,,,,23,0,22,177.5247737999889,,,,,,,,,,,,,,,,,,,,,,,177.51026399998227,177.5247737999889,178.00998650002293,,,,,,,,,,,,,,,,,,,,,,,178.01272549998248,178.0265184000018,178.0265184000018,178.0265184000018,181.02040560002206,shoe,None,,,181.0204452999751,181.3721584000159,f,,181.03718949999893,181.03718949999893,0.3198573000263423,None,,,,,,,,,,00048,001,2026-01-18_12h44.08.666,MST_task,2024.2.0,60.14932670715276,2026-01-18 12h44.21.999051 +0530,
,Objects\104a.jpg,23,0,24,,,,,,,f,1.3622385000344366,0.10374349995981902,None,,,,,,24,0,23,181.38829999999143,,,,,,,,,,,,,,,,,,,,,,,181.37224779999815,181.38829999999143,181.87382109998725,,,,,,,,,,,,,,,,,,,,,,,181.8835353999748,181.90685199998552,181.90685199998552,181.90685199998552,184.88428170001134,shoe,f,1.3622385000344366,0.10374349995981902,184.88433049997548,184.8843444000231,None,,,,,,,,,,,,,,,00048,001,2026-01-18_12h44.08.666,MST_task,2024.2.0,60.14932670715276,2026-01-18 12h44.21.999051 +0530,
,Objects\058a.jpg,24,0,25,,,,,,,f,1.3137306999997236,0.13557759998366237,None,,,,,,25,0,24,184.90122479997808,,,,,,,,,,,,,,,,,,,,,,,184.88445970002795,184.90122479997808,185.38625450001564,,,,,,,,,,,,,,,,,,,,,,,185.39588169998024,185.41936230001738,185.41936230001738,185.41936230001738,188.3965091999853,shoe,f,1.3137306999997236,0.13557759998366237,188.39655290002702,188.39656600001035,None,,,,,,,,,,,,,,,00048,001,2026-01-18_12h44.08.666,MST_task,2024.2.0,60.14932670715276,2026-01-18 12h44.21.999051 +0530,
,Objects\186a.jpg,25,0,26,,,,,,,f,1.249929300043732,0.08808680000947788,None,,,,,,26,0,25,188.41296009998769,,,,,,,,,,,,,,,,,,,,,,,188.39663440000731,188.41296009998769,188.89825129997917,,,,,,,,,,,,,,,,,,,,,,,188.90103240002645,188.91482170001836,188.91482170001836,188.91482170001836,191.90881489997264,shoe,f,1.249929300043732,0.08808680000947788,191.90885990002425,191.9088730000076,None,,,,,,,,,,,,,,,00048,001,2026-01-18_12h44.08.666,MST_task,2024.2.0,60.14932670715276,2026-01-18 12h44.21.999051 +0530,
,Objects\195a.jpg,26,0,27,,,,,,,None,,,j,1.2400086999987252,None,,,,27,0,26,191.9253787000198,,,,,,,,,,,,,,,,,,,,,,,191.90894290001597,191.9253787000198,192.41058580001118,,,,,,,,,,,,,,,,,,,,,,,192.4182746000006,192.4438338999753,192.4438338999753,192.4438338999753,195.4208633999806,shoe,None,,,195.42090500000631,196.6923981999862,j,,195.43760679999832,195.43760679999832,1.2400086999987252,None,,,,,,,,,,00048,001,2026-01-18_12h44.08.666,MST_task,2024.2.0,60.14932670715276,2026-01-18 12h44.21.999051 +0530,
,Objects\224a.jpg,27,0,28,,,,,,,f,1.8244092000531964,0.10417700000107288,None,,,,,,28,0,27,196.70883700001286,,,,,,,,,,,,,,,,,,,,,,,196.69249460002175,196.70883700001286,197.19471180002438,,,,,,,,,,,,,,,,,,,,,,,197.2009371999884,197.22821999998996,197.22821999998996,197.22821999998996,200.2043616999872,shoe,f,1.8244092000531964,0.10417700000107288,200.2044274000218,200.20444820000557,None,,,,,,,,,,,,,,,00048,001,2026-01-18_12h44.08.666,MST_task,2024.2.0,60.14932670715276,2026-01-18 12h44.21.999051 +0530,
,Objects\279a.jpg,28,0,29,,,,,,,None,,,j,0.5286796999862418,None,,,,29,0,28,200.22090920002665,,,,,,,,,,,,,,,,,,,,,,,200.20452139998088,200.22090920002665,200.70640530000674,,,,,,,,,,,,,,,,,,,,,,,200.7253927999991,200.7393850000226,200.7393850000226,200.7393850000226,203.71659590001218,indoor,None,,,203.7179094000021,204.26905240002088,j,,203.7333330999827,203.7333330999827,0.5286796999862418,None,,,,,,,,,,00048,001,2026-01-18_12h44.08.666,MST_task,2024.2.0,60.14932670715276,2026-01-18 12h44.21.999051 +0530,
,Objects\328a.jpg,29,0,30,,,,,,,f,1.46636199997738,0.12794520001625642,None,,,,,,30,0,29,204.28527330001816,,,,,,,,,,,,,,,,,,,,,,,204.2691421000054,204.28527330001816,204.7703635999933,,,,,,,,,,,,,,,,,,,,,,,204.773458199983,204.78690080001252,204.78690080001252,204.78690080001252,207.7807703000144,indoor,f,1.46636199997738,0.12794520001625642,207.78082739998354,207.78084080002736,None,,,,,,,,,,,,,,,00048,001,2026-01-18_12h44.08.666,MST_task,2024.2.0,60.14932670715276,2026-01-18 12h44.21.999051 +0530,
,Objects\315a.jpg,30,0,31,,,,,,,f,2.7048948000301607,0.12866119999671355,None,,,,,,31,0,30,207.79757519997656,,,,,,,,,,,,,,,,,,,,,,,207.78117169998586,207.79757519997656,208.28254099999322,,,,,,,,,,,,,,,,,,,,,,,208.2977174000116,208.3160355000291,208.3160355000291,208.3160355000291,211.29320720001124,indoor,f,2.7048948000301607,0.12866119999671355,211.29324979998637,211.2932624000241,None,,,,,,,,,,,,,,,00048,001,2026-01-18_12h44.08.666,MST_task,2024.2.0,60.14932670715276,2026-01-18 12h44.21.999051 +0530,
,Objects\340a.jpg,31,0,32,,,,,,,f,1.0421904000104405,0.12614060001214966,None,,,,,,32,0,31,211.30976069997996,,,,,,,,,,,,,,,,,,,,,,,211.29333110002335,211.30976069997996,211.79508880001958,,,,,,,,,,,,,,,,,,,,,,,211.8110718000098,211.82822010002565,211.82822010002565,211.82822010002565,214.80543270002818,indoor,f,1.0421904000104405,0.12614060001214966,214.80547720001778,214.8054903000011,None,,,,,,,,,,,,,,,00048,001,2026-01-18_12h44.08.666,MST_task,2024.2.0,60.14932670715276,2026-01-18 12h44.21.999051 +0530,
,Objects\330a.jpg,32,0,33,,,,,,,None,,,f,1.9909049000125378,None,,,,33,0,32,214.8221629000036,,,,,,,,,,,,,,,,,,,,,,,214.80570409999928,214.8221629000036,215.30715960002271,,,,,,,,,,,,,,,,,,,,,,,215.31478289997904,215.3406436999794,215.3406436999794,215.3406436999794,218.31794300000183,indoor,None,,,218.3179867999861,220.34204929997213,f,,218.3343700999976,218.3343700999976,1.9909049000125378,None,,,,,,,,,,00048,001,2026-01-18_12h44.08.666,MST_task,2024.2.0,60.14932670715276,2026-01-18 12h44.21.999051 +0530,
,Objects\361a.jpg,33,0,34,,,,,,,f,1.4564444999559782,0.11302780004916713,None,,,,,,34,0,33,220.35880899999756,,,,,,,,,,,,,,,,,,,,,,,220.3421409999719,220.35880899999756,220.84331059997203,,,,,,,,,,,,,,,,,,,,,,,220.85145890002605,220.87670650001382,220.87670650001382,220.87670650001382,223.85381880000932,indoor,f,1.4564444999559782,0.11302780004916713,223.85387519997312,223.85388850001618,None,,,,,,,,,,,,,,,00048,001,2026-01-18_12h44.08.666,MST_task,2024.2.0,60.14932670715276,2026-01-18 12h44.21.999051 +0530,
,Objects\229a.jpg,34,0,35,,,,,,,f,0.9196201000013389,0.12868199998047203,None,,,,,,35,0,34,223.87039270001696,,,,,,,,,,,,,,,,,,,,,,,223.85396209999453,223.87039270001696,224.35575450002216,,,,,,,,,,,,,,,,,,,,,,,224.3638955000206,224.38888759998372,224.38888759998372,224.38888759998372,227.36614970001392,indoor,f,0.9196201000013389,0.12868199998047203,227.3661945000058,227.36623390001478,None,,,,,,,,,,,,,,,00048,001,2026-01-18_12h44.08.666,MST_task,2024.2.0,60.14932670715276,2026-01-18 12h44.21.999051 +0530,
,Objects\369a.jpg,35,0,36,,,,,,,f,2.0633752000285313,0.11199189996114,None,,,,,,36,0,35,227.38282240001718,,,,,,,,,,,,,,,,,,,,,,,227.36657279997598,227.38282240001718,227.86788560001878,,,,,,,,,,,,,,,,,,,,,,,227.8846289999783,227.90131159999873,227.90131159999873,227.90131159999873,230.87844350002706,shoe,f,2.0633752000285313,0.11199189996114,230.88001710001845,230.88003709999612,None,,,,,,,,,,,,,,,00048,001,2026-01-18_12h44.08.666,MST_task,2024.2.0,60.14932670715276,2026-01-18 12h44.21.999051 +0530,
,Objects\262a.jpg,36,0,37,,,,,,,f,1.5117160000372678,0.13706099998671561,None,,,,,,37,0,36,230.89499479997903,,,,,,,,,,,,,,,,,,,,,,,230.8803956999909,230.89499479997903,231.38020710001,,,,,,,,,,,,,,,,,,,,,,,231.39481570001226,231.41365180001594,231.41365180001594,231.41365180001594,234.39077009999892,shoe,f,1.5117160000372678,0.13706099998671561,234.39081469998928,234.39082700002473,None,,,,,,,,,,,,,,,00048,001,2026-01-18_12h44.08.666,MST_task,2024.2.0,60.14932670715276,2026-01-18 12h44.21.999051 +0530,
,Objects\319a.jpg,37,0,38,,,,,,,f,1.175256900023669,0.08798989997012541,None,,,,,,38,0,37,234.40741320000961,,,,,,,,,,,,,,,,,,,,,,,234.39089420001255,234.40741320000961,234.89251219999278,,,,,,,,,,,,,,,,,,,,,,,234.90028330002679,234.92589439998847,234.92589439998847,234.92589439998847,237.9030453999876,shoe,f,1.175256900023669,0.08798989997012541,237.90308969997568,237.90310230001342,None,,,,,,,,,,,,,,,00048,001,2026-01-18_12h44.08.666,MST_task,2024.2.0,60.14932670715276,2026-01-18 12h44.21.999051 +0530,
,Objects\028a.jpg,38,0,39,,,,,,,j,0.8952893000096083,0.09630510001443326,None,,,,,,39,0,38,237.91964239999652,,,,,,,,,,,,,,,,,,,,,,,237.90322179999202,237.91964239999652,238.4047889999929,,,,,,,,,,,,,,,,,,,,,,,238.41279329999816,238.43809319997672,238.43809319997672,238.43809319997672,241.4155219999957,shoe,j,0.8952893000096083,0.09630510001443326,241.41556759999366,241.41558039997471,None,,,,,,,,,,,,,,,00048,001,2026-01-18_12h44.08.666,MST_task,2024.2.0,60.14932670715276,2026-01-18 12h44.21.999051 +0530,
,Objects\187a.jpg,39,0,40,,,,,,,f,1.7743756999843754,0.11218719999305904,None,,,,,,40,0,39,241.43202750000637,,,,,,,,,,,,,,,,,,,,,,,241.41569960000925,241.43202750000637,241.9172326999833,,,,,,,,,,,,,,,,,,,,,,,241.92697480000788,241.95038270001533,241.95038270001533,241.95038270001533,244.9276640000171,shoe,f,1.7743756999843754,0.11218719999305904,244.9277411000221,244.92776240000967,None,,,,,,,,,,,,,,,00048,001,2026-01-18_12h44.08.666,MST_task,2024.2.0,60.14932670715276,2026-01-18 12h44.21.999051 +0530,
,Objects\326a.jpg,40,0,41,,,,,,,f,1.4228112999699079,0.09785319998627529,None,,,,,,41,0,40,244.9443216000218,,,,,,,,,,,,,,,,,,,,,,,244.92814799997723,244.9443216000218,245.42931229999522,,,,,,,,,,,,,,,,,,,,,,,245.43436279997695,245.44604329997674,245.44604329997674,245.44604329997674,248.43983250000747,shoe,f,1.4228112999699079,0.09785319998627529,248.43988540000282,248.43991740001366,None,,,,,,,,,,,,,,,00048,001,2026-01-18_12h44.08.666,MST_task,2024.2.0,60.14932670715276,2026-01-18 12h44.21.999051 +0530,
,Objects\130a.jpg,41,0,42,,,,,,,j,1.9899071999825537,0.12060359999304637,None,,,,,,42,0,41,248.4566004999797,,,,,,,,,,,,,,,,,,,,,,,248.44036860001506,248.4566004999797,248.94160459999694,,,,,,,,,,,,,,,,,,,,,,,248.95160019997275,248.97509459999856,248.97509459999856,248.97509459999856,251.95225169998594,shoe,j,1.9899071999825537,0.12060359999304637,251.9522950000246,251.95230800000718,None,,,,,,,,,,,,,,,00048,001,2026-01-18_12h44.08.666,MST_task,2024.2.0,60.14932670715276,2026-01-18 12h44.21.999051 +0530,
,Objects\147a.jpg,42,0,43,,,,,,,f,2.158131300006062,0.14460489997873083,None,,,,,,43,0,42,251.9689200000139,,,,,,,,,,,,,,,,,,,,,,,251.9523778000148,251.9689200000139,252.45400500000687,,,,,,,,,,,,,,,,,,,,,,,252.4585980999982,252.47054050001316,252.47054050001316,252.47054050001316,255.4647642999771,indoor,f,2.158131300006062,0.14460489997873083,255.46600110002328,255.46602049999638,None,,,,,,,,,,,,,,,00048,001,2026-01-18_12h44.08.666,MST_task,2024.2.0,60.14932670715276,2026-01-18 12h44.21.999051 +0530,
,Objects\085a.jpg,43,0,44,,,,,,,j,2.7661937000229955,0.07983439997769892,None,,,,,,44,0,43,255.48120899999049,,,,,,,,,,,,,,,,,,,,,,,255.46609230001923,255.48120899999049,255.96628809999675,,,,,,,,,,,,,,,,,,,,,,,255.96920009999303,255.9828505999758,255.9828505999758,255.9828505999758,258.97685109998565,indoor,j,2.7661937000229955,0.07983439997769892,258.9770662999945,258.9770804999862,None,,,,,,,,,,,,,,,00048,001,2026-01-18_12h44.08.666,MST_task,2024.2.0,60.14932670715276,2026-01-18 12h44.21.999051 +0530,
,Objects\123a.jpg,44,0,45,,,,,,,j,1.7504056000034325,0.07949750003172085,None,,,,,,45,0,44,258.9933926999802,,,,,,,,,,,,,,,,,,,,,,,258.9771522000083,258.9933926999802,259.47860889998265,,,,,,,,,,,,,,,,,,,,,,,259.4825312999892,259.49516009999206,259.49516009999206,259.49516009999206,262.48913519998314,indoor,j,1.7504056000034325,0.07949750003172085,262.4891791000264,262.4891919000074,None,,,,,,,,,,,,,,,00048,001,2026-01-18_12h44.08.666,MST_task,2024.2.0,60.14932670715276,2026-01-18 12h44.21.999051 +0530,
,Objects\075a.jpg,45,0,46,,,,,,,j,2.3008990000234917,0.1048632999882102,None,,,,,,46,0,45,262.5056867999956,,,,,,,,,,,,,,,,,,,,,,,262.48926040000515,262.5056867999956,262.99090019997675,,,,,,,,,,,,,,,,,,,,,,,263.00159340002574,263.0241793000023,263.0241793000023,263.0241793000023,266.00139719998697,indoor,j,2.3008990000234917,0.1048632999882102,266.00147509999806,266.00149070000043,None,,,,,,,,,,,,,,,00048,001,2026-01-18_12h44.08.666,MST_task,2024.2.0,60.14932670715276,2026-01-18 12h44.21.999051 +0530,
,Objects\151a.jpg,46,0,47,,,,,,,None,,,j,0.45809979998739436,None,,,,47,0,46,266.0181144999806,,,,,,,,,,,,,,,,,,,,,,,266.0015714999754,266.0181144999806,266.50308080000104,,,,,,,,,,,,,,,,,,,,,,,266.5062287999899,266.51986280002166,266.51986280002166,266.51986280002166,269.51365540002007,indoor,None,,,269.51369549997617,269.9992180999834,j,,269.53040930000134,269.53040930000134,0.45809979998739436,None,,,,,,,,,,00048,001,2026-01-18_12h44.08.666,MST_task,2024.2.0,60.14932670715276,2026-01-18 12h44.21.999051 +0530,
,Objects\061a.jpg,47,0,48,,,,,,,j,2.6309328000061214,0.08027049998054281,None,,,,,,48,0,47,270.01532950002,,,,,,,,,,,,,,,,,,,,,,,269.9993114999961,270.01532950002,270.5006378000253,,,,,,,,,,,,,,,,,,,,,,,270.503819799982,270.51759330002824,270.51759330002824,270.51759330002824,273.51107230002526,indoor,j,2.6309328000061214,0.08027049998054281,273.51149870001245,273.51151270000264,None,,,,,,,,,,,,,,,00048,001,2026-01-18_12h44.08.666,MST_task,2024.2.0,60.14932670715276,2026-01-18 12h44.21.999051 +0530,
,Objects\383a.jpg,48,0,49,,,,,,,f,2.2870255999732763,0.10420470003737137,None,,,,,,49,0,48,273.52763129997766,,,,,,,,,,,,,,,,,,,,,,,273.511582600011,273.52763129997766,274.01280839997344,,,,,,,,,,,,,,,,,,,,,,,274.027486099978,274.0461123000132,274.0461123000132,274.0461123000132,277.02346120000584,indoor,f,2.2870255999732763,0.10420470003737137,277.02354780002497,277.02356230001897,None,,,,,,,,,,,,,,,00048,001,2026-01-18_12h44.08.666,MST_task,2024.2.0,60.14932670715276,2026-01-18 12h44.21.999051 +0530,
,Objects\286a.jpg,49,0,50,,,,,,,f,1.29448699997738,0.10403580003185198,None,,,,,,50,0,49,277.0399217000231,,,,,,,,,,,,,,,,,,,,,,,277.0236370000057,277.0399217000231,277.5251374000218,,,,,,,,,,,,,,,,,,,,,,,277.5325199000072,277.5584062000271,277.5584062000271,277.5584062000271,280.5355512999813,shoe,f,1.29448699997738,0.10403580003185198,280.537533499999,280.537552600028,None,,,,,,,,,,,,,,,00048,001,2026-01-18_12h44.08.666,MST_task,2024.2.0,60.14932670715276,2026-01-18 12h44.21.999051 +0530,
,Objects\036a.jpg,50,0,51,,,,,,,None,,,f,0.28407749999314547,None,,,,51,0,50,280.5523271000129,,,,,,,,,,,,,,,,,,,,,,,280.53762179997284,280.5523271000129,281.0377802000148,,,,,,,,,,,,,,,,,,,,,,,281.0456648999825,281.0709289999795,281.0709289999795,281.0709289999795,284.0479687000043,shoe,None,,,284.0483839000226,284.3496301000123,f,281.0709289999795,284.0645254999981,284.0645254999981,0.28407749999314547,None,,,,,,,,,,00048,001,2026-01-18_12h44.08.666,MST_task,2024.2.0,60.14932670715276,2026-01-18 12h44.21.999051 +0530,
,Objects\073a.jpg,51,0,52,,,,,,,f,1.066150100028608,0.10381010000128299,None,,,,,,52,0,51,284.3656139000086,,,,,,,,,,,,,,,,,,,,,,,284.3497222000151,284.3656139000086,284.85108089999994,,,,,,,,,,,,,,,,,,,,,,,284.85392299998784,284.86748979997355,284.86748979997355,284.86748979997355,287.8616131999879,shoe,f,1.066150100028608,0.10381010000128299,287.86167339998065,287.861687000026,None,,,,,,,,,,,,,,,00048,001,2026-01-18_12h44.08.666,MST_task,2024.2.0,60.14932670715276,2026-01-18 12h44.21.999051 +0530,
,Objects\223a.jpg,52,0,53,,,,,,,None,,,j,0.36686760000884533,None,,,,53,0,52,287.8780201000045,,,,,,,,,,,,,,,,,,,,,,,287.8617933000205,287.8780201000045,288.3630816999939,,,,,,,,,,,,,,,,,,,,,,,288.37259189999895,288.3963516000076,288.3963516000076,288.3963516000076,291.37353360001,shoe,None,,,291.3735846999916,291.7587558000232,j,,291.3902845000266,291.3902845000266,0.36686760000884533,None,,,,,,,,,,00048,001,2026-01-18_12h44.08.666,MST_task,2024.2.0,60.14932670715276,2026-01-18 12h44.21.999051 +0530,
,Objects\189a.jpg,53,0,54,,,,,,,None,,,j,1.6869430000078864,None,,,,54,0,53,291.77485240000533,,,,,,,,,,,,,,,,,,,,,,,291.7588841000106,291.77485240000533,292.26021209999453,,,,,,,,,,,,,,,,,,,,,,,292.27005039999494,292.2933880999917,292.2933880999917,292.2933880999917,295.2706284999731,shoe,None,,,295.2706675999798,296.97716960002435,j,,295.2871574999881,295.2871574999881,1.6869430000078864,None,,,,,,,,,,00048,001,2026-01-18_12h44.08.666,MST_task,2024.2.0,60.14932670715276,2026-01-18 12h44.21.999051 +0530,
,Objects\333a.jpg,54,0,55,,,,,,,f,2.0069305999786593,0.09513819997664541,None,,,,,,55,0,54,296.99313479999546,,,,,,,,,,,,,,,,,,,,,,,296.9773066000198,296.99313479999546,297.4784693000256,,,,,,,,,,,,,,,,,,,,,,,297.4810304000275,297.4951178000192,297.4951178000192,297.4951178000192,300.4890091000125,shoe,f,2.0069305999786593,0.09513819997664541,300.4890526999952,300.4890658999793,None,,,,,,,,,,,,,,,00048,001,2026-01-18_12h44.08.666,MST_task,2024.2.0,60.14932670715276,2026-01-18 12h44.21.999051 +0530,
,Objects\142a.jpg,55,0,56,,,,,,,f,1.0386715999920852,0.1349206999875605,None,,,,,,56,0,55,300.50542639999185,,,,,,,,,,,,,,,,,,,,,,,300.4891483000247,300.50542639999185,300.9906500999932,,,,,,,,,,,,,,,,,,,,,,,300.9933883000049,301.00728770002024,301.00728770002024,301.00728770002024,304.0011835999903,shoe,f,1.0386715999920852,0.1349206999875605,304.00123090000125,304.0012444999884,None,,,,,,,,,,,,,,,00048,001,2026-01-18_12h44.08.666,MST_task,2024.2.0,60.14932670715276,2026-01-18 12h44.21.999051 +0530,
,Objects\356a.jpg,56,0,57,,,,,,,f,2.404917999985628,0.1528050999622792,None,,,,,,57,0,56,304.0177124000038,,,,,,,,,,,,,,,,,,,,,,,304.00134910002816,304.0177124000038,304.5033203000203,,,,,,,,,,,,,,,,,,,,,,,304.51084850000916,304.5362067000242,304.5362067000242,304.5362067000242,307.5133407000103,indoor,f,2.404917999985628,0.1528050999622792,307.5146576000261,307.51467820000835,None,,,,,,,,,,,,,,,00048,001,2026-01-18_12h44.08.666,MST_task,2024.2.0,60.14932670715276,2026-01-18 12h44.21.999051 +0530,
,Objects\287a.jpg,57,0,58,,,,,,,f,1.325682099966798,0.1515707999933511,None,,,,,,58,0,57,307.53013740002643,,,,,,,,,,,,,,,,,,,,,,,307.5147538000019,307.53013740002643,308.01524400000926,,,,,,,,,,,,,,,,,,,,,,,308.0214630999835,308.03214219998335,308.03214219998335,308.03214219998335,311.02569939999375,indoor,f,1.325682099966798,0.1515707999933511,311.0257819999824,311.0257950000232,None,,,,,,,,,,,,,,,00048,001,2026-01-18_12h44.08.666,MST_task,2024.2.0,60.14932670715276,2026-01-18 12h44.21.999051 +0530,
,Objects\250a.jpg,58,0,59,,,,,,,f,1.3251014999696054,0.09660760004771873,None,,,,,,59,0,58,311.0424316999852,,,,,,,,,,,,,,,,,,,,,,,311.0258655999787,311.0424316999852,311.527532099979,,,,,,,,,,,,,,,,,,,,,,,311.52995649998775,311.54420920001576,311.54420920001576,311.54420920001576,314.5379538999987,indoor,f,1.3251014999696054,0.09660760004771873,314.53800729999784,314.5380405000178,None,,,,,,,,,,,,,,,00048,001,2026-01-18_12h44.08.666,MST_task,2024.2.0,60.14932670715276,2026-01-18 12h44.21.999051 +0530,
,Objects\350a.jpg,59,0,60,,,,,,,j,2.627645800006576,0.10469770000781864,None,,,,,,60,0,59,314.55475210002623,,,,,,,,,,,,,,,,,,,,,,,314.53812990000006,314.55475210002623,315.0398002000293,,,,,,,,,,,,,,,,,,,,,,,315.0476804000209,315.07324629998766,315.07324629998766,315.07324629998766,318.0503789000213,indoor,j,2.627645800006576,0.10469770000781864,318.05042019998655,318.05045929999324,None,,,,,,,,,,,,,,,00048,001,2026-01-18_12h44.08.666,MST_task,2024.2.0,60.14932670715276,2026-01-18 12h44.21.999051 +0530,
,Objects\162a.jpg,60,0,61,,,,,,,f,1.612089600006584,0.1030956000322476,None,,,,,,61,0,60,318.06745159998536,,,,,,,,,,,,,,,,,,,,,,,318.0505375000066,318.06745159998536,318.5521553999861,,,,,,,,,,,,,,,,,,,,,,,318.560223700013,318.58539850002853,318.58539850002853,318.58539850002853,321.5625556000159,indoor,f,1.612089600006584,0.1030956000322476,321.56278159999056,321.5628019000287,None,,,,,,,,,,,,,,,00048,001,2026-01-18_12h44.08.666,MST_task,2024.2.0,60.14932670715276,2026-01-18 12h44.21.999051 +0530,
,Objects\238a.jpg,61,0,62,,,,,,,f,2.699379700003192,0.1198865000042133,None,,,,,,62,0,61,321.57933670002967,,,,,,,,,,,,,,,,,,,,,,,321.56288199999835,321.57933670002967,322.0643279000069,,,,,,,,,,,,,,,,,,,,,,,322.081399000017,322.0979441999807,322.0979441999807,322.0979441999807,325.07511719997274,indoor,f,2.699379700003192,0.1198865000042133,325.0751605000114,325.07517279998865,None,,,,,,,,,,,,,,,00048,001,2026-01-18_12h44.08.666,MST_task,2024.2.0,60.14932670715276,2026-01-18 12h44.21.999051 +0530,
,Objects\150a.jpg,62,0,63,,,,,,,None,,,f,0.4404680000152439,None,,,,63,0,62,325.09153700002935,,,,,,,,,,,,,,,,,,,,,,,325.075240199978,325.09153700002935,325.5768725000089,,,,,,,,,,,,,,,,,,,,,,,325.5842429000186,325.59269299998414,325.59269299998414,325.59269299998414,328.5873318000231,indoor,None,,,328.58736970002064,329.05619829997886,f,,328.6042018000153,328.6042018000153,0.4404680000152439,None,,,,,,,,,,00048,001,2026-01-18_12h44.08.666,MST_task,2024.2.0,60.14932670715276,2026-01-18 12h44.21.999051 +0530,
,Objects\157a.jpg,63,0,64,,,,,,,f,1.2149459999636747,0.09652520000236109,None,,,,,,64,0,63,329.07224270002916,,,,,,,,,,,,,,,,,,,,,,,329.0562907999847,329.07224270002916,329.5574815000291,,,,,,,,,,,,,,,,,,,,,,,329.5617006000248,329.5738773000194,329.5738773000194,329.5738773000194,332.5679224000196,shoe,f,1.2149459999636747,0.09652520000236109,332.56956929998705,332.5695881000138,None,,,,,,,,,,,,,,,00048,001,2026-01-18_12h44.08.666,MST_task,2024.2.0,60.14932670715276,2026-01-18 12h44.21.999051 +0530,
,Objects\020a.jpg,64,0,65,,,,,,,f,2.231183299969416,0.07197300001280382,None,,,,,,65,0,64,332.5844293999835,,,,,,,,,,,,,,,,,,,,,,,332.5696982999798,332.5844293999835,333.0698779000086,,,,,,,,,,,,,,,,,,,,,,,333.07254080002895,333.0862854999723,333.0862854999723,333.0862854999723,336.0801689000218,shoe,f,2.231183299969416,0.07197300001280382,336.080224299978,336.0802380000241,None,333.0862854999723,,,,,,,,,,,,,,00048,001,2026-01-18_12h44.08.666,MST_task,2024.2.0,60.14932670715276,2026-01-18 12h44.21.999051 +0530,
,Objects\099a.jpg,65,0,66,,,,,,,j,2.118685599998571,0.09499630000209436,None,,,,,,66,0,65,336.09671999997227,,,,,,,,,,,,,,,,,,,,,,,336.0803496000008,336.09671999997227,336.582057200023,,,,,,,,,,,,,,,,,,,,,,,336.59436430002097,336.6151980999857,336.6151980999857,336.6151980999857,339.5925043000025,shoe,j,2.118685599998571,0.09499630000209436,339.59255280002253,339.59256670001196,None,,,,,,,,,,,,,,,00048,001,2026-01-18_12h44.08.666,MST_task,2024.2.0,60.14932670715276,2026-01-18 12h44.21.999051 +0530,
,Objects\101a.jpg,66,0,67,,,,,,,f,1.3257056000293233,0.1201411000220105,None,,,,,,67,0,66,339.60924810002325,,,,,,,,,,,,,,,,,,,,,,,339.5927080999827,339.60924810002325,340.09411160001764,,,,,,,,,,,,,,,,,,,,,,,340.1053297999897,340.1276408000267,340.1276408000267,340.1276408000267,343.10507980000693,shoe,f,1.3257056000293233,0.1201411000220105,343.1051225999836,343.1051353000221,None,,,,,,,,,,,,,,,00048,001,2026-01-18_12h44.08.666,MST_task,2024.2.0,60.14932670715276,2026-01-18 12h44.21.999051 +0530,
,Objects\298a.jpg,67,0,68,,,,,,,f,1.5013459000037983,0.1039883999619633,None,,,,,,68,0,67,343.1214643000276,,,,,,,,,,,,,,,,,,,,,,,343.1052401000052,343.1214643000276,343.6065344000235,,,,,,,,,,,,,,,,,,,,,,,343.6161087999935,343.6399238000158,343.6399238000158,343.6399238000158,346.6169681000174,shoe,f,1.5013459000037983,0.1039883999619633,346.6170239999774,346.61703710001893,None,,,,,,,,,,,,,,,00048,001,2026-01-18_12h44.08.666,MST_task,2024.2.0,60.14932670715276,2026-01-18 12h44.21.999051 +0530,
,Objects\355a.jpg,68,0,69,,,,,,,f,1.6848641000106,0.1362370999995619,None,,,,,,69,0,68,346.6339323000284,,,,,,,,,,,,,,,,,,,,,,,346.6171053000144,346.6339323000284,347.1187688999926,,,,,,,,,,,,,,,,,,,,,,,347.1280233000289,347.1522339999792,347.1522339999792,347.1522339999792,350.12952140002744,shoe,f,1.6848641000106,0.1362370999995619,350.1295864999993,350.1296022000024,None,,,,,,,,,,,,,,,00048,001,2026-01-18_12h44.08.666,MST_task,2024.2.0,60.14932670715276,2026-01-18 12h44.21.999051 +0530,
,Objects\198a.jpg,69,0,70,,,,,,,None,,,f,0.27447300002677366,None,,,,70,0,69,350.1460146000027,,,,,,,,,,,,,,,,,,,,,,,350.12967250001384,350.1460146000027,350.6313072000048,,,,,,,,,,,,,,,,,,,,,,,350.6469616999966,350.6645279999939,350.6645279999939,350.6645279999939,353.64217669999925,shoe,None,,,353.6422475000145,353.943425800011,f,,353.6583387000137,353.6583387000137,0.27447300002677366,None,,,,,,,,,,00048,001,2026-01-18_12h44.08.666,MST_task,2024.2.0,60.14932670715276,2026-01-18 12h44.21.999051 +0530,
,Objects\141a.jpg,70,0,71,,,,,,,j,2.2810999999637716,0.07098690001294017,None,,,,,,71,0,70,353.95952450000914,,,,,,,,,,,,,,,,,,,,,,,353.94351680000545,353.95952450000914,354.44435720000183,,,,,,,,,,,,,,,,,,,,,,,354.4479488999932,354.4614213000168,354.4614213000168,354.4614213000168,357.454897299991,indoor,j,2.2810999999637716,0.07098690001294017,357.45616020000307,357.4561799999792,None,,,,,,,,,,,,,,,00048,001,2026-01-18_12h44.08.666,MST_task,2024.2.0,60.14932670715276,2026-01-18 12h44.21.999051 +0530,
,Objects\372a.jpg,71,0,72,,,,,,,None,,,j,1.8218552999896929,None,,,,72,0,71,357.4717082999996,,,,,,,,,,,,,,,,,,,,,,,357.4562525000074,357.4717082999996,357.9566606999724,,,,,,,,,,,,,,,,,,,,,,,357.96520610002335,357.9901795000187,357.9901795000187,357.9901795000187,360.96732609998435,indoor,None,,,360.96751320001204,362.80774910002947,j,,360.98376169998664,360.98376169998664,1.8218552999896929,None,,,,,,,,,,00048,001,2026-01-18_12h44.08.666,MST_task,2024.2.0,60.14932670715276,2026-01-18 12h44.21.999051 +0530,
,Objects\322a.jpg,72,0,73,,,,,,,j,2.1263797999708913,0.08031660004053265,None,,,,,,73,0,72,362.8236488000257,,,,,,,,,,,,,,,,,,,,,,,362.80783890001476,362.8236488000257,363.3088663999806,,,,,,,,,,,,,,,,,,,,,,,363.3173688999959,363.3421314000152,363.3421314000152,363.3421314000152,366.31955439999,indoor,j,2.1263797999708913,0.08031660004053265,366.31965110002784,366.3196692999918,None,,,,,,,,,,,,,,,00048,001,2026-01-18_12h44.08.666,MST_task,2024.2.0,60.14932670715276,2026-01-18 12h44.21.999051 +0530,
,Objects\276a.jpg,73,0,74,,,,,,,j,2.4635972999967635,0.0784733000327833,None,,,,,,74,0,73,366.33595390000846,,,,,,,,,,,,,,,,,,,,,,,366.31973899999866,366.33595390000846,366.821257899981,,,,,,,,,,,,,,,,,,,,,,,366.82908950001,366.85443659999873,366.85443659999873,366.85443659999873,369.83166010002606,indoor,j,2.4635972999967635,0.0784733000327833,369.8317061000271,369.8317190000089,None,,,,,,,,,,,,,,,00048,001,2026-01-18_12h44.08.666,MST_task,2024.2.0,60.14932670715276,2026-01-18 12h44.21.999051 +0530,
,Objects\155a.jpg,74,0,75,,,,,,,j,2.3988379999645986,0.08134830003837124,None,,,,,,75,0,74,369.84836220002035,,,,,,,,,,,,,,,,,,,,,,,369.8318063999759,369.84836220002035,370.3333412000211,,,,,,,,,,,,,,,,,,,,,,,370.3366056000232,370.3504051999771,370.3504051999771,370.3504051999771,373.3438649000018,indoor,j,2.3988379999645986,0.08134830003837124,373.34393640002236,373.3439490000019,None,,,,,,,,,,,,,,,00048,001,2026-01-18_12h44.08.666,MST_task,2024.2.0,60.14932670715276,2026-01-18 12h44.21.999051 +0530,
,Objects\091a.jpg,75,0,76,,,,,,,j,2.0390587000292726,0.0954885000246577,None,,,,,,76,0,75,373.36067959998036,,,,,,,,,,,,,,,,,,,,,,,373.34402030002093,373.36067959998036,373.845628399984,,,,,,,,,,,,,,,,,,,,,,,373.8485408999841,373.86242289998336,373.86242289998336,373.86242289998336,376.85618429997703,indoor,j,2.0390587000292726,0.0954885000246577,376.85622700001113,376.8562392999884,None,,,,,,,,,,,,,,,00048,001,2026-01-18_12h44.08.666,MST_task,2024.2.0,60.14932670715276,2026-01-18 12h44.21.999051 +0530,
,Objects\199a.jpg,76,0,77,,,,,,,j,1.9746127999969758,0.11097009998047724,None,,,,,,77,0,76,376.87308940000366,,,,,,,,,,,,,,,,,,,,,,,376.8563074999838,376.87308940000366,377.35792829998536,,,,,,,,,,,,,,,,,,,,,,,377.3662651000195,377.3915718999924,377.3915718999924,377.3915718999924,380.36859590001404,indoor,j,1.9746127999969758,0.11097009998047724,380.368638999993,380.3686515999725,None,,,,,,,,,,,,,,,00048,001,2026-01-18_12h44.08.666,MST_task,2024.2.0,60.14932670715276,2026-01-18 12h44.21.999051 +0530,
,Objects\064a.jpg,77,0,78,,,,,,,f,1.9335817000246607,0.10414549999404699,None,,,,,,78,0,77,380.38527079997584,,,,,,,,,,,,,,,,,,,,,,,380.36872010002844,380.38527079997584,380.8706098999828,,,,,,,,,,,,,,,,,,,,,,,380.8874796999735,380.9036251999787,380.9036251999787,380.9036251999787,383.8807962000137,shoe,f,1.9335817000246607,0.10414549999404699,383.88226980000036,383.8822875000187,None,,,,,,,,,,,,,,,00048,001,2026-01-18_12h44.08.666,MST_task,2024.2.0,60.14932670715276,2026-01-18 12h44.21.999051 +0530,
,Objects\201a.jpg,78,0,79,,,,,,,f,1.3096334000001661,0.13531460001831874,None,,,,,,79,0,78,383.8975664000027,,,,,,,,,,,,,,,,,,,,,,,383.882404199976,383.8975664000027,384.3825113999774,,,,,,,,,,,,,,,,,,,,,,,384.3891806000029,384.39959280000767,384.39959280000767,384.39959280000767,387.39308459998574,shoe,f,1.3096334000001661,0.13531460001831874,387.3931441999739,387.39316009997856,None,,,,,,,,,,,,,,,00048,001,2026-01-18_12h44.08.666,MST_task,2024.2.0,60.14932670715276,2026-01-18 12h44.21.999051 +0530,
,Objects\181a.jpg,79,0,80,,,,,,,j,1.781200000026729,0.1194893000065349,None,,,,,,80,0,79,387.409868000017,,,,,,,,,,,,,,,,,,,,,,,387.39351089997217,387.409868000017,387.89483250002377,,,,,,,,,,,,,,,,,,,,,,,387.90275579999434,387.9283562999917,387.9283562999917,387.9283562999917,390.90547990001505,shoe,j,1.781200000026729,0.1194893000065349,390.9055221999879,390.9055346000241,None,,,,,,,,,,,,,,,00048,001,2026-01-18_12h44.08.666,MST_task,2024.2.0,60.14932670715276,2026-01-18 12h44.21.999051 +0530,
,Objects\184a.jpg,80,0,81,,,,,,,j,1.6370458000455983,0.09605359996203333,None,,,,,,81,0,80,390.92203630000586,,,,,,,,,,,,,,,,,,,,,,,390.90560180001194,390.92203630000586,391.40728580002906,,,,,,,,,,,,,,,,,,,,,,,391.4171329999808,391.4405233000289,391.4405233000289,391.4405233000289,394.41774090001127,shoe,j,1.6370458000455983,0.09605359996203333,394.41778600000544,394.4177986999857,None,,,,,,,,,,,,,,,00048,001,2026-01-18_12h44.08.666,MST_task,2024.2.0,60.14932670715276,2026-01-18 12h44.21.999051 +0530,
,Objects\285a.jpg,81,0,82,,,,,,,f,2.342047299956903,0.12701900000683963,None,,,,,,82,0,81,394.43446660001064,,,,,,,,,,,,,,,,,,,,,,,394.41840610001236,394.43446660001064,394.9194551000255,,,,,,,,,,,,,,,,,,,,,,,394.9231073000119,394.9362199999741,394.9362199999741,394.9362199999741,397.92997330002254,shoe,f,2.342047299956903,0.12701900000683963,397.9300256000133,397.9300382999936,None,,,,,,,,,,,,,,,00048,001,2026-01-18_12h44.08.666,MST_task,2024.2.0,60.14932670715276,2026-01-18 12h44.21.999051 +0530,
,Objects\230a.jpg,82,0,83,,,,,,,j,1.132704499992542,0.08834019995993003,None,,,,,,83,0,82,397.94676720001735,,,,,,,,,,,,,,,,,,,,,,,397.9301078999997,397.94676720001735,398.43174630001886,,,,,,,,,,,,,,,,,,,,,,,398.4392271999968,398.44779950001976,398.44779950001976,398.44779950001976,401.4425767000066,shoe,j,1.132704499992542,0.08834019995993003,401.44262059999164,401.442633699975,None,,,,,,,,,,,,,,,00048,001,2026-01-18_12h44.08.666,MST_task,2024.2.0,60.14932670715276,2026-01-18 12h44.21.999051 +0530,
,Objects\339a.jpg,83,0,84,,,,,,,j,2.2762970000039786,0.08770299999741837,None,,,,,,84,0,83,401.4589470999781,,,,,,,,,,,,,,,,,,,,,,,401.4427562999772,401.4589470999781,401.9441521000117,,,,,,,,,,,,,,,,,,,,,,,401.95118799997726,401.97742309997557,401.97742309997557,401.97742309997557,404.95487389998743,shoe,j,2.2762970000039786,0.08770299999741837,404.9549224000075,404.95493519998854,None,,,,,,,,,,,,,,,00048,001,2026-01-18_12h44.08.666,MST_task,2024.2.0,60.14932670715276,2026-01-18 12h44.21.999051 +0530,
,Objects\264a.jpg,84,0,85,,,,,,,f,0.7869385000085458,0.11250519996974617,None,,,,,,85,0,84,404.9713882000069,,,,,,,,,,,,,,,,,,,,,,,404.9550155000179,404.9713882000069,405.4564245999791,,,,,,,,,,,,,,,,,,,,,,,405.4637862999807,405.4898482999997,405.4898482999997,405.4898482999997,408.4671167000197,indoor,f,0.7869385000085458,0.11250519996974617,408.4683496999787,408.46836850000545,None,,,,,,,,,,,,,,,00048,001,2026-01-18_12h44.08.666,MST_task,2024.2.0,60.14932670715276,2026-01-18 12h44.21.999051 +0530,
,Objects\068a.jpg,85,0,86,,,,,,,j,2.1010347000556067,0.10346889996435493,None,,,,,,86,0,85,408.48354809999,,,,,,,,,,,,,,,,,,,,,,,408.46874109999044,408.48354809999,408.9687533000251,,,,,,,,,,,,,,,,,,,,,,,408.9764945000061,408.984554100025,408.984554100025,408.984554100025,411.979499100009,indoor,j,2.1010347000556067,0.10346889996435493,411.97954319999553,411.97956200002227,None,,,,,,,,,,,,,,,00048,001,2026-01-18_12h44.08.666,MST_task,2024.2.0,60.14932670715276,2026-01-18 12h44.21.999051 +0530,
,Objects\003a.jpg,86,0,87,,,,,,,j,0.9396077999845147,0.10330969997448847,None,,,,,,87,0,86,411.9959419000079,,,,,,,,,,,,,,,,,,,,,,,411.9796292000101,411.9959419000079,412.4810471999808,,,,,,,,,,,,,,,,,,,,,,,412.4841486000223,412.49772460001986,412.49772460001986,412.49772460001986,415.49159330001567,indoor,j,0.9396077999845147,0.10330969997448847,415.4916527000023,415.49166529998183,None,,,,,,,,,,,,,,,00048,001,2026-01-18_12h44.08.666,MST_task,2024.2.0,60.14932670715276,2026-01-18 12h44.21.999051 +0530,
,Objects\052a.jpg,87,0,88,,,,,,,f,1.1552614999818616,0.11192599998321384,None,,,,,,88,0,87,415.5081558999955,,,,,,,,,,,,,,,,,,,,,,,415.49173479998717,415.5081558999955,415.99362899997504,,,,,,,,,,,,,,,,,,,,,,,415.9963724000263,416.00991580000846,416.00991580000846,416.00991580000846,419.00400489999447,indoor,f,1.1552614999818616,0.11192599998321384,419.00404809997417,419.0040605000104,None,,,,,,,,,,,,,,,00048,001,2026-01-18_12h44.08.666,MST_task,2024.2.0,60.14932670715276,2026-01-18 12h44.21.999051 +0530,
,Objects\043a.jpg,88,0,89,,,,,,,f,1.2746745999902487,0.11232469999231398,None,,,,,,89,0,88,419.02044440002646,,,,,,,,,,,,,,,,,,,,,,,419.00412840000354,419.02044440002646,419.505688300007,,,,,,,,,,,,,,,,,,,,,,,419.50881079997635,419.52230700000655,419.52230700000655,419.52230700000655,422.5161867000279,indoor,f,1.2746745999902487,0.11232469999231398,422.5162362999981,422.51625899999635,None,,,,,,,,,,,,,,,00048,001,2026-01-18_12h44.08.666,MST_task,2024.2.0,60.14932670715276,2026-01-18 12h44.21.999051 +0530,
,Objects\325a.jpg,89,0,90,,,,,,,f,0.9554577000089921,0.10981840000022203,None,,,,,,90,0,89,422.5327362000244,,,,,,,,,,,,,,,,,,,,,,,422.51637049997225,422.5327362000244,423.01803079998353,,,,,,,,,,,,,,,,,,,,,,,423.02615480002714,423.0512187000131,423.0512187000131,423.0512187000131,426.0284480000264,indoor,f,0.9554577000089921,0.10981840000022203,426.028496599989,426.02850870002294,None,,,,,,,,,,,,,,,00048,001,2026-01-18_12h44.08.666,MST_task,2024.2.0,60.14932670715276,2026-01-18 12h44.21.999051 +0530,
,Objects\023a.jpg,90,0,91,,,,,,,f,1.0812681999523193,0.08022669999627396,None,,,,,,91,0,90,426.0452927000006,,,,,,,,,,,,,,,,,,,,,,,426.0286189999897,426.0452927000006,426.5301882000058,,,,,,,,,,,,,,,,,,,,,,,426.53939819999505,426.5637417000253,426.5637417000253,426.5637417000253,429.5408034999855,indoor,f,1.0812681999523193,0.08022669999627396,429.54084650002187,429.5408591000014,None,,,,,,,,,,,,,,,00048,001,2026-01-18_12h44.08.666,MST_task,2024.2.0,60.14932670715276,2026-01-18 12h44.21.999051 +0530,
,Objects\132a.jpg,91,0,92,,,,,,,f,1.337427899998147,0.11164419999113306,None,,,,,,92,0,91,429.55732740001986,,,,,,,,,,,,,,,,,,,,,,,429.54092830000445,429.55732740001986,430.0426781999995,,,,,,,,,,,,,,,,,,,,,,,430.05578330002027,430.07582349999575,430.07582349999575,430.07582349999575,433.05297590000555,shoe,f,1.337427899998147,0.11164419999113306,433.0545356000075,433.05455489997985,None,,,,,,,,,,,,,,,00048,001,2026-01-18_12h44.08.666,MST_task,2024.2.0,60.14932670715276,2026-01-18 12h44.21.999051 +0530,
,Objects\096a.jpg,92,0,93,,,,,,,None,,,j,0.29518499999539927,None,,,,93,0,92,433.06987639999716,,,,,,,,,,,,,,,,,,,,,,,433.0546588000143,433.06987639999716,433.55472200002987,,,,,,,,,,,,,,,,,,,,,,,433.5581269999966,433.57150660001207,433.57150660001207,433.57150660001207,436.5655737000052,shoe,None,,,436.5656132000149,436.8837781000184,j,,436.58200990001205,436.58200990001205,0.29518499999539927,None,,,,,,,,,,00048,001,2026-01-18_12h44.08.666,MST_task,2024.2.0,60.14932670715276,2026-01-18 12h44.21.999051 +0530,
,Objects\160a.jpg,93,0,94,,,,,,,f,1.2513895999873057,0.10461430001305416,None,,,,,,94,0,93,436.89984819997335,,,,,,,,,,,,,,,,,,,,,,,436.8838659999892,436.89984819997335,437.38482989999466,,,,,,,,,,,,,,,,,,,,,,,437.38836440001614,437.40159929997753,437.40159929997753,437.40159929997753,440.3953327999916,shoe,f,1.2513895999873057,0.10461430001305416,440.39538719999837,440.39540560002206,None,,,,,,,,,,,,,,,00048,001,2026-01-18_12h44.08.666,MST_task,2024.2.0,60.14932670715276,2026-01-18 12h44.21.999051 +0530,
,Objects\067a.jpg,94,0,95,,,,,,,f,1.4747555000358261,0.1040006999974139,None,,,,,,95,0,94,440.41212839999935,,,,,,,,,,,,,,,,,,,,,,,440.39547340001445,440.41212839999935,440.89710260002175,,,,,,,,,,,,,,,,,,,,,,,440.9002686999738,440.91412989998935,440.91412989998935,440.91412989998935,443.907755799999,shoe,f,1.4747555000358261,0.1040006999974139,443.90794349997304,443.9079619999975,None,,,,,,,,,,,,,,,00048,001,2026-01-18_12h44.08.666,MST_task,2024.2.0,60.14932670715276,2026-01-18 12h44.21.999051 +0530,
,Objects\218a.jpg,95,0,96,,,,,,,j,1.3143800999969244,0.10410990001400933,None,,,,,,96,0,95,443.92432599997846,,,,,,,,,,,,,,,,,,,,,,,443.90803150000283,443.92432599997846,444.40952739998465,,,,,,,,,,,,,,,,,,,,,,,444.4179092000122,444.44285709998803,444.44285709998803,444.44285709998803,447.4200910999789,shoe,j,1.3143800999969244,0.10410990001400933,447.4201596999774,447.4201734000235,None,,,,,,,,,,,,,,,00048,001,2026-01-18_12h44.08.666,MST_task,2024.2.0,60.14932670715276,2026-01-18 12h44.21.999051 +0530,
,Objects\332a.jpg,96,0,97,,,,,,,j,1.5401205999660306,0.10404200002085418,None,,,,,,97,0,96,447.43673349998426,,,,,,,,,,,,,,,,,,,,,,,447.4202799000195,447.43673349998426,447.9217099000234,,,,,,,,,,,,,,,,,,,,,,,447.9291335999733,447.9377969999914,447.9377969999914,447.9377969999914,450.93212660000427,shoe,j,1.5401205999660306,0.10404200002085418,450.93216829997255,450.9321811000118,None,,,,,,,,,,,,,,,00048,001,2026-01-18_12h44.08.666,MST_task,2024.2.0,60.14932670715276,2026-01-18 12h44.21.999051 +0530,
,Objects\149a.jpg,97,0,98,,,,,,,j,1.7292420000303537,0.09598019998520613,None,,,,,,98,0,97,450.9490447000135,,,,,,,,,,,,,,,,,,,,,,,450.93225190002704,450.9490447000135,451.4341272999882,,,,,,,,,,,,,,,,,,,,,,,451.44237060000887,451.46761739999056,451.46761739999056,451.46761739999056,454.4446571000153,shoe,j,1.7292420000303537,0.09598019998520613,454.4447137999814,454.44472690002294,None,,,,,,,,,,,,,,,00048,001,2026-01-18_12h44.08.666,MST_task,2024.2.0,60.14932670715276,2026-01-18 12h44.21.999051 +0530,
,Objects\066a.jpg,98,0,99,,,,,,,j,1.8972362999920733,0.1118754000053741,None,,,,,,99,0,98,454.46133660001215,,,,,,,,,,,,,,,,,,,,,,,454.4448312000022,454.46133660001215,454.94632109999657,,,,,,,,,,,,,,,,,,,,,,,454.95769609999843,454.9798069000244,454.9798069000244,454.9798069000244,457.9570180000155,indoor,j,1.8972362999920733,0.1118754000053741,457.9582429000293,457.9582616999978,None,,,,,,,,,,,,,,,00048,001,2026-01-18_12h44.08.666,MST_task,2024.2.0,60.14932670715276,2026-01-18 12h44.21.999051 +0530,
,Objects\019a.jpg,99,0,100,,,,,,,None,,,j,0.3359229999477975,None,,,,100,0,99,457.9735333999852,,,,,,,,,,,,,,,,,,,,,,,457.95832989999326,457.9735333999852,458.45925070001977,,,,,,,,,,,,,,,,,,,,,,,458.46870720002335,458.4920006999746,458.4920006999746,458.4920006999746,461.46918040001765,indoor,None,,,461.4692211999791,461.83780899998965,j,,461.4860626999871,461.4860626999871,0.3359229999477975,None,,,,,,,,,,00048,001,2026-01-18_12h44.08.666,MST_task,2024.2.0,60.14932670715276,2026-01-18 12h44.21.999051 +0530,
,Objects\217a.jpg,100,0,101,,,,,,,f,1.8492952999658883,0.13580100005492568,None,,,,,,101,0,100,461.853897700028,,,,,,,,,,,,,,,,,,,,,,,461.83789720002096,461.853897700028,462.338894799992,,,,,,,,,,,,,,,,,,,,,,,462.347242799995,462.37237300002016,462.37237300002016,462.37237300002016,465.3496954999864,indoor,f,1.8492952999658883,0.13580100005492568,465.3499959000037,465.35000999999465,None,,,,,,,,,,,,,,,00048,001,2026-01-18_12h44.08.666,MST_task,2024.2.0,60.14932670715276,2026-01-18 12h44.21.999051 +0530,
,Objects\060a.jpg,101,0,102,,,,,,,f,1.712552200013306,0.10414559999480844,None,,,,,,102,0,101,465.36606939998455,,,,,,,,,,,,,,,,,,,,,,,465.35008609999204,465.36606939998455,465.85127440001816,,,,,,,,,,,,,,,,,,,,,,,465.85910659999354,465.88454380002804,465.88454380002804,465.88454380002804,468.86192390002543,indoor,f,1.712552200013306,0.10414559999480844,468.8622379999724,468.86225220002234,None,,,,,,,,,,,,,,,00048,001,2026-01-18_12h44.08.666,MST_task,2024.2.0,60.14932670715276,2026-01-18 12h44.21.999051 +0530,
,Objects\363a.jpg,102,0,103,,,,,,,f,2.016637700027786,0.09591319999890402,None,,,,,,103,0,102,468.87837930000387,,,,,,,,,,,,,,,,,,,,,,,468.86232329998165,468.87837930000387,469.36405370000284,,,,,,,,,,,,,,,,,,,,,,,469.36688230000436,469.3801225000061,469.3801225000061,469.3801225000061,472.3741360999993,indoor,f,2.016637700027786,0.09591319999890402,472.37417740002275,472.3741895999992,None,,,,,,,,,,,,,,,00048,001,2026-01-18_12h44.08.666,MST_task,2024.2.0,60.14932670715276,2026-01-18 12h44.21.999051 +0530,
,Objects\070a.jpg,103,0,104,,,,,,,f,1.5293534999946132,0.11097059998428449,None,,,,,,104,0,103,472.39067140000407,,,,,,,,,,,,,,,,,,,,,,,472.37425779999467,472.39067140000407,472.87589570001,,,,,,,,,,,,,,,,,,,,,,,472.87925589998486,472.89241219998803,472.89241219998803,472.89241219998803,475.88641949999146,indoor,f,1.5293534999946132,0.11097059998428449,475.8864610000164,475.8864736999967,None,,,,,,,,,,,,,,,00048,001,2026-01-18_12h44.08.666,MST_task,2024.2.0,60.14932670715276,2026-01-18 12h44.21.999051 +0530,
,Objects\225a.jpg,104,0,105,,,,,,,f,1.9436984999920242,0.1289155000122264,None,,,,,,105,0,104,475.9029797000112,,,,,,,,,,,,,,,,,,,,,,,475.8865424999967,475.9029797000112,476.3881739000208,,,,,,,,,,,,,,,,,,,,,,,476.3906308999867,476.4047182999784,476.4047182999784,476.4047182999784,479.3987049999996,indoor,f,1.9436984999920242,0.1289155000122264,479.39889630000107,479.3989095999859,None,,,,,,,,,,,,,,,00048,001,2026-01-18_12h44.08.666,MST_task,2024.2.0,60.14932670715276,2026-01-18 12h44.21.999051 +0530,
,Objects\116a.jpg,105,0,106,,,,,,,f,1.5836760000092909,0.12015879998216406,None,,,,,,106,0,105,479.41527469997527,,,,,,,,,,,,,,,,,,,,,,,479.39897759997984,479.41527469997527,479.90046450000955,,,,,,,,,,,,,,,,,,,,,,,479.9049933999777,479.9170277999947,479.9170277999947,479.9170277999947,482.91118900000583,shoe,f,1.5836760000092909,0.12015879998216406,482.9131324000191,482.91315189999295,None,,,,,,,,,,,,,,,00048,001,2026-01-18_12h44.08.666,MST_task,2024.2.0,60.14932670715276,2026-01-18 12h44.21.999051 +0530,
,Objects\316a.jpg,106,0,107,,,,,,,None,,,j,0.6850152999977581,None,,,,107,0,106,482.9275871000136,,,,,,,,,,,,,,,,,,,,,,,482.91326060000574,482.9275871000136,483.4129725000239,,,,,,,,,,,,,,,,,,,,,,,483.420356800023,483.446049900027,483.446049900027,483.446049900027,486.4233208000078,shoe,None,,,486.4233586000046,487.1263084000093,j,483.446049900027,486.439861699997,486.439861699997,0.6850152999977581,None,,,,,,,,,,00048,001,2026-01-18_12h44.08.666,MST_task,2024.2.0,60.14932670715276,2026-01-18 12h44.21.999051 +0530,
,Objects\021a.jpg,107,0,108,,,,,,,j,2.752689399989322,0.09577519999584183,None,,,,,,108,0,107,487.1423166000168,,,,,,,,,,,,,,,,,,,,,,,487.12639340001624,487.1423166000168,487.6276985000004,,,,,,,,,,,,,,,,,,,,,,,487.6359788000118,487.6608166000224,487.6608166000224,487.6608166000224,490.6379484999925,shoe,j,2.752689399989322,0.09577519999584183,490.63799359998666,490.6380065000267,None,,,,,,,,,,,,,,,00048,001,2026-01-18_12h44.08.666,MST_task,2024.2.0,60.14932670715276,2026-01-18 12h44.21.999051 +0530,
,Objects\110a.jpg,108,0,109,,,,,,,f,1.2802271000109613,0.13616840000031516,None,,,,,,109,0,108,490.6547423999873,,,,,,,,,,,,,,,,,,,,,,,490.6380765999784,490.6547423999873,491.13971439999295,,,,,,,,,,,,,,,,,,,,,,,491.1431404000032,491.1565073999809,491.1565073999809,491.1565073999809,494.15027169999667,shoe,f,1.2802271000109613,0.13616840000031516,494.15032070002053,494.1503342000069,None,,,,,,,,,,,,,,,00048,001,2026-01-18_12h44.08.666,MST_task,2024.2.0,60.14932670715276,2026-01-18 12h44.21.999051 +0530,
,Objects\274a.jpg,109,0,110,,,,,,,j,1.4243090999661945,0.06378640001639724,None,,,,,,110,0,109,494.1671892000013,,,,,,,,,,,,,,,,,,,,,,,494.15069109998876,494.1671892000013,494.6521021000226,,,,,,,,,,,,,,,,,,,,,,,494.6547295000055,494.6691400000127,494.6691400000127,494.6691400000127,497.6626180000021,shoe,j,1.4243090999661945,0.06378640001639724,497.6626636000001,497.66267719998723,None,,,,,,,,,,,,,,,00048,001,2026-01-18_12h44.08.666,MST_task,2024.2.0,60.14932670715276,2026-01-18 12h44.21.999051 +0530,
,Objects\301a.jpg,110,0,111,,,,,,,f,2.4474685000022873,0.13702869997359812,None,,,,,,111,0,110,497.6795492999954,,,,,,,,,,,,,,,,,,,,,,,497.66323860001285,497.6795492999954,498.1643184000277,,,,,,,,,,,,,,,,,,,,,,,498.1674449000275,498.1811576000182,498.1811576000182,498.1811576000182,501.174855499994,shoe,f,2.4474685000022873,0.13702869997359812,501.1749147999799,501.1749275000184,None,,,,,,,,,,,,,,,00048,001,2026-01-18_12h44.08.666,MST_task,2024.2.0,60.14932670715276,2026-01-18 12h44.21.999051 +0530,
,Objects\295a.jpg,111,0,112,,,,,,,f,1.262677100021392,0.10469169996213168,None,,,,,,112,0,111,501.1916373000131,,,,,,,,,,,,,,,,,,,,,,,501.1749993999838,501.1916373000131,501.6766102000256,,,,,,,,,,,,,,,,,,,,,,,501.69239159999415,501.71012340002926,501.71012340002926,501.71012340002926,504.68734359997325,shoe,f,1.262677100021392,0.10469169996213168,504.68739670002833,504.6874102000147,None,,,,,,,,,,,,,,,00048,001,2026-01-18_12h44.08.666,MST_task,2024.2.0,60.14932670715276,2026-01-18 12h44.21.999051 +0530,
,Objects\293a.jpg,112,0,113,,,,,,,f,1.8235609999974258,0.1428608000278473,None,,,,,,113,0,112,504.70394869998563,,,,,,,,,,,,,,,,,,,,,,,504.687683199998,504.70394869998563,505.1888928000117,,,,,,,,,,,,,,,,,,,,,,,505.1959763999912,505.2224143000203,505.2224143000203,505.2224143000203,508.1997492000228,indoor,f,1.8235609999974258,0.1428608000278473,508.2009736999753,508.20099270000355,None,,,,,,,,,,,,,,,00048,001,2026-01-18_12h44.08.666,MST_task,2024.2.0,60.14932670715276,2026-01-18 12h44.21.999051 +0530,
,Objects\381a.jpg,113,0,114,,,,,,,None,,,f,0.18043509998824447,None,,,,114,0,113,508.2161178999813,,,,,,,,,,,,,,,,,,,,,,,508.2010625000112,508.2161178999813,508.7014759000158,,,,,,,,,,,,,,,,,,,,,,,508.70885200001067,508.7345932999742,508.7345932999742,508.7345932999742,511.7119446999859,indoor,None,,,511.7119839999941,511.9134757000138,f,,511.7285489999922,511.7285489999922,0.18043509998824447,None,,,,,,,,,,00048,001,2026-01-18_12h44.08.666,MST_task,2024.2.0,60.14932670715276,2026-01-18 12h44.21.999051 +0530,
,Objects\136a.jpg,114,0,115,,,,,,,f,1.5338830000255257,0.11097049998352304,None,,,,,,115,0,114,511.92924049997237,,,,,,,,,,,,,,,,,,,,,,,511.91356539999833,511.92924049997237,512.4142271999735,,,,,,,,,,,,,,,,,,,,,,,512.4236827000277,512.4477241000277,512.4477241000277,512.4477241000277,515.4254832000006,indoor,f,1.5338830000255257,0.11097049998352304,515.4255257999757,515.4255385000142,None,,,,,,,,,,,,,,,00048,001,2026-01-18_12h44.08.666,MST_task,2024.2.0,60.14932670715276,2026-01-18 12h44.21.999051 +0530,
,Objects\169a.jpg,115,0,116,,,,,,,j,2.8053318000165746,0.10370000003604218,None,,,,,,116,0,115,515.441413099994,,,,,,,,,,,,,,,,,,,,,,,515.4256069000112,515.441413099994,515.9269893000019,,,,,,,,,,,,,,,,,,,,,,,515.9363621000084,515.9599073000136,515.9599073000136,515.9599073000136,518.937046099978,indoor,j,2.8053318000165746,0.10370000003604218,518.9371029000031,518.9371153999818,None,,,,,,,,,,,,,,,00048,001,2026-01-18_12h44.08.666,MST_task,2024.2.0,60.14932670715276,2026-01-18 12h44.21.999051 +0530,
,Objects\084a.jpg,116,0,117,,,,,,,f,2.244843700027559,0.07202809996670112,None,,,,,,117,0,116,518.9538479999756,,,,,,,,,,,,,,,,,,,,,,,518.9371840999811,518.9538479999756,519.4389507999877,,,,,,,,,,,,,,,,,,,,,,,519.4422621999984,519.455593199993,519.455593199993,519.455593199993,522.449461399985,indoor,f,2.244843700027559,0.07202809996670112,522.4495039000176,522.4495418000151,None,,,,,,,,,,,,,,,00048,001,2026-01-18_12h44.08.666,MST_task,2024.2.0,60.14932670715276,2026-01-18 12h44.21.999051 +0530,
,Objects\242a.jpg,117,0,118,,,,,,,j,2.1567253000102937,0.1123529999749735,None,,,,,,118,0,117,522.4660162000218,,,,,,,,,,,,,,,,,,,,,,,522.4496187000186,522.4660162000218,522.9513922000187,,,,,,,,,,,,,,,,,,,,,,,522.9550514000002,522.9679105000105,522.9679105000105,522.9679105000105,525.9618051000289,indoor,j,2.1567253000102937,0.1123529999749735,525.961848100007,525.9618608999881,None,,,,,,,,,,,,,,,00048,001,2026-01-18_12h44.08.666,MST_task,2024.2.0,60.14932670715276,2026-01-18 12h44.21.999051 +0530,
,Objects\071a.jpg,118,0,119,,,,,,,None,,,j,0.9299832999822684,None,,,,119,0,118,525.9784418999916,,,,,,,,,,,,,,,,,,,,,,,525.9619277999736,525.9784418999916,526.4635625000228,,,,,,,,,,,,,,,,,,,,,,,526.4663317999803,526.4800650000107,526.4800650000107,526.4800650000107,529.4741055999766,indoor,None,,,529.4745034999796,530.4279343999806,j,,529.4906070000143,529.4906070000143,0.9299832999822684,None,,,,,,,,,,00048,001,2026-01-18_12h44.08.666,MST_task,2024.2.0,60.14932670715276,2026-01-18 12h44.21.999051 +0530,
,Objects\026a.jpg,119,0,120,,,,,,,f,1.99414019996766,0.12768269999651238,None,,,,,,120,0,119,530.4440806999919,,,,,,,,,,,,,,,,,,,,,,,530.4280222000089,530.4440806999919,530.9291601000004,,,,,,,,,,,,,,,,,,,,,,,530.9401691000094,530.9625680000172,530.9625680000172,530.9625680000172,533.9398688999936,shoe,f,1.99414019996766,0.12768269999651238,533.9414319000207,533.9414528000052,None,,,,,,,,,,,,,,,00048,001,2026-01-18_12h44.08.666,MST_task,2024.2.0,60.14932670715276,2026-01-18 12h44.21.999051 +0530,
,Objects\314a.jpg,120,0,121,,,,,,,f,1.1137029000092298,0.13599799998337403,None,,,,,,121,0,120,533.9563246999751,,,,,,,,,,,,,,,,,,,,,,,533.9415723999846,533.9563246999751,534.441690800013,,,,,,,,,,,,,,,,,,,,,,,534.4572521999944,534.4748555999831,534.4748555999831,534.4748555999831,537.4518951000064,shoe,f,1.1137029000092298,0.13599799998337403,537.4519364999724,537.4519511000253,None,534.4748555999831,,,,,,,,,,,,,,00048,001,2026-01-18_12h44.08.666,MST_task,2024.2.0,60.14932670715276,2026-01-18 12h44.21.999051 +0530,
,Objects\148a.jpg,121,0,122,,,,,,,f,2.370065000024624,0.11207069997908548,None,,,,,,122,0,121,537.4686917000217,,,,,,,,,,,,,,,,,,,,,,,537.4520222999854,537.4686917000217,537.9536252000253,,,,,,,,,,,,,,,,,,,,,,,537.9686235000263,537.9871477999841,537.9871477999841,537.9871477999841,540.9644655999728,shoe,f,2.370065000024624,0.11207069997908548,540.9645071999985,540.964519799978,None,,,,,,,,,,,,,,,00048,001,2026-01-18_12h44.08.666,MST_task,2024.2.0,60.14932670715276,2026-01-18 12h44.21.999051 +0530,
,Objects\252a.jpg,122,0,123,,,,,,,f,1.3303239999804646,0.12807350000366569,None,,,,,,123,0,122,540.9808708999772,,,,,,,,,,,,,,,,,,,,,,,540.9645874000271,540.9808708999772,541.4660701000248,,,,,,,,,,,,,,,,,,,,,,,541.4687280000071,541.482804899977,541.482804899977,541.482804899977,544.4765849999967,shoe,f,1.3303239999804646,0.12807350000366569,544.4766405000119,544.4766538999975,None,,,,,,,,,,,,,,,00048,001,2026-01-18_12h44.08.666,MST_task,2024.2.0,60.14932670715276,2026-01-18 12h44.21.999051 +0530,
,Objects\018a.jpg,123,0,124,,,,,,,f,2.0020602999720722,0.1445784000097774,None,,,,,,124,0,123,544.4931584000005,,,,,,,,,,,,,,,,,,,,,,,544.4767219999922,544.4931584000005,544.9783550000284,,,,,,,,,,,,,,,,,,,,,,,544.9813475999981,544.9948978999746,544.9948978999746,544.9948978999746,547.9889053999796,shoe,f,2.0020602999720722,0.1445784000097774,547.9889600999886,547.9889733999735,None,,,,,,,,,,,,,,,00048,001,2026-01-18_12h44.08.666,MST_task,2024.2.0,60.14932670715276,2026-01-18 12h44.21.999051 +0530,
,Objects\300a.jpg,124,0,125,,,,,,,f,0.9689557999954559,0.11247529997490346,None,,,,,,125,0,124,548.0056355000124,,,,,,,,,,,,,,,,,,,,,,,547.9890412000241,548.0056355000124,548.4906789999804,,,,,,,,,,,,,,,,,,,,,,,548.4986461999943,548.5240381999756,548.5240381999756,548.5240381999756,551.5010614999919,shoe,f,0.9689557999954559,0.11247529997490346,551.5011171000078,551.5011301999912,None,,,,,,,,,,,,,,,00048,001,2026-01-18_12h44.08.666,MST_task,2024.2.0,60.14932670715276,2026-01-18 12h44.21.999051 +0530,
,Objects\001a.jpg,125,0,126,,,,,,,f,1.441481699992437,0.0950159999774769,None,,,,,,126,0,125,551.5178799999994,,,,,,,,,,,,,,,,,,,,,,,551.5011982999858,551.5178799999994,552.002855299972,,,,,,,,,,,,,,,,,,,,,,,552.0183386999997,552.036359300022,552.036359300022,552.036359300022,555.0134984999895,shoe,f,1.441481699992437,0.0950159999774769,555.0135440999875,555.0135570000275,None,,,,,,,,,,,,,,,00048,001,2026-01-18_12h44.08.666,MST_task,2024.2.0,60.14932670715276,2026-01-18 12h44.21.999051 +0530,
,Objects\384a.jpg,126,0,127,,,,,,,f,1.6011409999919124,0.10500219999812543,None,,,,,,127,0,126,555.0301054000156,,,,,,,,,,,,,,,,,,,,,,,555.013629299996,555.0301054000156,555.5154857999878,,,,,,,,,,,,,,,,,,,,,,,555.5201877999934,555.5317886000266,555.5317886000266,555.5317886000266,558.525678200007,indoor,f,1.6011409999919124,0.10500219999812543,558.5269799000234,558.5270007000072,None,,,,,,,,,,,,,,,00048,001,2026-01-18_12h44.08.666,MST_task,2024.2.0,60.14932670715276,2026-01-18 12h44.21.999051 +0530,
,Objects\127a.jpg,127,0,128,,,,,,,f,0.896864700014703,0.12801579997176304,None,,,,,,128,0,127,558.5424889000133,,,,,,,,,,,,,,,,,,,,,,,558.527074099984,558.5424889000133,559.0275634999853,,,,,,,,,,,,,,,,,,,,,,,559.0302589000203,559.0443446999998,559.0443446999998,559.0443446999998,562.0380674999906,indoor,f,0.896864700014703,0.12801579997176304,562.0381126999855,562.0381251000217,None,,,,,,,,,,,,,,,00048,001,2026-01-18_12h44.08.666,MST_task,2024.2.0,60.14932670715276,2026-01-18 12h44.21.999051 +0530,
,Objects\359a.jpg,128,0,129,,,,,,,f,1.3197816999745555,0.0881412000162527,None,,,,,,129,0,128,562.0547783999937,,,,,,,,,,,,,,,,,,,,,,,562.0381994000054,562.0547783999937,562.5399497000035,,,,,,,,,,,,,,,,,,,,,,,562.5481989000109,562.573380100017,562.573380100017,562.573380100017,565.5507292000111,indoor,f,1.3197816999745555,0.0881412000162527,565.5507849000278,565.5507985000149,None,,,,,,,,,,,,,,,00048,001,2026-01-18_12h44.08.666,MST_task,2024.2.0,60.14932670715276,2026-01-18 12h44.21.999051 +0530,
,Objects\047a.jpg,129,0,130,,,,,,,f,1.1679119999753311,0.1198242999962531,None,,,,,,130,0,129,565.5669606999727,,,,,,,,,,,,,,,,,,,,,,,565.5508699999773,565.5669606999727,566.0521434000111,,,,,,,,,,,,,,,,,,,,,,,566.0678872999852,566.0854284000234,566.0854284000234,566.0854284000234,569.0625765000004,indoor,f,1.1679119999753311,0.1198242999962531,569.0626195999794,569.0626323000179,None,,,,,,,,,,,,,,,00048,001,2026-01-18_12h44.08.666,MST_task,2024.2.0,60.14932670715276,2026-01-18 12h44.21.999051 +0530,
,Objects\131a.jpg,130,0,131,,,,,,,j,1.6886241000029258,0.12753860000520945,None,,,,,,131,0,130,569.0794820999727,,,,,,,,,,,,,,,,,,,,,,,569.0630347999977,569.0794820999727,569.5645008999854,,,,,,,,,,,,,,,,,,,,,,,569.5672898999765,569.5811295000021,569.5811295000021,569.5811295000021,572.5748832999961,indoor,j,1.6886241000029258,0.12753860000520945,572.5749253000249,572.5749382000067,None,,,,,,,,,,,,,,,00048,001,2026-01-18_12h44.08.666,MST_task,2024.2.0,60.14932670715276,2026-01-18 12h44.21.999051 +0530,
,Objects\097a.jpg,131,0,132,,,,,,,j,0.9279076000093482,0.11143209994770586,None,,,,,,132,0,131,572.5916776999948,,,,,,,,,,,,,,,,,,,,,,,572.5750072000083,572.5916776999948,573.0768768999842,,,,,,,,,,,,,,,,,,,,,,,573.0794661000255,573.0935246999725,573.0935246999725,573.0935246999725,576.0872970999917,indoor,j,0.9279076000093482,0.11143209994770586,576.0873525000061,576.0873649999849,None,,,,,,,,,,,,,,,00048,001,2026-01-18_12h44.08.666,MST_task,2024.2.0,60.14932670715276,2026-01-18 12h44.21.999051 +0530,
,Objects\095a.jpg,132,0,133,,,,,,,f,1.247443599975668,0.08835880004335195,None,,,,,,133,0,132,576.1039928999962,,,,,,,,,,,,,,,,,,,,,,,576.0874332999811,576.1039928999962,576.5890648000059,,,,,,,,,,,,,,,,,,,,,,,576.5922645999817,576.6056007000152,576.6056007000152,576.6056007000152,579.5998983000172,indoor,f,1.247443599975668,0.08835880004335195,579.5999675000203,579.5999831000227,None,,,,,,,,,,,,,,,00048,001,2026-01-18_12h44.08.666,MST_task,2024.2.0,60.14932670715276,2026-01-18 12h44.21.999051 +0530,
,Objects\034a.jpg,133,0,134,,,,,,,f,1.5832773000001907,0.10377300000982359,None,,,,,,134,0,133,579.6161627999973,,,,,,,,,,,,,,,,,,,,,,,579.6000538999797,579.6161627999973,580.101364400005,,,,,,,,,,,,,,,,,,,,,,,580.1125592999742,580.1346317999996,580.1346317999996,580.1346317999996,583.1118577999878,shoe,f,1.5832773000001907,0.10377300000982359,583.1136080999859,583.1140390000073,None,,,,,,,,,,,,,,,00048,001,2026-01-18_12h44.08.666,MST_task,2024.2.0,60.14932670715276,2026-01-18 12h44.21.999051 +0530,
,Objects\364a.jpg,134,0,135,,,,,,,f,1.6297315999981947,0.14365719998022541,None,,,,,,135,0,134,583.1286931000068,,,,,,,,,,,,,,,,,,,,,,,583.1141535000061,583.1286931000068,583.614181699988,,,,,,,,,,,,,,,,,,,,,,,583.6210665000253,583.6470410000184,583.6470410000184,583.6470410000184,586.6242423999938,shoe,f,1.6297315999981947,0.14365719998022541,586.6242978000082,586.6243122000014,None,583.6470410000184,,,,,,,,,,,,,,00048,001,2026-01-18_12h44.08.666,MST_task,2024.2.0,60.14932670715276,2026-01-18 12h44.21.999051 +0530,
,Objects\313a.jpg,135,0,136,,,,,,,j,2.2220272999838926,0.09556390001671389,None,,,,,,136,0,135,586.6407454999862,,,,,,,,,,,,,,,,,,,,,,,586.6244281000108,586.6407454999862,587.1261210999801,,,,,,,,,,,,,,,,,,,,,,,587.1343394999858,587.1592476000078,587.1592476000078,587.1592476000078,590.1364180999808,shoe,j,2.2220272999838926,0.09556390001671389,590.1364732999937,590.1364860999747,None,,,,,,,,,,,,,,,00048,001,2026-01-18_12h44.08.666,MST_task,2024.2.0,60.14932670715276,2026-01-18 12h44.21.999051 +0530,
,Objects\329a.jpg,136,0,137,,,,,,,f,1.2857317000161856,0.0958907000022009,None,,,,,,137,0,136,590.1531817999785,,,,,,,,,,,,,,,,,,,,,,,590.1368438000209,590.1531817999785,590.6381311999867,,,,,,,,,,,,,,,,,,,,,,,590.6525070000207,590.6716442999896,590.6716442999896,590.6716442999896,593.648708600027,shoe,f,1.2857317000161856,0.0958907000022009,593.6487655999954,593.6487790999818,None,,,,,,,,,,,,,,,00048,001,2026-01-18_12h44.08.666,MST_task,2024.2.0,60.14932670715276,2026-01-18 12h44.21.999051 +0530,
,Objects\120a.jpg,137,0,138,,,,,,,f,1.7404169000219554,0.11259919998701662,None,,,,,,138,0,137,593.6654696000041,,,,,,,,,,,,,,,,,,,,,,,593.649045499973,593.6654696000041,594.1504444999737,,,,,,,,,,,,,,,,,,,,,,,594.1663754999754,594.1839406000217,594.1839406000217,594.1839406000217,597.1611079000286,shoe,f,1.7404169000219554,0.11259919998701662,597.161150400003,597.1611633999855,None,,,,,,,,,,,,,,,00048,001,2026-01-18_12h44.08.666,MST_task,2024.2.0,60.14932670715276,2026-01-18 12h44.21.999051 +0530,
,Objects\243a.jpg,138,0,139,,,,,,,f,1.0603095999686047,0.11359840002842247,None,,,,,,139,0,138,597.1776494000223,,,,,,,,,,,,,,,,,,,,,,,597.1612338999985,597.1776494000223,597.6628613999928,,,,,,,,,,,,,,,,,,,,,,,597.6708866999834,597.6962546000141,597.6962546000141,597.6962546000141,600.6734592000139,shoe,f,1.0603095999686047,0.11359840002842247,600.6735016999883,600.6735148000298,None,,,,,,,,,,,,,,,00048,001,2026-01-18_12h44.08.666,MST_task,2024.2.0,60.14932670715276,2026-01-18 12h44.21.999051 +0530,
,Objects\111a.jpg,139,0,140,,,,,,,j,1.6619464000104927,0.08749819995136932,None,,,,,,140,0,139,600.690228099993,,,,,,,,,,,,,,,,,,,,,,,600.6735866999952,600.690228099993,601.1752316000056,,,,,,,,,,,,,,,,,,,,,,,601.1826089000097,601.1912347999751,601.1912347999751,601.1912347999751,604.1860897000297,shoe,j,1.6619464000104927,0.08749819995136932,604.1861410000129,604.186154199997,None,,,,,,,,,,,,,,,00048,001,2026-01-18_12h44.08.666,MST_task,2024.2.0,60.14932670715276,2026-01-18 12h44.21.999051 +0530,
,Objects\203a.jpg,140,0,141,,,,,,,None,,,j,0.29921799997100607,None,,,,141,0,140,604.2025430999929,,,,,,,,,,,,,,,,,,,,,,,604.1862596999854,604.2025430999929,604.687598199991,,,,,,,,,,,,,,,,,,,,,,,604.6988827000023,604.7210277999984,604.7210277999984,604.7210277999984,607.6983139999793,indoor,None,,,607.6999290999956,608.0161927000154,j,,607.7145703000133,607.7145703000133,0.29921799997100607,None,,,,,,,,,,00048,001,2026-01-18_12h44.08.666,MST_task,2024.2.0,60.14932670715276,2026-01-18 12h44.21.999051 +0530,
,Objects\011a.jpg,141,0,142,,,,,,,f,2.375497400003951,0.11832539999159053,None,,,,,,142,0,141,608.0324513000087,,,,,,,,,,,,,,,,,,,,,,,608.0162786000292,608.0324513000087,608.517441199976,,,,,,,,,,,,,,,,,,,,,,,608.5263411999913,608.5509174999897,608.5509174999897,608.5509174999897,611.5280716000125,indoor,f,2.375497400003951,0.11832539999159053,611.5282592999865,611.5282738999813,None,,,,,,,,,,,,,,,00048,001,2026-01-18_12h44.08.666,MST_task,2024.2.0,60.14932670715276,2026-01-18 12h44.21.999051 +0530,
,Objects\188a.jpg,142,0,143,,,,,,,f,1.2066098999930546,0.12016069999663159,None,,,,,,143,0,142,611.5446268999949,,,,,,,,,,,,,,,,,,,,,,,611.528341999976,611.5446268999949,612.0301496000029,,,,,,,,,,,,,,,,,,,,,,,612.033251099987,612.0465184000204,612.0465184000204,612.0465184000204,615.040497399983,indoor,f,1.2066098999930546,0.12016069999663159,615.0406991000054,615.0407137000002,None,,,,,,,,,,,,,,,00048,001,2026-01-18_12h44.08.666,MST_task,2024.2.0,60.14932670715276,2026-01-18 12h44.21.999051 +0530,
,Objects\358a.jpg,143,0,144,,,,,,,j,1.4129995999974199,0.09742020000703633,None,,,,,,144,0,143,615.0570207000128,,,,,,,,,,,,,,,,,,,,,,,615.0407943999744,615.0570207000128,615.5421377000166,,,,,,,,,,,,,,,,,,,,,,,615.5501612999942,615.5753984000185,615.5753984000185,615.5753984000185,618.5525600999827,indoor,j,1.4129995999974199,0.09742020000703633,618.5526024000137,618.5526157999993,None,,,,,,,,,,,,,,,00048,001,2026-01-18_12h44.08.666,MST_task,2024.2.0,60.14932670715276,2026-01-18 12h44.21.999051 +0530,
,Objects\284a.jpg,144,0,145,,,,,,,j,1.4300157999969088,0.09614350000629202,None,,,,,,145,0,144,618.5693601000239,,,,,,,,,,,,,,,,,,,,,,,618.552683899994,618.5693601000239,619.0548260000069,,,,,,,,,,,,,,,,,,,,,,,619.0612642000197,619.070398300013,619.070398300013,619.070398300013,622.0648627000046,indoor,j,1.4300157999969088,0.09614350000629202,622.0649189000251,622.0649322000099,None,,,,,,,,,,,,,,,00048,001,2026-01-18_12h44.08.666,MST_task,2024.2.0,60.14932670715276,2026-01-18 12h44.21.999051 +0530,
,Objects\281a.jpg,145,0,146,,,,,,,None,,,f,1.635844900039956,None,,,,146,0,145,622.0816642999998,,,,,,,,,,,,,,,,,,,,,,,622.065005499986,622.0816642999998,622.5666172999772,,,,,,,,,,,,,,,,,,,,,,,622.5749893999891,622.6001600999734,622.6001600999734,622.6001600999734,625.5771400000085,indoor,None,,,625.5771900999825,627.2335219000233,f,,625.5939255999983,625.5939255999983,1.635844900039956,None,,,,,,,,,,00048,001,2026-01-18_12h44.08.666,MST_task,2024.2.0,60.14932670715276,2026-01-18 12h44.21.999051 +0530,
,Objects\200a.jpg,146,0,147,,,,,,,j,1.814167800010182,0.1114782000076957,None,,,,,,147,0,146,627.2498131999746,,,,,,,,,,,,,,,,,,,,,,,627.2336106000002,627.2498131999746,627.7350224999827,,,,,,,,,,,,,,,,,,,,,,,627.74142939999,627.7508610999794,627.7508610999794,627.7508610999794,630.7454067000072,indoor,j,1.814167800010182,0.1114782000076957,630.7454482999747,630.7454617000185,None,,,,,,,,,,,,,,,00048,001,2026-01-18_12h44.08.666,MST_task,2024.2.0,60.14932670715276,2026-01-18 12h44.21.999051 +0530,
,Objects\152a.jpg,147,0,148,,,,,,,f,1.5080156000331044,0.097176400013268,None,,,,,,148,0,147,630.7619198000175,,,,,,,,,,,,,,,,,,,,,,,630.7455298000132,630.7619198000175,631.2471167999902,,,,,,,,,,,,,,,,,,,,,,,631.2637289999984,631.2803923999891,631.2803923999891,631.2803923999891,634.2575440999935,shoe,f,1.5080156000331044,0.097176400013268,634.2591923000291,634.2592091999832,None,,,,,,,,,,,,,,,00048,001,2026-01-18_12h44.08.666,MST_task,2024.2.0,60.14932670715276,2026-01-18 12h44.21.999051 +0530,
,Objects\346a.jpg,148,0,149,,,,,,,j,1.1093547000200488,0.11077169998316094,None,,,,,,149,0,148,634.2743743999745,,,,,,,,,,,,,,,,,,,,,,,634.259316599986,634.2743743999745,634.7592923999764,,,,,,,,,,,,,,,,,,,,,,,634.7748438999988,634.7928137999843,634.7928137999843,634.7928137999843,637.7699976000004,shoe,j,1.1093547000200488,0.11077169998316094,637.7703137000208,637.7703274000087,None,,,,,,,,,,,,,,,00048,001,2026-01-18_12h44.08.666,MST_task,2024.2.0,60.14932670715276,2026-01-18 12h44.21.999051 +0530,
,Objects\251a.jpg,149,0,150,,,,,,,f,0.9733291000011377,0.12772799999220297,None,,,,,,150,0,149,637.7865252000047,,,,,,,,,,,,,,,,,,,,,,,637.7704600000288,637.7865252000047,638.2717093999963,,,,,,,,,,,,,,,,,,,,,,,638.278384300007,638.2876637000008,638.2876637000008,638.2876637000008,641.2824694999726,shoe,f,0.9733291000011377,0.12772799999220297,641.2825134000159,641.2825267000007,None,,,,,,,,,,,,,,,00048,001,2026-01-18_12h44.08.666,MST_task,2024.2.0,60.14932670715276,2026-01-18 12h44.21.999051 +0530,
,Objects\210a.jpg,150,0,151,,,,,,,f,0.9255139000015333,0.07950729998992756,None,,,,,,151,0,150,641.2988081999938,,,,,,,,,,,,,,,,,,,,,,,641.2825956000015,641.2988081999938,641.7840057000285,,,,,,,,,,,,,,,,,,,,,,,641.7909537000232,641.7999795000069,641.7999795000069,641.7999795000069,644.7948135000188,shoe,f,0.9255139000015333,0.07950729998992756,644.7948575000046,644.7948715999955,None,,,,,,,,,,,,,,,00048,001,2026-01-18_12h44.08.666,MST_task,2024.2.0,60.14932670715276,2026-01-18 12h44.21.999051 +0530,
,Objects\247a.jpg,151,0,152,,,,,,,f,1.3639278000337072,0.10321659996407107,None,,,,,,152,0,151,644.8111220999854,,,,,,,,,,,,,,,,,,,,,,,644.7949435000191,644.8111220999854,645.2963340000133,,,,,,,,,,,,,,,,,,,,,,,645.3044332999852,645.3297064999933,645.3297064999933,645.3297064999933,648.3067776000244,shoe,f,1.3639278000337072,0.10321659996407107,648.3068320999737,648.3068460000213,None,,,,,,,,,,,,,,,00048,001,2026-01-18_12h44.08.666,MST_task,2024.2.0,60.14932670715276,2026-01-18 12h44.21.999051 +0530,
,Objects\362a.jpg,152,0,153,,,,,,,f,0.9951230000006035,0.1032061000005342,None,,,,,,153,0,152,648.3235256000189,,,,,,,,,,,,,,,,,,,,,,,648.3070995999733,648.3235256000189,648.80863460002,,,,,,,,,,,,,,,,,,,,,,,648.8231003999826,648.8420107000275,648.8420107000275,648.8420107000275,651.8191525000148,shoe,f,0.9951230000006035,0.1032061000005342,651.8192162999767,651.8192351000034,None,,,,,,,,,,,,,,,00048,001,2026-01-18_12h44.08.666,MST_task,2024.2.0,60.14932670715276,2026-01-18 12h44.21.999051 +0530,
,Objects\125a.jpg,153,0,154,,,,,,,j,2.634688800026197,0.11241969995899126,None,,,,,,154,0,153,651.8357303999946,,,,,,,,,,,,,,,,,,,,,,,651.819316899986,651.8357303999946,652.3210265000234,,,,,,,,,,,,,,,,,,,,,,,652.3301914000185,652.3541908999905,652.3541908999905,652.3541908999905,655.3314583000029,shoe,j,2.634688800026197,0.11241969995899126,655.3315125000081,655.3315256999922,None,,,,,,,,,,,,,,,00048,001,2026-01-18_12h44.08.666,MST_task,2024.2.0,60.14932670715276,2026-01-18 12h44.21.999051 +0530,
,Objects\368a.jpg,154,0,155,,,,,,,f,0.9228389000054449,0.07220170000800863,None,,,,,,155,0,154,655.3483227000106,,,,,,,,,,,,,,,,,,,,,,,655.3316475999891,655.3483227000106,655.8336067000055,,,,,,,,,,,,,,,,,,,,,,,655.8486758000217,655.8666789000272,655.8666789000272,655.8666789000272,658.8437969000079,indoor,f,0.9228389000054449,0.07220170000800863,658.8450626999838,658.8450816000113,None,,,,,,,,,,,,,,,00048,001,2026-01-18_12h44.08.666,MST_task,2024.2.0,60.14932670715276,2026-01-18 12h44.21.999051 +0530,
,Objects\192a.jpg,155,0,156,,,,,,,j,1.497989299998153,0.11281909997342154,None,,,,,,156,0,155,658.8604310000082,,,,,,,,,,,,,,,,,,,,,,,658.8451503000106,658.8604310000082,659.3455246000085,,,,,,,,,,,,,,,,,,,,,,,659.3536775999819,659.378807400004,659.378807400004,659.378807400004,662.3564482000074,indoor,j,1.497989299998153,0.11281909997342154,662.3564888000255,662.3565014000051,None,,,,,,,,,,,,,,,00048,001,2026-01-18_12h44.08.666,MST_task,2024.2.0,60.14932670715276,2026-01-18 12h44.21.999051 +0530,
,Objects\370a.jpg,156,0,157,,,,,,,j,1.0667647999944165,0.08813459996599704,None,,,,,,157,0,156,662.3726293999935,,,,,,,,,,,,,,,,,,,,,,,662.3565690999967,662.3726293999935,662.8578534999979,,,,,,,,,,,,,,,,,,,,,,,662.8607854999718,662.874370799982,662.874370799982,662.874370799982,665.8683669000166,indoor,j,1.0667647999944165,0.08813459996599704,665.8684088999871,665.8684492000029,None,,,,,,,,,,,,,,,00048,001,2026-01-18_12h44.08.666,MST_task,2024.2.0,60.14932670715276,2026-01-18 12h44.21.999051 +0530,
,Objects\106a.jpg,157,0,158,,,,,,,f,1.0100464999559335,0.07953039999119937,None,,,,,,158,0,157,665.8849219999975,,,,,,,,,,,,,,,,,,,,,,,665.8685285000247,665.8849219999975,666.3702413000283,,,,,,,,,,,,,,,,,,,,,,,666.3728407999733,666.3868995999801,666.3868995999801,666.3868995999801,669.380662599986,indoor,f,1.0100464999559335,0.07953039999119937,669.3807180000003,669.3807311999844,None,,,,,,,,,,,,,,,00048,001,2026-01-18_12h44.08.666,MST_task,2024.2.0,60.14932670715276,2026-01-18 12h44.21.999051 +0530,
,Objects\121a.jpg,158,0,159,,,,,,,None,,,f,0.35902610002085567,None,,,,159,0,158,669.3972249000217,,,,,,,,,,,,,,,,,,,,,,,669.3808042000164,669.3972249000217,669.8824176000198,,,,,,,,,,,,,,,,,,,,,,,669.8853131000069,669.8990983000258,669.8990983000258,669.8990983000258,672.8931184000103,indoor,None,,,672.8931686999858,673.2780459999922,f,,672.9094941000221,672.9094941000221,0.35902610002085567,None,,,,,,,,,,00048,001,2026-01-18_12h44.08.666,MST_task,2024.2.0,60.14932670715276,2026-01-18 12h44.21.999051 +0530,
,Objects\165a.jpg,159,0,160,,,,,,,f,0.8093075000215322,0.11236219998681918,None,,,,,,160,0,159,673.2943784000236,,,,,,,,,,,,,,,,,,,,,,,673.2781420000247,673.2943784000236,673.7792673999793,,,,,,,,,,,,,,,,,,,,,,,673.7818265000242,673.7960638999939,673.7960638999939,673.7960638999939,676.7898241999792,indoor,f,0.8093075000215322,0.11236219998681918,676.7898777999799,676.7898914000252,None,,,,,,,,,,,,,,,00048,001,2026-01-18_12h44.08.666,MST_task,2024.2.0,60.14932670715276,2026-01-18 12h44.21.999051 +0530,
,Objects\197a.jpg,160,0,161,,,,,,,j,0.9129166000057012,0.10296690004179254,None,,,,,,161,0,160,676.8067559999763,,,,,,,,,,,,,,,,,,,,,,,676.7899602000252,676.8067559999763,677.2922631999827,,,,,,,,,,,,,,,,,,,,,,,677.295558999991,677.3085230999859,677.3085230999859,677.3085230999859,680.3022362000193,indoor,j,0.9129166000057012,0.10296690004179254,680.3022774999845,680.3022909000283,None,,,,,,,,,,,,,,,00048,001,2026-01-18_12h44.08.666,MST_task,2024.2.0,60.14932670715276,2026-01-18 12h44.21.999051 +0530,
,Objects\015a.jpg,161,0,162,,,,,,,f,1.7032160999951884,0.10382030002074316,None,,,,,,162,0,161,680.3189098000294,,,,,,,,,,,,,,,,,,,,,,,680.3023600999732,680.3189098000294,680.8041214999976,,,,,,,,,,,,,,,,,,,,,,,680.817373799975,680.8372883999837,680.8372883999837,680.8372883999837,683.8144636999932,shoe,f,1.7032160999951884,0.10382030002074316,683.8160602999851,683.816082699981,None,,,,,,,,,,,,,,,00048,001,2026-01-18_12h44.08.666,MST_task,2024.2.0,60.14932670715276,2026-01-18 12h44.21.999051 +0530,
,Objects\053a.jpg,162,0,163,,,,,,,f,2.006926400004886,0.10431840003002435,None,,,,,,163,0,162,683.8319728000206,,,,,,,,,,,,,,,,,,,,,,,683.8161988999927,683.8319728000206,684.3161863000132,,,,,,,,,,,,,,,,,,,,,,,684.3268766999827,684.3496996000176,684.3496996000176,684.3496996000176,687.327002200007,shoe,f,2.006926400004886,0.10431840003002435,687.3270434000297,687.327056900016,None,,,,,,,,,,,,,,,00048,001,2026-01-18_12h44.08.666,MST_task,2024.2.0,60.14932670715276,2026-01-18 12h44.21.999051 +0530,
,Objects\054a.jpg,163,0,164,,,,,,,j,0.8799307000008412,0.08020500000566244,None,,,,,,164,0,163,687.3436113999924,,,,,,,,,,,,,,,,,,,,,,,687.3271624000045,687.3436113999924,687.8287635999732,,,,,,,,,,,,,,,,,,,,,,,687.8317989999778,687.8452994999825,687.8452994999825,687.8452994999825,690.8391509000212,shoe,j,0.8799307000008412,0.08020500000566244,690.8392256000079,690.8392393999966,None,,,,,,,,,,,,,,,00048,001,2026-01-18_12h44.08.666,MST_task,2024.2.0,60.14932670715276,2026-01-18 12h44.21.999051 +0530,
,Objects\005a.jpg,164,0,165,,,,,,,f,1.0239259999943897,0.11051269999006763,None,,,,,,165,0,164,690.8556948999758,,,,,,,,,,,,,,,,,,,,,,,690.8393486000132,690.8556948999758,691.3417809000239,,,,,,,,,,,,,,,,,,,,,,,691.3446131999954,691.3583431000006,691.3583431000006,691.3583431000006,694.3520880999858,shoe,f,1.0239259999943897,0.11051269999006763,694.3521278999979,694.3521405999782,None,,,,,,,,,,,,,,,00048,001,2026-01-18_12h44.08.666,MST_task,2024.2.0,60.14932670715276,2026-01-18 12h44.21.999051 +0530,
,Objects\089a.jpg,165,0,166,,,,,,,j,1.6317097999854013,0.11119540000800043,None,,,,,,166,0,165,694.3687868000125,,,,,,,,,,,,,,,,,,,,,,,694.3522434000042,694.3687868000125,694.8533773000236,,,,,,,,,,,,,,,,,,,,,,,694.856100999983,694.8698688999866,694.8698688999866,694.8698688999866,697.8637822999735,shoe,j,1.6317097999854013,0.11119540000800043,697.8638233999955,697.8638364999788,None,,,,,,,,,,,,,,,00048,001,2026-01-18_12h44.08.666,MST_task,2024.2.0,60.14932670715276,2026-01-18 12h44.21.999051 +0530,
,Objects\027a.jpg,166,0,167,,,,,,,f,2.8953964000102133,None,None,,,,,,167,0,166,697.8805583000067,,,,,,,,,,,,,,,,,,,,,,,697.863955000008,697.8805583000067,698.365367099992,,,,,,,,,,,,,,,,,,,,,,,698.3682977000135,698.3823401000118,698.3823401000118,698.3823401000118,701.3761060999823,shoe,f,2.8953964000102133,None,701.3761621000012,701.3761760999914,None,,,,,,,,,,,,,,,00048,001,2026-01-18_12h44.08.666,MST_task,2024.2.0,60.14932670715276,2026-01-18 12h44.21.999051 +0530,
,Objects\227a.jpg,167,0,168,,,,,,,None,,,j,0.005383099953178316,None,,,,168,0,167,701.392895500001,,,,,,,,,,,,,,,,,,,,,,,701.3762570000254,701.392895500001,701.877830500016,,,,,,,,,,,,,,,,,,,,,,,701.8838248000247,701.8936558000278,701.8936558000278,701.8936558000278,704.8884446999873,shoe,None,,,704.8884822999826,704.9224178000004,j,,704.9054583000252,704.9054583000252,0.005383099953178316,None,,,,,,,,,,00048,001,2026-01-18_12h44.08.666,MST_task,2024.2.0,60.14932670715276,2026-01-18 12h44.21.999051 +0530,
,Objects\035a.jpg,168,0,169,,,,,,,j,2.165013399964664,0.10310050001135096,None,,,,,,169,0,168,704.938903799979,,,,,,,,,,,,,,,,,,,,,,,704.9225010999944,704.938903799979,705.4237839999842,,,,,,,,,,,,,,,,,,,,,,,705.4274435000261,705.4402711999719,705.4402711999719,705.4402711999719,708.4342821000027,indoor,j,2.165013399964664,0.10310050001135096,708.4354803999886,708.4354994000169,None,,,,,,,,,,,,,,,00048,001,2026-01-18_12h44.08.666,MST_task,2024.2.0,60.14932670715276,2026-01-18 12h44.21.999051 +0530,
,Objects\255a.jpg,169,0,170,,,,,,,None,,,j,0.1544245999539271,None,,,,170,0,169,708.4508055999759,,,,,,,,,,,,,,,,,,,,,,,708.4355706999777,708.4508055999759,708.9360247000004,,,,,,,,,,,,,,,,,,,,,,,708.9430240999791,708.951959100028,708.951959100028,708.951959100028,711.9465540000238,indoor,None,,,711.9467207000125,712.1307811000152,j,,711.9631297999877,711.9631297999877,0.1544245999539271,None,,,,,,,,,,00048,001,2026-01-18_12h44.08.666,MST_task,2024.2.0,60.14932670715276,2026-01-18 12h44.21.999051 +0530,
,Objects\115a.jpg,170,0,171,,,,,,,f,1.1463664000038989,0.08023880003020167,None,,,,,,171,0,170,712.1472461000085,,,,,,,,,,,,,,,,,,,,,,,712.1308657000191,712.1472461000085,712.6325628000195,,,,,,,,,,,,,,,,,,,,,,,712.6401788999792,712.6661027999944,712.6661027999944,712.6661027999944,715.6426599000115,indoor,f,1.1463664000038989,0.08023880003020167,715.6427040999988,715.6427182999905,None,,,,,,,,,,,,,,,00048,001,2026-01-18_12h44.08.666,MST_task,2024.2.0,60.14932670715276,2026-01-18 12h44.21.999051 +0530,
,Objects\375a.jpg,171,0,172,,,,,,,f,1.9870979000115767,0.11186190001899377,None,,,,,,172,0,171,715.6599511000095,,,,,,,,,,,,,,,,,,,,,,,715.6427873999928,715.6599511000095,716.1445772000006,,,,,,,,,,,,,,,,,,,,,,,716.1521611000062,716.1778799999738,716.1778799999738,716.1778799999738,719.1550595000153,indoor,f,1.9870979000115767,0.11186190001899377,719.1551034000004,719.1551166999852,None,,,,,,,,,,,,,,,00048,001,2026-01-18_12h44.08.666,MST_task,2024.2.0,60.14932670715276,2026-01-18 12h44.21.999051 +0530,
,Objects\080a.jpg,172,0,173,,,,,,,f,1.1060783000430092,0.08825329999672249,None,,,,,,173,0,172,719.1717925000121,,,,,,,,,,,,,,,,,,,,,,,719.155185599986,719.1717925000121,719.6568205999793,,,,,,,,,,,,,,,,,,,,,,,719.6646140000084,719.6903014000272,719.6903014000272,719.6903014000272,722.6674667000188,indoor,f,1.1060783000430092,0.08825329999672249,722.6675095999963,722.6675219999743,None,,,,,,,,,,,,,,,00048,001,2026-01-18_12h44.08.666,MST_task,2024.2.0,60.14932670715276,2026-01-18 12h44.21.999051 +0530,
,Objects\193a.jpg,173,0,174,,,,,,,f,2.131434300041292,0.11141259997384623,None,,,,,,174,0,173,722.6840041999822,,,,,,,,,,,,,,,,,,,,,,,722.6675910999766,722.6840041999822,723.169229399995,,,,,,,,,,,,,,,,,,,,,,,723.1722418999998,723.1857529000263,723.1857529000263,723.1857529000263,726.1797406999976,indoor,f,2.131434300041292,0.11141259997384623,726.1798331000027,726.1798491000081,None,,,,,,,,,,,,,,,00048,001,2026-01-18_12h44.08.666,MST_task,2024.2.0,60.14932670715276,2026-01-18 12h44.21.999051 +0530,
,Objects\135a.jpg,174,0,175,,,,,,,f,0.7795663999859244,0.10376090003410354,None,,,,,,175,0,174,726.1962987000006,,,,,,,,,,,,,,,,,,,,,,,726.179920500028,726.1962987000006,726.6815154000069,,,,,,,,,,,,,,,,,,,,,,,726.684273299994,726.698041399999,726.698041399999,726.698041399999,729.6921312999912,indoor,f,0.7795663999859244,0.10376090003410354,729.6921730000176,729.6921855999972,None,,,,,,,,,,,,,,,00048,001,2026-01-18_12h44.08.666,MST_task,2024.2.0,60.14932670715276,2026-01-18 12h44.21.999051 +0530,
,Objects\129a.jpg,175,0,176,,,,,,,f,2.322185700002592,0.10415949998423457,None,,,,,,176,0,175,729.7085831000004,,,,,,,,,,,,,,,,,,,,,,,729.6922538999934,729.7085831000004,730.1937909999979,,,,,,,,,,,,,,,,,,,,,,,730.1980945999967,730.2103068000288,730.2103068000288,730.2103068000288,733.2042577000102,shoe,f,2.322185700002592,0.10415949998423457,733.2062232000171,733.2062478000298,None,,,,,,,,,,,,,,,00048,001,2026-01-18_12h44.08.666,MST_task,2024.2.0,60.14932670715276,2026-01-18 12h44.21.999051 +0530,
,Objects\254a.jpg,176,0,177,,,,,,,None,,,j,0.08034849999239668,None,,,,177,0,176,733.2210460000206,,,,,,,,,,,,,,,,,,,,,,,733.2063608000171,733.2210460000206,733.706286999979,,,,,,,,,,,,,,,,,,,,,,,733.714767700003,733.7393246000283,733.7393246000283,733.7393246000283,736.7165962000145,shoe,None,,,736.7166882000165,736.817361399997,j,733.7393246000283,736.7330069000018,736.7330069000018,0.08034849999239668,None,,,,,,,,,,00048,001,2026-01-18_12h44.08.666,MST_task,2024.2.0,60.14932670715276,2026-01-18 12h44.21.999051 +0530,
,Objects\010a.jpg,177,0,178,,,,,,,f,1.40505599998869,0.08844119997229427,None,,,,,,178,0,177,736.8333660999779,,,,,,,,,,,,,,,,,,,,,,,736.8174969999818,736.8333660999779,737.3185537999962,,,,,,,,,,,,,,,,,,,,,,,737.3329682999756,737.3519777000183,737.3519777000183,737.3519777000183,740.3290757000213,shoe,f,1.40505599998869,0.08844119997229427,740.3291182999965,740.3291323999874,None,,,,,,,,,,,,,,,00048,001,2026-01-18_12h44.08.666,MST_task,2024.2.0,60.14932670715276,2026-01-18 12h44.21.999051 +0530,
,Objects\042a.jpg,178,0,179,,,,,,,None,,,j,0.3545225000125356,None,,,,179,0,178,740.3458246000228,,,,,,,,,,,,,,,,,,,,,,,740.32934940001,740.3458246000228,740.8307527999859,,,,,,,,,,,,,,,,,,,,,,,740.8423122999957,740.8642701000208,740.8642701000208,740.8642701000208,743.8415234999848,shoe,None,,,743.8415604999755,744.2266829999862,j,,743.8579668999882,743.8579668999882,0.3545225000125356,None,,,,,,,,,,00048,001,2026-01-18_12h44.08.666,MST_task,2024.2.0,60.14932670715276,2026-01-18 12h44.21.999051 +0530,
,Objects\119a.jpg,179,0,180,,,,,,,f,2.212353299953975,0.0962388000334613,None,,,,,,180,0,179,744.24275819998,,,,,,,,,,,,,,,,,,,,,,,744.2267707000137,744.24275819998,744.727716399997,,,,,,,,,,,,,,,,,,,,,,,744.7309820000082,744.7446385999792,744.7446385999792,744.7446385999792,747.7385358000174,shoe,f,2.212353299953975,0.0962388000334613,747.7388627000037,747.7388763999916,None,,,,,,,,,,,,,,,00048,001,2026-01-18_12h44.08.666,MST_task,2024.2.0,60.14932670715276,2026-01-18 12h44.21.999051 +0530,
,Objects\208a.jpg,180,0,181,,,,,,,j,2.731502799957525,0.11154410004382953,None,,,,,,181,0,180,747.7552294000052,,,,,,,,,,,,,,,,,,,,,,,747.73899849999,747.7552294000052,748.2403582999832,,,,,,,,,,,,,,,,,,,,,,,748.2557486000005,748.2734337999718,748.2734337999718,748.2734337999718,751.2505630999804,shoe,j,2.731502799957525,0.11154410004382953,751.2506031999947,751.250615899975,None,,,,,,,,,,,,,,,00048,001,2026-01-18_12h44.08.666,MST_task,2024.2.0,60.14932670715276,2026-01-18 12h44.21.999051 +0530,
