Sl_no,image_path,thisN,thisTrialN,thisRepN,key_resp_5.keys,key_resp_5.rt,key_resp_5.duration,key_resp_7.keys,key_resp_7.rt,key_resp_7.duration,key_resp_9.keys,key_resp_9.rt,key_resp_9.duration,key_resp_8.keys,key_resp_8.rt,key_resp_8.duration,practice.thisRepN,practice.thisTrialN,practice.thisN,trials.thisRepN,trials.thisTrialN,trials.thisN,thisRow.t,notes,welcome_page.started,text.started,key_resp.started,welcome_page.stopped,key_resp.keys,key_resp.rt,key_resp.duration,instructions.started,ins.started,key_resp_2.started,instructions.stopped,key_resp_2.keys,key_resp_2.rt,key_resp_2.duration,objects_only_instruction.started,text_3.started,key_resp_3.started,objects_only_instruction.stopped,key_resp_3.keys,key_resp_3.rt,key_resp_3.duration,ISI.started,text_4.started,ISI.stopped,practice_block.started,image.started,key_resp_5.started,text_5.started,practice_block.stopped,practice.key_resp_5.keys,practice.key_resp_5.rt,practice.key_resp_5.duration,indoor_outdoor.started,indoor_outdoor.stopped,practice.key_resp_7.keys,text_4.stopped,text_7.started,key_resp_7.started,practice.key_resp_7.rt,practice.key_resp_7.duration,practice_to_main.started,text_2.started,key_resp_4.started,practice_to_main.stopped,key_resp_4.keys,key_resp_4.rt,key_resp_4.duration,objects.started,image_2.started,text_9.started,key_resp_9.started,objects.stopped,category,trials.key_resp_9.keys,trials.key_resp_9.rt,trials.key_resp_9.duration,encoding_task.started,encoding_task.stopped,trials.key_resp_8.keys,text_8.started,key_resp_8.started,trials.key_resp_8.rt,trials.key_resp_8.duration,end_experiment.started,text_6.started,key_resp_6.started,end_experiment.stopped,key_resp_6.keys,key_resp_6.rt,key_resp_6.duration,list_of_stimuli,encoding_task_accuracy,participant,session,date,expName,psychopyVersion,frameRate,expStart,
,,,,,,,,,,,,,,,,,,,,,,,,,0.013975700014270842,0.030407799989916384,0.030407799989916384,11.358376700023655,space,11.314255199977197,None,,,,,,,,,,,,,,,,,,,,,,,,,,,,,,,,,,,,,,,,,,,,,,,,,,,,,,,,,,,,,,,,,,00042,001,2026-01-17_16h29.52.993,MST_task,2024.2.0,60.09095367448805,2026-01-17 16h30.06.274002 +0530,
,,,,,,,,,,,,,,,,,,,,,,,,,,,,,,,,11.358413800015114,11.388541800028179,11.388541800028179,72.36981340002967,space,60.97168459999375,None,,,,,,,,,,,,,,,,,,,,,,,,,,,,,,,,,,,,,,,,,,,,,,,,,,,,,,,,,,,00042,001,2026-01-17_16h29.52.993,MST_task,2024.2.0,60.09095367448805,2026-01-17 16h30.06.274002 +0530,
,,,,,,,,,,,,,,,,,,,,,,,,,,,,,,,,,,,,,,,72.36985170003027,72.385201600031,72.385201600031,84.49543300003279,space,12.096321900025941,None,,,,,,,,,,,,,,,,,,,,,,,,,,,,,,,,,,,,,,,,,,,,,,,,,,,,00042,001,2026-01-17_16h29.52.993,MST_task,2024.2.0,60.09095367448805,2026-01-17 16h30.06.274002 +0530,
8,practice_images/178a.jpg,0,0,1,f,2.6279477999778464,0.17503759998362511,None,,,,,,,,,1,0,0,,,,84.511390700005,,,,,,,,,,,,,,,,,,,,,,,84.49915280001005,84.511390700005,84.99636729998747,85.00581790000433,85.01350530004129,85.01350530004129,85.01350530004129,88.00703909998992,f,2.6279477999778464,0.17503759998362511,88.00882200000342,88.00885169999674,None,,,,,,,,,,,,,,,,,,,,,,,,,,,,,,,,,,,,,,00042,001,2026-01-17_16h29.52.993,MST_task,2024.2.0,60.09095367448805,2026-01-17 16h30.06.274002 +0530,
5,practice_images/139a.jpg,1,1,1,None,,,j,0.22476120002102107,None,,,,,,,1,1,1,,,,88.02358520001872,,,,,,,,,,,,,,,,,,,,,,,88.00892190000741,88.02358520001872,88.50897020002594,88.51066000002902,88.52544880000642,88.52544880000642,88.52544880000642,91.5193103000056,None,,,91.5196024000179,91.77084950002609,j,88.52544880000642,91.53587710001739,91.53587710001739,0.22476120002102107,None,,,,,,,,,,,,,,,,,,,,,,,,,,,,,,,,,00042,001,2026-01-17_16h29.52.993,MST_task,2024.2.0,60.09095367448805,2026-01-17 16h30.06.274002 +0530,
9,practice_images/180a.jpg,2,2,1,j,2.2808600999996997,0.15053529996657744,None,,,,,,,,,1,2,2,,,,91.78689280000981,,,,,,,,,,,,,,,,,,,,,,,91.77094040001975,91.78689280000981,92.27183049998712,92.27386549999937,92.28862700000172,92.28862700000172,92.28862700000172,95.28249000001233,j,2.2808600999996997,0.15053529996657744,95.28253210004186,95.28254660003586,None,,,,,,,,,,,,,,,,,,,,,,,,,,,,,,,,,,,,,,00042,001,2026-01-17_16h29.52.993,MST_task,2024.2.0,60.09095367448805,2026-01-17 16h30.06.274002 +0530,
4,practice_images/002b.jpg,3,3,1,None,,,f,1.9248172999941744,None,,,,,,,1,3,3,,,,95.29917800001567,,,,,,,,,,,,,,,,,,,,,,,95.28289040003438,95.29917800001567,95.78414790000534,95.78585420001764,95.80091729998821,95.80091729998821,95.80091729998821,98.79479870002251,None,,,98.79483610001625,100.75212640000973,f,,98.81146749999607,98.81146749999607,1.9248172999941744,None,,,,,,,,,,,,,,,,,,,,,,,,,,,,,,,,,00042,001,2026-01-17_16h29.52.993,MST_task,2024.2.0,60.09095367448805,2026-01-17 16h30.06.274002 +0530,
3,practice_images/037a.jpg,4,4,1,f,1.7866904999827966,0.19202610000502318,None,,,,,,,,,1,4,4,,,,100.76820440002484,,,,,,,,,,,,,,,,,,,,,,,100.75221450004028,100.76820440002484,101.25341599999228,101.25533100002212,101.26994930004003,101.26994930004003,101.26994930004003,104.26393359998474,f,1.7866904999827966,0.19202610000502318,104.26412290002918,104.26413730002241,None,,,,,,,,,,,,,,,,,,,,,,,,,,,,,,,,,,,,,,00042,001,2026-01-17_16h29.52.993,MST_task,2024.2.0,60.09095367448805,2026-01-17 16h30.06.274002 +0530,
7,practice_images/166a.jpg,5,5,1,None,,,f,0.7276950999512337,None,,,,,,,1,5,5,,,,104.28049610002199,,,,,,,,,,,,,,,,,,,,,,,104.26420830003917,104.28049610002199,104.76585950003937,104.76985500002047,104.7828986000386,104.7828986000386,104.7828986000386,107.77641400002176,None,,,107.77795070002321,108.52928409999004,f,,107.79299789998913,107.79299789998913,0.7276950999512337,None,,,,,,,,,,,,,,,,,,,,,,,,,,,,,,,,,00042,001,2026-01-17_16h29.52.993,MST_task,2024.2.0,60.09095367448805,2026-01-17 16h30.06.274002 +0530,
1,practice_images/013a.jpg,6,6,1,None,,,f,0.7105828000348993,None,,,,,,,1,6,6,,,,108.54578799998853,,,,,,,,,,,,,,,,,,,,,,,108.52937220002059,108.54578799998853,109.03105250000954,109.03266530000838,109.04748649999965,109.04748649999965,109.04748649999965,112.04123999999138,None,,,112.04127470002277,112.77754949999508,f,,112.05800880002789,112.05800880002789,0.7105828000348993,None,,,,,,,,,,,,,,,,,,,,,,,,,,,,,,,,,00042,001,2026-01-17_16h29.52.993,MST_task,2024.2.0,60.09095367448805,2026-01-17 16h30.06.274002 +0530,
10,practice_images/182a.jpg,7,7,1,f,1.8882073000422679,0.17604399996344,None,,,,,,,,,1,7,7,,,,112.79393560002791,,,,,,,,,,,,,,,,,,,,,,,112.77764029998798,112.79393560002791,113.27907240000786,113.28070619999198,113.29613870003959,113.29613870003959,113.29613870003959,116.28929809998954,f,1.8882073000422679,0.17604399996344,116.28933800000232,116.28935070004081,None,,,,,,,,,,,,,,,,,,,,,,,,,,,,,,,,,,,,,,00042,001,2026-01-17_16h29.52.993,MST_task,2024.2.0,60.09095367448805,2026-01-17 16h30.06.274002 +0530,
6,practice_images/158a.jpg,8,8,1,None,,,f,0.029780999990180135,None,,,,,,,1,8,8,,,,116.30622820003191,,,,,,,,,,,,,,,,,,,,,,,116.28942059999099,116.30622820003191,116.79120550001971,116.79300669999793,116.80805270001292,116.80805270001292,116.80805270001292,119.80156890000217,None,,,119.80161780002527,119.85246840002947,f,,119.81849179998972,119.81849179998972,0.029780999990180135,None,,,,,,,,,,,,,,,,,,,,,,,,,,,,,,,,,00042,001,2026-01-17_16h29.52.993,MST_task,2024.2.0,60.09095367448805,2026-01-17 16h30.06.274002 +0530,
2,practice_images/031a.jpg,9,9,1,f,1.4942446000059135,0.1846339000039734,None,,,,,,,,,1,9,9,,,,119.86842200002866,,,,,,,,,,,,,,,,,,,,,,,119.85255220002728,119.86842200002866,120.35361799999373,120.35509040002944,120.3701524999924,120.3701524999924,120.3701524999924,123.36414610000793,f,1.4942446000059135,0.1846339000039734,123.36418400000548,123.36419620004017,None,,,,,,,,,,,,,,,,,,,,,,,,,,,,,,,,,,,,,,00042,001,2026-01-17_16h29.52.993,MST_task,2024.2.0,60.09095367448805,2026-01-17 16h30.06.274002 +0530,
,,,,,,,,,,,,,,,,,,,,,,,,,,,,,,,,,,,,,,,,,,,,,,,,,,,,,,,,,,,,,,,,,123.36424110003281,123.38050600001588,123.38050600001588,139.3540467999992,space,15.972410300048068,None,,,,,,,,,,,,,,,,,,,,,,,,,,00042,001,2026-01-17_16h29.52.993,MST_task,2024.2.0,60.09095367448805,2026-01-17 16h30.06.274002 +0530,
,Objects\052a.jpg,0,0,1,,,,,,,f,1.6708896000054665,0.18386579997604713,None,,,,,,1,0,0,139.3700436000363,,,,,,,,,,,,,,,,,,,,,,,139.35573660000227,139.3700436000363,139.85557580000022,,,,,,,,,,,,,,,,,,,,,,,,139.8665417000302,139.88957190001383,139.88957190001383,139.88957190001383,142.8659692000365,indoor,f,1.6708896000054665,0.18386579997604713,142.86715290002758,142.86770120001165,None,,,,,,,,,,,,,,00042,001,2026-01-17_16h29.52.993,MST_task,2024.2.0,60.09095367448805,2026-01-17 16h30.06.274002 +0530,
,Objects\033a.jpg,1,0,2,,,,,,,f,2.9360884000197984,None,None,,,,,,2,0,1,142.88234800001374,,,,,,,,,,,,,,,,,,,,,,,142.86777569999686,142.88234800001374,143.36809579998953,,,,,,,,,,,,143.3840949999867,,,,,,,,,,,,143.37122150004143,143.3840949999867,143.3840949999867,143.3840949999867,146.3780279000057,indoor,f,2.9360884000197984,None,146.37807139998768,146.37811260001035,None,,,,,,,,,,,,,,00042,001,2026-01-17_16h29.52.993,MST_task,2024.2.0,60.09095367448805,2026-01-17 16h30.06.274002 +0530,
,Objects\267a.jpg,2,0,3,,,,,,,None,,,j,0.24554689996875823,None,,,,3,0,2,146.39491590001853,,,,,,,,,,,,,,,,,,,,,,,146.37819120002678,146.39491590001853,146.8797166000004,,,,,,,,,,,,,,,,,,,,,,,,146.89062610000838,146.91414000000805,146.91414000000805,146.91414000000805,149.89054500003112,indoor,None,,,149.89058370003477,150.158503499988,j,149.9071050999919,149.9071050999919,0.24554689996875823,None,,,,,,,,,,00042,001,2026-01-17_16h29.52.993,MST_task,2024.2.0,60.09095367448805,2026-01-17 16h30.06.274002 +0530,
,Objects\112a.jpg,3,0,4,,,,,,,None,,,j,0.5856450999854133,None,,,,4,0,3,150.17471859999932,,,,,,,,,,,,,,,,,,,,,,,150.15860550000798,150.17471859999932,150.65996540000197,,,,,,,,,,,,,,,,,,,,,,,,150.66703200002667,150.67587690002983,150.67587690002983,150.67587690002983,153.67014760000166,indoor,None,,,153.6701951000141,154.27284769999096,j,153.68655290000606,153.68655290000606,0.5856450999854133,None,,,,,,,,,,00042,001,2026-01-17_16h29.52.993,MST_task,2024.2.0,60.09095367448805,2026-01-17 16h30.06.274002 +0530,
,Objects\290a.jpg,4,0,5,,,,,,,j,1.7468028000439517,0.19127729994943365,None,,,,,,5,0,4,154.2888241999899,,,,,,,,,,,,,,,,,,,,,,,154.2729379000375,154.2888241999899,154.7741032000049,,,,,,,,,,,,,,,,,,,,,,,,154.78147260000696,154.79003239999292,154.79003239999292,154.79003239999292,157.7844882000354,indoor,j,1.7468028000439517,0.19127729994943365,157.78453410003567,157.7845462000114,None,,,,,,,,,,,,,,00042,001,2026-01-17_16h29.52.993,MST_task,2024.2.0,60.09095367448805,2026-01-17 16h30.06.274002 +0530,
,Objects\295a.jpg,5,0,6,,,,,,,None,,,f,0.5272174999699928,None,,,,6,0,5,157.80095370003255,,,,,,,,,,,,,,,,,,,,,,,157.78461790003348,157.80095370003255,158.2861658000038,,,,,,,,,,,,,,,,,,,,,,,,158.29370899999049,158.3195313999895,158.3195313999895,158.3195313999895,161.29655010002898,indoor,None,,,161.29658900003415,161.84942480002064,f,161.3133841000381,161.3133841000381,0.5272174999699928,None,,,,,,,,,,00042,001,2026-01-17_16h29.52.993,MST_task,2024.2.0,60.09095367448805,2026-01-17 16h30.06.274002 +0530,
,Objects\278a.jpg,6,0,7,,,,,,,f,1.9932743999524973,0.20013370004016906,None,,,,,,7,0,6,161.8651988999918,,,,,,,,,,,,,,,,,,,,,,,161.84951630001888,161.8651988999918,162.35027759999502,,,,,,,,,,,,,,,,,,,,,,,,162.3604295999976,162.38384490000317,162.38384490000317,162.38384490000317,165.36180970002897,indoor,f,1.9932743999524973,0.20013370004016906,165.36185400001705,165.36186609999277,None,,,,,,,,,,,,,,00042,001,2026-01-17_16h29.52.993,MST_task,2024.2.0,60.09095367448805,2026-01-17 16h30.06.274002 +0530,
,Objects\167a.jpg,7,0,8,,,,,,,None,,,f,0.4863286000327207,None,,,,8,0,7,165.37750330002746,,,,,,,,,,,,,,,,,,,,,,,165.36193620000267,165.37750330002746,165.8627110000234,,,,,,,,,,,,,,,,,,,,,,,,165.87397419998888,165.89606350002578,165.89606350002578,165.89606350002578,168.87345810001716,shoe,None,,,168.8755216000136,169.3923955000355,f,168.88991470000474,168.88991470000474,0.4863286000327207,None,,,,,,,,,,00042,001,2026-01-17_16h29.52.993,MST_task,2024.2.0,60.09095367448805,2026-01-17 16h30.06.274002 +0530,
,Objects\263a.jpg,8,0,9,,,,,,,None,,,j,0.45514420000836253,None,,,,9,0,8,169.40840870002285,,,,,,,,,,,,,,,,,,,,,,,169.39248790004058,169.40840870002285,169.8934635000187,,,,,,,,,,,,,,,,,,,,,,,,169.90169680002145,169.90948500001105,169.90948500001105,169.90948500001105,172.9038679000223,shoe,None,,,172.90393219998805,173.38945800001966,j,172.92069709999487,172.92069709999487,0.45514420000836253,None,,,,,,,,,,00042,001,2026-01-17_16h29.52.993,MST_task,2024.2.0,60.09095367448805,2026-01-17 16h30.06.274002 +0530,
,Objects\232a.jpg,9,0,10,,,,,,,f,2.2922383000259288,0.15979569999035448,None,,,,,,10,0,9,173.40561050001998,,,,,,,,,,,,,,,,,,,,,,,173.38958610000554,173.40561050001998,173.89081770001212,,,,,,,,,,,,,,,,,,,,,,,,173.89880770002492,173.92404050001642,173.92404050001642,173.92404050001642,176.9012610000209,shoe,f,2.2922383000259288,0.15979569999035448,176.90130700002192,176.90132030000677,None,,,,,,,,,,,,,,00042,001,2026-01-17_16h29.52.993,MST_task,2024.2.0,60.09095367448805,2026-01-17 16h30.06.274002 +0530,
,Objects\226a.jpg,10,0,11,,,,,,,j,2.7259307999629527,0.14337760000489652,None,,,,,,11,0,10,176.91803020000225,,,,,,,,,,,,,,,,,,,,,,,176.90139200002886,176.91803020000225,177.40298710000934,,,,,,,,,,,,,,,,,,,,,,,,177.41068550001364,177.41901110002073,177.41901110002073,177.41901110002073,180.41360319999512,shoe,j,2.7259307999629527,0.14337760000489652,180.41382100002375,180.41383400000632,None,,,,,,,,,,,,,,00042,001,2026-01-17_16h29.52.993,MST_task,2024.2.0,60.09095367448805,2026-01-17 16h30.06.274002 +0530,
,Objects\059a.jpg,11,0,12,,,,,,,None,,,j,0.10522720002336428,None,,,,12,0,11,180.43020639999304,,,,,,,,,,,,,,,,,,,,,,,180.4139057000284,180.43020639999304,180.91539710003417,,,,,,,,,,,,,,,,,,,,,,,,180.92482830001973,180.94892809999874,180.94892809999874,180.94892809999874,183.9259108999977,shoe,None,,,183.92610989999957,184.06018770002993,j,183.94249250000576,183.94249250000576,0.10522720002336428,None,,,,,,,,,,00042,001,2026-01-17_16h29.52.993,MST_task,2024.2.0,60.09095367448805,2026-01-17 16h30.06.274002 +0530,
,Objects\209a.jpg,12,0,13,,,,,,,f,1.8300235999631695,0.1836530000437051,None,,,,,,13,0,12,184.07631460000994,,,,,,,,,,,,,,,,,,,,,,,184.06033559999196,184.07631460000994,184.56151289999252,,,,,,,,,,,,,,,,,,,,,,,,184.56992069998523,184.59482560004108,184.59482560004108,184.59482560004108,187.5720439000288,shoe,f,1.8300235999631695,0.1836530000437051,187.57210839999607,187.57212550000986,None,,,,,,,,,,,,,,00042,001,2026-01-17_16h29.52.993,MST_task,2024.2.0,60.09095367448805,2026-01-17 16h30.06.274002 +0530,
,Objects\197a.jpg,13,0,14,,,,,,,j,2.628411200013943,0.1682579999906011,None,,,,,,14,0,13,187.58888170000864,,,,,,,,,,,,,,,,,,,,,,,187.5722092000069,187.58888170000864,188.07385789998807,,,,,,,,,,,,,,,,,,,,,,,,188.088513900002,188.10733170004096,188.10733170004096,188.10733170004096,191.08447060000617,shoe,j,2.628411200013943,0.1682579999906011,191.08452680002665,191.08453809999628,None,,,,,,,,,,,,,,00042,001,2026-01-17_16h29.52.993,MST_task,2024.2.0,60.09095367448805,2026-01-17 16h30.06.274002 +0530,
,Objects\061a.jpg,14,0,15,,,,,,,j,2.894391399982851,None,None,,,,,,15,0,14,191.10106330004055,,,,,,,,,,,,,,,,,,,,,,,191.08465830003843,191.10106330004055,191.58628480002517,,,,,,,,,,,,,,,,,,,,,,,,191.59030939999502,191.6027433000272,191.6027433000272,191.6027433000272,194.59664040000644,indoor,j,2.894391399982851,None,194.5978555000038,194.59787560004042,None,,,,,,,,,,,,,,00042,001,2026-01-17_16h29.52.993,MST_task,2024.2.0,60.09095367448805,2026-01-17 16h30.06.274002 +0530,
,Objects\242a.jpg,15,0,16,,,,,,,None,,,f,0.3949309000163339,None,,,,16,0,15,194.61332200001925,,,,,,,,,,,,,,,,,,,,,,,194.59794740000507,194.61332200001925,195.09842689998914,,,,,,,,,,,,,,,,,,,,,,,,195.10149040003307,195.11517260002438,195.11517260002438,195.11517260002438,198.10890759999165,indoor,None,,,198.10895970003912,198.52773269999307,f,198.12550160003593,198.12550160003593,0.3949309000163339,None,,,,,,,,,,00042,001,2026-01-17_16h29.52.993,MST_task,2024.2.0,60.09095367448805,2026-01-17 16h30.06.274002 +0530,
,Objects\003a.jpg,16,0,17,,,,,,,j,1.5946621999610215,0.18407180003123358,None,,,,,,17,0,16,198.54376189998584,,,,,,,,,,,,,,,,,,,,,,,198.527828100021,198.54376189998584,199.0287913000211,,,,,,,,,,,,,,,,,,,,,,,,199.03198339999653,199.04546560003655,199.04546560003655,199.04546560003655,202.03929049998987,indoor,j,1.5946621999610215,0.18407180003123358,202.0393452999997,202.03935859998455,None,,,,,,,,,,,,,,00042,001,2026-01-17_16h29.52.993,MST_task,2024.2.0,60.09095367448805,2026-01-17 16h30.06.274002 +0530,
,Objects\034a.jpg,17,0,18,,,,,,,None,,,f,0.28906019998248667,None,,,,18,0,17,202.05632520001382,,,,,,,,,,,,,,,,,,,,,,,202.03969060000964,202.05632520001382,202.54105589998653,,,,,,,,,,,,,,,,,,,,,,,,202.54435610002838,202.55781349999597,202.55781349999597,202.55781349999597,205.55194430000847,indoor,None,,,205.55198440002277,205.86998700001277,f,205.5684952000156,205.5684952000156,0.28906019998248667,None,,,,,,,,,,00042,001,2026-01-17_16h29.52.993,MST_task,2024.2.0,60.09095367448805,2026-01-17 16h30.06.274002 +0530,
,Objects\113a.jpg,18,0,19,,,,,,,None,,,j,0.13793220004299656,None,,,,19,0,18,205.88602030003676,,,,,,,,,,,,,,,,,,,,,,,205.8700736000319,205.88602030003676,206.37141080002766,,,,,,,,,,,,,,,,,,,,,,,,206.37446970003657,206.38772070000414,206.38772070000414,206.38772070000414,209.38189309998415,indoor,None,,,209.38193530001445,209.54997440002626,j,209.3984768000082,209.3984768000082,0.13793220004299656,None,,,,,,,,,,00042,001,2026-01-17_16h29.52.993,MST_task,2024.2.0,60.09095367448805,2026-01-17 16h30.06.274002 +0530,
,Objects\017a.jpg,19,0,20,,,,,,,None,,,f,0.2909180000424385,None,,,,20,0,19,209.56573530001333,,,,,,,,,,,,,,,,,,,,,,,209.5500702999998,209.56573530001333,210.0509274000069,,,,,,,,,,,,,,,,,,,,,,,,210.05365840002196,210.06744800001616,210.06744800001616,210.06744800001616,213.06143220001832,indoor,None,,,213.06147320003947,213.37955330003751,f,213.07784410001477,213.07784410001477,0.2909180000424385,None,,,,,,,,,,00042,001,2026-01-17_16h29.52.993,MST_task,2024.2.0,60.09095367448805,2026-01-17 16h30.06.274002 +0530,
,Objects\177a.jpg,20,0,21,,,,,,,j,1.495085900009144,0.15940579999005422,None,,,,,,21,0,20,213.39582510001492,,,,,,,,,,,,,,,,,,,,,,,213.37969570001587,213.39582510001492,213.88090270000976,,,,,,,,,,,,,,,,,,,,,,,,213.88349919999018,213.89777420001337,213.89777420001337,213.89777420001337,216.8918736000196,indoor,j,1.495085900009144,0.15940579999005422,216.89192910003476,216.89194170001429,None,,,,,,,,,,,,,,00042,001,2026-01-17_16h29.52.993,MST_task,2024.2.0,60.09095367448805,2026-01-17 16h30.06.274002 +0530,
,Objects\259a.jpg,21,0,22,,,,,,,j,1.9907084999722429,0.17511960002593696,None,,,,,,22,0,21,216.90809710003668,,,,,,,,,,,,,,,,,,,,,,,216.89201439998578,216.90809710003668,217.3933429000317,,,,,,,,,,,,,,,,,,,,,,,,217.40459950000513,217.42662720003864,217.42662720003864,217.42662720003864,220.4042343000183,shoe,j,1.9907084999722429,0.17511960002593696,220.40570000000298,220.4057178000221,None,,,,,,,,,,,,,,00042,001,2026-01-17_16h29.52.993,MST_task,2024.2.0,60.09095367448805,2026-01-17 16h30.06.274002 +0530,
,Objects\093a.jpg,22,0,23,,,,,,,j,2.1501156999729574,0.18323800002690405,None,,,,,,23,0,22,220.42089050001232,,,,,,,,,,,,,,,,,,,,,,,220.40578850003658,220.42089050001232,220.9059781000251,,,,,,,,,,,,220.9389776000171,,,,,,,,,,,,220.91409909998765,220.9389776000171,220.9389776000171,220.9389776000171,223.91619840002386,shoe,j,2.1501156999729574,0.18323800002690405,223.91624430002412,223.9162578000105,None,,,,,,,,,,,,,,00042,001,2026-01-17_16h29.52.993,MST_task,2024.2.0,60.09095367448805,2026-01-17 16h30.06.274002 +0530,
,Objects\279a.jpg,23,0,24,,,,,,,j,2.3347677999990992,0.15917500003706664,None,,,,,,24,0,23,223.93270930001745,,,,,,,,,,,,,,,,,,,,,,,223.91632880002726,223.93270930001745,224.41792490001535,,,,,,,,,,,,,,,,,,,,,,,,224.42106140003307,224.43442330003018,224.43442330003018,224.43442330003018,227.42843880003784,shoe,j,2.3347677999990992,0.15917500003706664,227.428483900032,227.42850010003895,None,,,,,,,,,,,,,,00042,001,2026-01-17_16h29.52.993,MST_task,2024.2.0,60.09095367448805,2026-01-17 16h30.06.274002 +0530,
,Objects\128a.jpg,24,0,25,,,,,,,f,2.798115700017661,None,None,,,,,,25,0,24,227.44483729999047,,,,,,,,,,,,,,,,,,,,,,,227.428569300042,227.44483729999047,227.93006849999074,,,,,,,,,,,,,,,,,,,,,,,,227.93278050003573,227.94655990001047,227.94655990001047,227.94655990001047,230.94056870002532,shoe,f,2.798115700017661,None,230.94061360001797,230.9406253999914,None,,,,,,,,,,,,,,00042,001,2026-01-17_16h29.52.993,MST_task,2024.2.0,60.09095367448805,2026-01-17 16h30.06.274002 +0530,
,Objects\358a.jpg,25,0,26,,,,,,,f,2.213292400003411,0.1832931999815628,None,,,,,,26,0,25,230.95714240003144,,,,,,,,,,,,,,,,,,,,,,,230.94069620000664,230.95714240003144,231.44323840003926,,,,,,,,,,,,,,,,,,,,,,,,231.4509579000296,231.47559159999946,231.47559159999946,231.47559159999946,234.45284360001097,shoe,f,2.213292400003411,0.1832931999815628,234.45289930002764,234.45291160000488,None,,,,,,,,,,,,,,00042,001,2026-01-17_16h29.52.993,MST_task,2024.2.0,60.09095367448805,2026-01-17 16h30.06.274002 +0530,
,Objects\369a.jpg,26,0,27,,,,,,,f,1.6702240000013262,0.18344619998242706,None,,,,,,27,0,26,234.46958480001194,,,,,,,,,,,,,,,,,,,,,,,234.45298240002012,234.46958480001194,234.95481460000155,,,,,,,,,,,,,,,,,,,,,,,,234.96236450003926,234.97057780000614,234.97057780000614,234.97057780000614,237.96513190004043,shoe,f,1.6702240000013262,0.18344619998242706,237.9653246999951,237.9653501000139,None,,,,,,,,,,,,,,00042,001,2026-01-17_16h29.52.993,MST_task,2024.2.0,60.09095367448805,2026-01-17 16h30.06.274002 +0530,
,Objects\256a.jpg,27,0,28,,,,,,,j,1.9951032000244595,0.18431159999454394,None,,,,,,28,0,27,237.98202870000387,,,,,,,,,,,,,,,,,,,,,,,237.9654608000419,237.98202870000387,238.4663331999909,,,,,,,,,,,,,,,,,,,,,,,,238.47493650001707,238.50090340001043,238.50090340001043,238.50090340001043,241.47732270002598,shoe,j,1.9951032000244595,0.18431159999454394,241.477366600011,241.47737820004113,None,,,,,,,,,,,,,,00042,001,2026-01-17_16h29.52.993,MST_task,2024.2.0,60.09095367448805,2026-01-17 16h30.06.274002 +0530,
,Objects\199a.jpg,28,0,29,,,,,,,j,2.3328692000359297,0.1519999000011012,None,,,,,,29,0,28,241.49416790000396,,,,,,,,,,,,,,,,,,,,,,,241.47746349999215,241.49416790000396,241.9791045000311,,,,,,,,,,,,,,,,,,,,,,,,241.98611709999386,241.99569419998443,241.99569419998443,241.99569419998443,244.98984220001148,indoor,j,2.3328692000359297,0.1519999000011012,244.99166880000848,244.9916891999892,None,,,,,,,,,,,,,,00042,001,2026-01-17_16h29.52.993,MST_task,2024.2.0,60.09095367448805,2026-01-17 16h30.06.274002 +0530,
,Objects\015a.jpg,29,0,30,,,,,,,None,,,j,0.650036100007128,None,,,,30,0,29,245.0065661999979,,,,,,,,,,,,,,,,,,,,,,,244.99176790000638,245.0065661999979,245.49187170004006,,,,,,,,,,,,245.50818130001426,,,,,,,,,,,,245.49988740001572,245.50818130001426,245.50818130001426,245.50818130001426,248.50196720001986,indoor,None,,,248.50202140002511,249.17161590000615,j,248.5187608000124,248.5187608000124,0.650036100007128,None,,,,,,,,,,00042,001,2026-01-17_16h29.52.993,MST_task,2024.2.0,60.09095367448805,2026-01-17 16h30.06.274002 +0530,
,Objects\327a.jpg,30,0,31,,,,,,,j,1.4616153999813832,0.16887699998915195,None,,,,,,31,0,30,249.18777980003506,,,,,,,,,,,,,,,,,,,,,,,249.17170830001123,249.18777980003506,249.67277519998606,,,,,,,,,,,,,,,,,,,,,,,,249.68078689998947,249.70620810001856,249.70620810001856,249.70620810001856,252.68323770002462,indoor,j,1.4616153999813832,0.16887699998915195,252.68328310002107,252.6832957000006,None,,,,,,,,,,,,,,00042,001,2026-01-17_16h29.52.993,MST_task,2024.2.0,60.09095367448805,2026-01-17 16h30.06.274002 +0530,
,Objects\109a.jpg,31,0,32,,,,,,,None,,,f,0.7635998000041582,None,,,,32,0,31,252.70007339998847,,,,,,,,,,,,,,,,,,,,,,,252.68336750002345,252.70007339998847,253.18504930002382,,,,,,,,,,,,,,,,,,,,,,,,253.19162920000963,253.20174789999146,253.20174789999146,253.20174789999146,256.19667040003696,indoor,None,,,256.1967117000022,256.9823513000156,f,256.2126469000359,256.2126469000359,0.7635998000041582,None,,,,,,,,,,00042,001,2026-01-17_16h29.52.993,MST_task,2024.2.0,60.09095367448805,2026-01-17 16h30.06.274002 +0530,
,Objects\254a.jpg,32,0,33,,,,,,,j,1.5001652999781072,0.13495729997521266,None,,,,,,33,0,32,256.9985265000141,,,,,,,,,,,,,,,,,,,,,,,256.98244220000925,256.9985265000141,257.48378320003394,,,,,,,,,,,,,,,,,,,,,,,,257.4925011000014,257.51688589999685,257.51688589999685,257.51688589999685,260.4940218999982,indoor,j,1.5001652999781072,0.13495729997521266,260.4940660999855,260.49407840002095,None,,,,,,,,,,,,,,00042,001,2026-01-17_16h29.52.993,MST_task,2024.2.0,60.09095367448805,2026-01-17 16h30.06.274002 +0530,
,Objects\134a.jpg,33,0,34,,,,,,,j,1.724510200030636,0.12072139995871112,None,,,,,,34,0,33,260.51075200003106,,,,,,,,,,,,,,,,,,,,,,,260.494151699997,260.51075200003106,260.99571980000474,,,,,,,,,,,,,,,,,,,,,,,,261.0040028000367,261.01204280002275,261.01204280002275,261.01204280002275,264.00627810001606,indoor,j,1.724510200030636,0.12072139995871112,264.0063209999935,264.0063329000259,None,,,,,,,,,,,,,,00042,001,2026-01-17_16h29.52.993,MST_task,2024.2.0,60.09095367448805,2026-01-17 16h30.06.274002 +0530,
,Objects\082a.jpg,34,0,35,,,,,,,j,1.3884664999786764,0.13600190001307055,None,,,,,,35,0,34,264.0230595000321,,,,,,,,,,,,,,,,,,,,,,,264.00655160000315,264.0230595000321,264.50804879999487,,,,,,,,,,,,,,,,,,,,,,,,264.5115936000366,264.52476230001776,264.52476230001776,264.52476230001776,267.51872130000265,indoor,j,1.3884664999786764,0.13600190001307055,267.5189088000334,267.51892180001596,None,,,,,,,,,,,,,,00042,001,2026-01-17_16h29.52.993,MST_task,2024.2.0,60.09095367448805,2026-01-17 16h30.06.274002 +0530,
,Objects\277a.jpg,35,0,36,,,,,,,f,2.530674399982672,0.1680721999728121,None,,,,,,36,0,35,267.53523030004,,,,,,,,,,,,,,,,,,,,,,,267.5190050000092,267.53523030004,268.020771600015,,,,,,,,,,,,,,,,,,,,,,,,268.0380759999971,268.05368120002095,268.05368120002095,268.05368120002095,271.0310299000121,shoe,f,2.530674399982672,0.1680721999728121,271.03269950003596,271.0327190000098,None,,,,,,,,,,,,,,00042,001,2026-01-17_16h29.52.993,MST_task,2024.2.0,60.09095367448805,2026-01-17 16h30.06.274002 +0530,
,Objects\004a.jpg,36,0,37,,,,,,,j,2.5389121000189334,0.13520449999487028,None,,,,,,37,0,36,271.04764669999713,,,,,,,,,,,,,,,,,,,,,,,271.03279580001254,271.04764669999713,271.532847399998,,,,,,,,,,,,271.5660942000104,,,,,,,,,,,,271.54125660000136,271.5660942000104,271.5660942000104,271.5660942000104,274.5432397000259,shoe,j,2.5389121000189334,0.13520449999487028,274.5433022000361,274.54332460003207,None,,,,,,,,,,,,,,00042,001,2026-01-17_16h29.52.993,MST_task,2024.2.0,60.09095367448805,2026-01-17 16h30.06.274002 +0530,
,Objects\335a.jpg,37,0,38,,,,,,,j,1.8664893999812193,0.15287430002354085,None,,,,,,38,0,37,274.5598226999864,,,,,,,,,,,,,,,,,,,,,,,274.54342659999384,274.5598226999864,275.0450517000281,,,,,,,,,,,,,,,,,,,,,,,,275.0515963000362,275.0615494000376,275.0615494000376,275.0615494000376,278.05573880003067,shoe,j,1.8664893999812193,0.15287430002354085,278.055812000006,278.05582449998474,None,,,,,,,,,,,,,,00042,001,2026-01-17_16h29.52.993,MST_task,2024.2.0,60.09095367448805,2026-01-17 16h30.06.274002 +0530,
,Objects\022a.jpg,38,0,39,,,,,,,None,,,f,4.552046199969482,None,,,,39,0,38,278.0721277000266,,,,,,,,,,,,,,,,,,,,,,,278.05593570001656,278.0721277000266,278.5573669000296,,,,,,,,,,,,,,,,,,,,,,,,278.56539270002395,278.5735041000298,278.5735041000298,278.5735041000298,281.567836000002,shoe,None,,,281.56814009998925,286.15131440002006,f,281.5844134000363,281.5844134000363,4.552046199969482,None,,,,,,,,,,00042,001,2026-01-17_16h29.52.993,MST_task,2024.2.0,60.09095367448805,2026-01-17 16h30.06.274002 +0530,
,Objects\293a.jpg,39,0,40,,,,,,,None,,,f,0.08847299998160452,None,,,,40,0,39,286.1671578999958,,,,,,,,,,,,,,,,,,,,,,,286.1514054000145,286.1671578999958,286.65235859999666,,,,,,,,,,,,,,,,,,,,,,,,286.6590492000105,286.6687568000052,286.6687568000052,286.6687568000052,289.66300890001,shoe,None,,,289.6630531999981,289.780412800028,f,289.6794472000329,289.6794472000329,0.08847299998160452,None,,,,,,,,,,00042,001,2026-01-17_16h29.52.993,MST_task,2024.2.0,60.09095367448805,2026-01-17 16h30.06.274002 +0530,
,Objects\071a.jpg,40,0,41,,,,,,,j,2.8694985000183806,None,None,,,,,,41,0,40,289.79663500003517,,,,,,,,,,,,,,,,,,,,,,,289.78050630004145,289.79663500003517,290.2817489000154,,,,,,,,,,,,,,,,,,,,,,,,290.29092080000555,290.3151152000064,290.3151152000064,290.3151152000064,293.2923402999877,shoe,j,2.8694985000183806,None,293.29238310002256,293.2923950999975,None,,,,,,,,,,,,,,00042,001,2026-01-17_16h29.52.993,MST_task,2024.2.0,60.09095367448805,2026-01-17 16h30.06.274002 +0530,
,Objects\288a.jpg,41,0,42,,,,,,,None,,,f,1.0109800000209361,None,,,,42,0,41,293.3088376999949,,,,,,,,,,,,,,,,,,,,,,,293.2924976000213,293.3088376999949,293.7941290999879,,,,,,,,,,,,,,,,,,,,,,,,293.8012377000414,293.81024299998535,293.81024299998535,293.81024299998535,296.80473810003605,shoe,None,,,296.8047772999853,297.8420519999927,f,296.82110719999764,296.82110719999764,1.0109800000209361,None,,,,,,,,,,00042,001,2026-01-17_16h29.52.993,MST_task,2024.2.0,60.09095367448805,2026-01-17 16h30.06.274002 +0530,
,Objects\233a.jpg,42,0,43,,,,,,,None,,,j,1.6776287999819033,None,,,,43,0,42,297.858096299984,,,,,,,,,,,,,,,,,,,,,,,297.84214530000463,297.858096299984,298.3433016000199,,,,,,,,,,,,,,,,,,,,,,,,298.3520448000054,298.37663060001796,298.37663060001796,298.37663060001796,301.35373700002674,indoor,None,,,301.3554007000057,303.0602036000346,j,301.3705052000005,301.3705052000005,1.6776287999819033,None,,,,,,,,,,00042,001,2026-01-17_16h29.52.993,MST_task,2024.2.0,60.09095367448805,2026-01-17 16h30.06.274002 +0530,
,Objects\020a.jpg,43,0,44,,,,,,,f,2.5261744000017643,0.14300250000087544,None,,,,,,44,0,43,303.0764744000044,,,,,,,,,,,,,,,,,,,,,,,303.06030920002377,303.0764744000044,303.5615321000223,,,,,,,,,,,,,,,,,,,,,,,,303.5694905000273,303.5949311000295,303.5949311000295,303.5949311000295,306.57194110000273,indoor,f,2.5261744000017643,0.14300250000087544,306.57200109999394,306.57201350003015,None,,,,,,,,,,,,,,00042,001,2026-01-17_16h29.52.993,MST_task,2024.2.0,60.09095367448805,2026-01-17 16h30.06.274002 +0530,
,Objects\100a.jpg,44,0,45,,,,,,,None,,,f,0.32350669999141246,None,,,,45,0,44,306.5888643999933,,,,,,,,,,,,,,,,,,,,,,,306.57208409998566,306.5888643999933,307.0737797000329,,,,,,,,,,,,,,,,,,,,,,,,307.07715440000175,307.09049690002576,307.09049690002576,307.09049690002576,310.0842560000019,indoor,None,,,310.0843018000014,310.4361363000353,f,310.10107700002845,310.10107700002845,0.32350669999141246,None,,,,,,,,,,00042,001,2026-01-17_16h29.52.993,MST_task,2024.2.0,60.09095367448805,2026-01-17 16h30.06.274002 +0530,
,Objects\282a.jpg,45,0,46,,,,,,,None,,,j,1.1150249000056647,None,,,,46,0,45,310.4522088000085,,,,,,,,,,,,,,,,,,,,,,,310.43622720002895,310.4522088000085,310.93738920002943,,,,,,,,,,,,,,,,,,,,,,,,310.94056170003023,310.95390419999603,310.95390419999603,310.95390419999603,313.9477869000402,indoor,None,,,313.947828400007,315.0858560000197,j,313.96475540002575,313.96475540002575,1.1150249000056647,None,,,,,,,,,,00042,001,2026-01-17_16h29.52.993,MST_task,2024.2.0,60.09095367448805,2026-01-17 16h30.06.274002 +0530,
,Objects\025a.jpg,46,0,47,,,,,,,j,2.5009522999753244,0.13543939997907728,None,,,,,,47,0,46,315.1019349999842,,,,,,,,,,,,,,,,,,,,,,,315.0859471000149,315.1019349999842,315.5868948000134,,,,,,,,,,,,,,,,,,,,,,,,315.590303200006,315.6036475999863,315.6036475999863,315.6036475999863,318.59750660002464,indoor,j,2.5009522999753244,0.13543939997907728,318.5975641999976,318.59757720003836,None,,,,,,,,,,,,,,00042,001,2026-01-17_16h29.52.993,MST_task,2024.2.0,60.09095367448805,2026-01-17 16h30.06.274002 +0530,
,Objects\246a.jpg,47,0,48,,,,,,,None,,,f,None,None,,,,48,0,47,318.61423330003163,,,,,,,,,,,,,,,,,,,,,,,318.59779349999735,318.61423330003163,319.09919969999464,,,,,,,,,,,,,,,,,,,,,,,,319.10214939998696,319.1159395999857,319.1159395999857,319.1159395999857,322.1098091999884,indoor,None,,,322.1098784999922,322.26078330003656,f,322.1264090000186,322.1264090000186,None,None,,,,,,,,,,00042,001,2026-01-17_16h29.52.993,MST_task,2024.2.0,60.09095367448805,2026-01-17 16h30.06.274002 +0530,
,Objects\227a.jpg,48,0,49,,,,,,,f,1.9489667000016198,0.15276520000770688,None,,,,,,49,0,48,322.27705309999874,,,,,,,,,,,,,,,,,,,,,,,322.260874300031,322.27705309999874,322.76201880001463,,,,,,,,,,,,,,,,,,,,,,,,322.7679210000206,322.7787592000095,322.7787592000095,322.7787592000095,325.77255590003915,indoor,f,1.9489667000016198,0.15276520000770688,325.77261260000523,325.7726252999855,None,,,,,,,,,,,,,,00042,001,2026-01-17_16h29.52.993,MST_task,2024.2.0,60.09095367448805,2026-01-17 16h30.06.274002 +0530,
,Objects\183a.jpg,49,0,50,,,,,,,None,,,j,0.6261419999646023,None,,,,50,0,49,325.78934720001416,,,,,,,,,,,,,,,,,,,,,,,325.7728442000225,325.78934720001416,326.27438920002896,,,,,,,,,,,,,,,,,,,,,,,,326.2790086999885,326.29106160002993,326.29106160002993,326.29106160002993,329.2848329000408,shoe,None,,,329.2862501000054,329.93789160001324,j,329.3017404000275,329.3017404000275,0.6261419999646023,None,,,,,,,,,,00042,001,2026-01-17_16h29.52.993,MST_task,2024.2.0,60.09095367448805,2026-01-17 16h30.06.274002 +0530,
,Objects\252a.jpg,50,0,51,,,,,,,None,,,f,0.4778633000096306,None,,,,51,0,50,329.9538256000378,,,,,,,,,,,,,,,,,,,,,,,329.93801889999304,329.9538256000378,330.439759800036,,,,,,,,,,,,,,,,,,,,,,,,330.4434489000123,330.4561850000173,330.4561850000173,330.4561850000173,333.4496919999947,shoe,None,,,333.44974310003454,333.9526041999925,f,333.4665992000373,333.4665992000373,0.4778633000096306,None,,,,,,,,,,00042,001,2026-01-17_16h29.52.993,MST_task,2024.2.0,60.09095367448805,2026-01-17 16h30.06.274002 +0530,
,Objects\343a.jpg,51,0,52,,,,,,,None,,,f,1.0074155999463983,None,,,,52,0,51,333.96802289999323,,,,,,,,,,,,,,,,,,,,,,,333.95271069998853,333.96802289999323,334.4530890000169,,,,,,,,,,,,,,,,,,,,,,,,334.4667943000095,334.4863193000201,334.4863193000201,334.4863193000201,337.46416030003456,shoe,None,,,337.46420819999184,338.5011663000332,f,337.48078760004137,337.48078760004137,1.0074155999463983,None,,,,,,,,,,00042,001,2026-01-17_16h29.52.993,MST_task,2024.2.0,60.09095367448805,2026-01-17 16h30.06.274002 +0530,
,Objects\111a.jpg,52,0,53,,,,,,,None,,,j,0.5629598999512382,None,,,,53,0,52,338.5172478000168,,,,,,,,,,,,,,,,,,,,,,,338.50125750002917,338.5172478000168,339.0022276000236,,,,,,,,,,,,,,,,,,,,,,,,339.0108642000123,339.01868430001196,339.01868430001196,339.01868430001196,342.01275170000736,shoe,None,,,342.0127928000293,342.59922760003246,j,342.02957640000386,342.02957640000386,0.5629598999512382,None,,,,,,,,,,00042,001,2026-01-17_16h29.52.993,MST_task,2024.2.0,60.09095367448805,2026-01-17 16h30.06.274002 +0530,
,Objects\173a.jpg,53,0,54,,,,,,,None,,,f,0.2892068999935873,None,,,,54,0,53,342.6149511000258,,,,,,,,,,,,,,,,,,,,,,,342.5993851000094,342.6149511000258,343.10001799999736,,,,,,,,,,,,,,,,,,,,,,,,343.10327100002905,343.11653900000965,343.11653900000965,343.11653900000965,346.1105128999916,shoe,None,,,346.1107032999862,346.4288870000164,f,346.1270990000339,346.1270990000339,0.2892068999935873,None,,,,,,,,,,00042,001,2026-01-17_16h29.52.993,MST_task,2024.2.0,60.09095367448805,2026-01-17 16h30.06.274002 +0530,
,Objects\103a.jpg,54,0,55,,,,,,,j,1.7968550000223331,0.15324759995564818,None,,,,,,55,0,54,346.4450048999861,,,,,,,,,,,,,,,,,,,,,,,346.42901680001523,346.4450048999861,346.93066070001805,,,,,,,,,,,,,,,,,,,,,,,,346.9339742999873,346.94732600002317,346.94732600002317,346.94732600002317,349.9404994000215,shoe,j,1.7968550000223331,0.15324759995564818,349.94054169999436,349.94055340002524,None,,,,,,,,,,,,,,00042,001,2026-01-17_16h29.52.993,MST_task,2024.2.0,60.09095367448805,2026-01-17 16h30.06.274002 +0530,
,Objects\010a.jpg,55,0,56,,,,,,,f,2.469106099975761,0.1530971000320278,None,,,,,,56,0,55,349.9573239000165,,,,,,,,,,,,,,,,,,,,,,,349.9406585000106,349.9573239000165,350.44241670001065,,,,,,,,,,,,,,,,,,,,,,,,350.44553050003015,350.4590356000117,350.4590356000117,350.4590356000117,353.45278849999886,shoe,f,2.469106099975761,0.1530971000320278,353.45283070002915,353.4528424000018,None,,,,,,,,,,,,,,00042,001,2026-01-17_16h29.52.993,MST_task,2024.2.0,60.09095367448805,2026-01-17 16h30.06.274002 +0530,
,Objects\212a.jpg,56,0,57,,,,,,,j,1.132336899987422,0.1436149000073783,None,,,,,,57,0,56,353.4696133999969,,,,,,,,,,,,,,,,,,,,,,,353.45291250001173,353.4696133999969,353.95480810001027,,,,,,,,,,,,,,,,,,,,,,,,353.96514380001463,353.9881480000331,353.9881480000331,353.9881480000331,356.96508270001505,indoor,j,1.132336899987422,0.1436149000073783,356.9671188000357,356.96713850001106,None,,,,,,,,,,,,,,00042,001,2026-01-17_16h29.52.993,MST_task,2024.2.0,60.09095367448805,2026-01-17 16h30.06.274002 +0530,
,Objects\102a.jpg,57,0,58,,,,,,,j,2.452497099991888,0.13594820001162589,None,,,,,,58,0,57,356.9820262999856,,,,,,,,,,,,,,,,,,,,,,,356.9672093000263,356.9820262999856,357.46768549998524,,,,,,,,,,,,357.4833554000361,,,,,,,,,,,,357.47549000004074,357.4833554000361,357.4833554000361,357.4833554000361,360.4774535000324,indoor,j,2.452497099991888,0.13594820001162589,360.47751220001373,360.47752590000164,None,,,,,,,,,,,,,,00042,001,2026-01-17_16h29.52.993,MST_task,2024.2.0,60.09095367448805,2026-01-17 16h30.06.274002 +0530,
,Objects\303a.jpg,58,0,59,,,,,,,j,1.5548434000229463,0.1430625999928452,None,,,,,,59,0,58,360.49437229998875,,,,,,,,,,,,,,,,,,,,,,,360.47760089999065,360.49437229998875,360.97950489999494,,,,,,,,,,,,,,,,,,,,,,,,360.9907999000279,361.01383449998684,361.01383449998684,361.01383449998684,363.98979650001274,indoor,j,1.5548434000229463,0.1430625999928452,363.98999209998874,363.9900051000295,None,,,,,,,,,,,,,,00042,001,2026-01-17_16h29.52.993,MST_task,2024.2.0,60.09095367448805,2026-01-17 16h30.06.274002 +0530,
,Objects\045a.jpg,59,0,60,,,,,,,f,1.6836538999923505,0.1276487000286579,None,,,,,,60,0,59,364.0063999000122,,,,,,,,,,,,,,,,,,,,,,,363.9900748000364,364.0063999000122,364.49160990002565,,,,,,,,,,,,,,,,,,,,,,,,364.499693699996,364.5248383000144,364.5248383000144,364.5248383000144,367.5020024999976,indoor,f,1.6836538999923505,0.1276487000286579,367.5020450000302,367.5020564000006,None,,,,,,,,,,,,,,00042,001,2026-01-17_16h29.52.993,MST_task,2024.2.0,60.09095367448805,2026-01-17 16h30.06.274002 +0530,
,Objects\120a.jpg,60,0,61,,,,,,,None,,,f,0.5053262999863364,None,,,,61,0,60,367.51881209999556,,,,,,,,,,,,,,,,,,,,,,,367.50212560000364,367.51881209999556,368.0037777000107,,,,,,,,,,,,,,,,,,,,,,,,368.00683259998914,368.0205343000125,368.0205343000125,368.0205343000125,371.01432580000255,indoor,None,,,371.0143648000085,371.5500358000281,f,371.0311095000361,371.0311095000361,0.5053262999863364,None,,,,,,,,,,00042,001,2026-01-17_16h29.52.993,MST_task,2024.2.0,60.09095367448805,2026-01-17 16h30.06.274002 +0530,
,Objects\354a.jpg,61,0,62,,,,,,,None,,,f,2.7853809999651276,None,,,,62,0,61,371.56634070002474,,,,,,,,,,,,,,,,,,,,,,,371.5501344000222,371.56634070002474,372.051365500025,,,,,,,,,,,,,,,,,,,,,,,,372.0571709999931,372.0689767000149,372.0689767000149,372.0689767000149,375.06274510000367,indoor,None,,,375.06280000001425,377.87253709998913,f,375.0788003000198,375.0788003000198,2.7853809999651276,None,,,,,,,,,,00042,001,2026-01-17_16h29.52.993,MST_task,2024.2.0,60.09095367448805,2026-01-17 16h30.06.274002 +0530,
,Objects\021a.jpg,62,0,63,,,,,,,None,,,f,0.38339440000709146,None,,,,63,0,62,377.88876360002905,,,,,,,,,,,,,,,,,,,,,,,377.87263360002544,377.88876360002905,378.3737644000212,,,,,,,,,,,,,,,,,,,,,,,,378.38121369999135,378.38978660001885,378.38978660001885,378.38978660001885,381.38431059999857,indoor,None,,,381.3843496000045,381.7863492000033,f,381.4010633000289,381.4010633000289,0.38339440000709146,None,,,,,,,,,,00042,001,2026-01-17_16h29.52.993,MST_task,2024.2.0,60.09095367448805,2026-01-17 16h30.06.274002 +0530,
,Objects\255a.jpg,63,0,64,,,,,,,f,2.1272989000426605,0.16012999997474253,None,,,,,,64,0,63,381.8024699999951,,,,,,,,,,,,,,,,,,,,,,,381.78644490003353,381.8024699999951,382.28743710002163,,,,,,,,,,,,,,,,,,,,,,,,382.2960740000126,382.32093200000236,382.32093200000236,382.32093200000236,385.29824740003096,shoe,f,2.1272989000426605,0.16012999997474253,385.29996640002355,385.29998549999436,None,,,,,,,,,,,,,,00042,001,2026-01-17_16h29.52.993,MST_task,2024.2.0,60.09095367448805,2026-01-17 16h30.06.274002 +0530,
,Objects\170a.jpg,64,0,65,,,,,,,j,1.8081730999983847,0.13450529996771365,None,,,,,,65,0,64,385.3147491000127,,,,,,,,,,,,,,,,,,,,,,,385.3000649000169,385.3147491000127,385.80018890002975,,,,,,,,,,,,385.833134000015,,,,,,,,,,,,385.8081456000218,385.833134000015,385.833134000015,385.833134000015,388.8103013000218,shoe,j,1.8081730999983847,0.13450529996771365,388.8103574999841,388.8103704000241,None,,,,,,,,,,,,,,00042,001,2026-01-17_16h29.52.993,MST_task,2024.2.0,60.09095367448805,2026-01-17 16h30.06.274002 +0530,
,Objects\144a.jpg,65,0,66,,,,,,,None,,,j,None,None,,,,66,0,65,388.8270598000381,,,,,,,,,,,,,,,,,,,,,,,388.81060780002736,388.8270598000381,389.31201480003074,,,,,,,,,,,,,,,,,,,,,,,,389.31586430000607,389.32880200003274,389.32880200003274,389.32880200003274,392.3223994,shoe,None,,,392.32245520001743,392.47360100003425,j,392.3390658000135,392.3390658000135,None,None,,,,,,,,,,00042,001,2026-01-17_16h29.52.993,MST_task,2024.2.0,60.09095367448805,2026-01-17 16h30.06.274002 +0530,
,Objects\166a.jpg,66,0,67,,,,,,,f,1.5864148999680765,0.1355193000053987,None,,,,,,67,0,66,392.48947670002235,,,,,,,,,,,,,,,,,,,,,,,392.47373450000305,392.48947670002235,392.9746919000172,,,,,,,,,,,,,,,,,,,,,,,,392.9777436000295,392.9911823000293,392.9911823000293,392.9911823000293,395.98517460003495,shoe,f,1.5864148999680765,0.1355193000053987,395.98525379999774,395.9852675999864,None,,,,,,,,,,,,,,00042,001,2026-01-17_16h29.52.993,MST_task,2024.2.0,60.09095367448805,2026-01-17 16h30.06.274002 +0530,
,Objects\210a.jpg,67,0,68,,,,,,,f,1.19425980001688,0.17396039998857304,None,,,,,,68,0,67,396.00176439998904,,,,,,,,,,,,,,,,,,,,,,,395.98538910003845,396.00176439998904,396.48702780000167,,,,,,,,,,,,,,,,,,,,,,,,396.4938148999936,396.5034381999867,396.5034381999867,396.5034381999867,399.49760820000665,shoe,f,1.19425980001688,0.17396039998857304,399.49765010003466,399.49766230001114,None,,,,,,,,,,,,,,00042,001,2026-01-17_16h29.52.993,MST_task,2024.2.0,60.09095367448805,2026-01-17 16h30.06.274002 +0530,
,Objects\342a.jpg,68,0,69,,,,,,,j,2.577193500008434,0.14341109996894374,None,,,,,,69,0,68,399.5143065000302,,,,,,,,,,,,,,,,,,,,,,,399.4977331000264,399.5143065000302,399.9992736999993,,,,,,,,,,,,,,,,,,,,,,,,400.00659170001745,400.01575680001406,400.01575680001406,400.01575680001406,403.0098104000208,shoe,j,2.577193500008434,0.14341109996894374,403.00985349999974,403.0098658000352,None,,,,,,,,,,,,,,00042,001,2026-01-17_16h29.52.993,MST_task,2024.2.0,60.09095367448805,2026-01-17 16h30.06.274002 +0530,
,Objects\336a.jpg,69,0,70,,,,,,,f,1.7521528000361286,0.13612099998863414,None,,,,,,70,0,69,403.0265313999844,,,,,,,,,,,,,,,,,,,,,,,403.00993470003596,403.0265313999844,403.5116073000245,,,,,,,,,,,,,,,,,,,,,,,,403.51891069998965,403.5281142999884,403.5281142999884,403.5281142999884,406.5223898999975,shoe,f,1.7521528000361286,0.13612099998863414,406.5225963999983,406.522609000036,None,,,,,,,,,,,,,,00042,001,2026-01-17_16h29.52.993,MST_task,2024.2.0,60.09095367448805,2026-01-17 16h30.06.274002 +0530,
,Objects\231a.jpg,70,0,71,,,,,,,j,1.7117411000072025,0.1284927999950014,None,,,,,,71,0,70,406.538669200032,,,,,,,,,,,,,,,,,,,,,,,406.52268029999686,406.538669200032,407.0238795999903,,,,,,,,,,,,,,,,,,,,,,,,407.0306616000016,407.0403682999895,407.0403682999895,407.0403682999895,410.0342693999992,indoor,j,1.7117411000072025,0.1284927999950014,410.03563240001677,410.03565000003437,None,,,,,,,,,,,,,,00042,001,2026-01-17_16h29.52.993,MST_task,2024.2.0,60.09095367448805,2026-01-17 16h30.06.274002 +0530,
,Objects\145a.jpg,71,0,72,,,,,,,j,2.1747795999981463,0.13536900002509356,None,,,,,,72,0,71,410.05122540000593,,,,,,,,,,,,,,,,,,,,,,,410.0357204999891,410.05122540000593,410.5361012000358,,,,,,,,,,,,,,,,,,,,,,,,410.5457275999943,410.56953280000016,410.56953280000016,410.56953280000016,413.54668580001453,indoor,j,2.1747795999981463,0.13536900002509356,413.5470093000331,413.54702260001795,None,,,,,,,,,,,,,,00042,001,2026-01-17_16h29.52.993,MST_task,2024.2.0,60.09095367448805,2026-01-17 16h30.06.274002 +0530,
,Objects\078a.jpg,72,0,73,,,,,,,None,,,j,0.108965800027363,None,,,,73,0,72,413.56327990000136,,,,,,,,,,,,,,,,,,,,,,,413.5471045000013,413.56327990000136,414.048654000042,,,,,,,,,,,,,,,,,,,,,,,,414.05170690000523,414.0649799000239,414.0649799000239,414.0649799000239,417.0589700000128,indoor,None,,,417.0591822999995,417.1934820000315,j,417.0755649000057,417.0755649000057,0.108965800027363,None,,,,,,,,,,00042,001,2026-01-17_16h29.52.993,MST_task,2024.2.0,60.09095367448805,2026-01-17 16h30.06.274002 +0530,
,Objects\353a.jpg,73,0,74,,,,,,,f,1.3449634999851696,0.17751370003679767,None,,,,,,74,0,73,417.2095471000066,,,,,,,,,,,,,,,,,,,,,,,417.1935705000069,417.2095471000066,417.69489640003303,,,,,,,,,,,,,,,,,,,,,,,,417.70168950001244,417.7108870000229,417.7108870000229,417.7108870000229,420.7052327999845,indoor,f,1.3449634999851696,0.17751370003679767,420.70553360000486,420.7055461999844,None,,,,,,,,,,,,,,00042,001,2026-01-17_16h29.52.993,MST_task,2024.2.0,60.09095367448805,2026-01-17 16h30.06.274002 +0530,
,Objects\096a.jpg,74,0,75,,,,,,,None,,,j,0.17368879995774478,None,,,,75,0,74,420.72184890002245,,,,,,,,,,,,,,,,,,,,,,,420.70561539998744,420.72184890002245,421.20685780001804,,,,,,,,,,,,,,,,,,,,,,,,421.21501540002646,421.22300360002555,421.22300360002555,421.22300360002555,424.21739860001253,indoor,None,,,424.2174498999957,424.4185071000247,j,424.2339580000262,424.2339580000262,0.17368879995774478,None,,,,,,,,,,00042,001,2026-01-17_16h29.52.993,MST_task,2024.2.0,60.09095367448805,2026-01-17 16h30.06.274002 +0530,
,Objects\047a.jpg,75,0,76,,,,,,,f,0.9834742999519221,0.16015380003955215,None,,,,,,76,0,75,424.43480210000416,,,,,,,,,,,,,,,,,,,,,,,424.41859810001915,424.43480210000416,424.9198675000225,,,,,,,,,,,,,,,,,,,,,,,,424.9293551000301,424.9531266000122,424.9531266000122,424.9531266000122,427.93052410002565,indoor,f,0.9834742999519221,0.16015380003955215,427.93057020002743,427.93058230000315,None,,,,,,,,,,,,,,00042,001,2026-01-17_16h29.52.993,MST_task,2024.2.0,60.09095367448805,2026-01-17 16h30.06.274002 +0530,
,Objects\095a.jpg,76,0,77,,,,,,,f,1.6383714000112377,0.16868599998997524,None,,,,,,77,0,76,427.94713899999624,,,,,,,,,,,,,,,,,,,,,,,427.9306547000306,427.94713899999624,428.4321912000305,,,,,,,,,,,,,,,,,,,,,,,,428.4420082999859,428.46562370000174,428.46562370000174,428.46562370000174,431.4425638000248,indoor,f,1.6383714000112377,0.16868599998997524,431.44261490000645,431.44264620001195,None,,,,,,,,,,,,,,00042,001,2026-01-17_16h29.52.993,MST_task,2024.2.0,60.09095367448805,2026-01-17 16h30.06.274002 +0530,
,Objects\165a.jpg,77,0,78,,,,,,,f,1.3990026999963447,0.15223529998911545,None,,,,,,78,0,77,431.4595127000357,,,,,,,,,,,,,,,,,,,,,,,431.4427252000314,431.4595127000357,431.9443896000157,,,,,,,,,,,,,,,,,,,,,,,,431.94893499999307,431.9611147000105,431.9611147000105,431.9611147000105,434.95497970003635,shoe,f,1.3990026999963447,0.15223529998911545,434.95703580003465,434.95705620001536,None,,,,,,,,,,,,,,00042,001,2026-01-17_16h29.52.993,MST_task,2024.2.0,60.09095367448805,2026-01-17 16h30.06.274002 +0530,
,Objects\340a.jpg,78,0,79,,,,,,,f,2.2384929999825545,0.15342560003045946,None,,,,,,79,0,78,434.9721572000417,,,,,,,,,,,,,,,,,,,,,,,434.9571702000103,434.9721572000417,435.4571277000359,,,,,,,,,,,,435.47343389998423,,,,,,,,,,,,435.46360790001927,435.47343389998423,435.47343389998423,435.47343389998423,438.467298500007,shoe,f,2.2384929999825545,0.15342560003045946,438.4673666000017,438.46738460002234,None,,,,,,,,,,,,,,00042,001,2026-01-17_16h29.52.993,MST_task,2024.2.0,60.09095367448805,2026-01-17 16h30.06.274002 +0530,
,Objects\023a.jpg,79,0,80,,,,,,,f,2.005979400011711,0.1601280000177212,None,,,,,,80,0,79,438.48398520000046,,,,,,,,,,,,,,,,,,,,,,,438.46772499999497,438.48398520000046,438.96918710001046,,,,,,,,,,,,,,,,,,,,,,,,438.98012820002623,439.0024315000046,439.0024315000046,439.0024315000046,441.9797454000218,shoe,f,2.005979400011711,0.1601280000177212,441.97980130004,441.9798129000119,None,,,,,,,,,,,,,,00042,001,2026-01-17_16h29.52.993,MST_task,2024.2.0,60.09095367448805,2026-01-17 16h30.06.274002 +0530,
,Objects\333a.jpg,80,0,81,,,,,,,f,2.5980710999574512,0.16807479999260977,None,,,,,,81,0,80,441.99643020000076,,,,,,,,,,,,,,,,,,,,,,,441.9798838000279,441.99643020000076,442.4814936000039,,,,,,,,,,,,,,,,,,,,,,,,442.4850510000251,442.49848250002833,442.49848250002833,442.49848250002833,445.49216820002766,shoe,f,2.5980710999574512,0.16807479999260977,445.49228390003555,445.4923265000107,None,,,,,,,,,,,,,,00042,001,2026-01-17_16h29.52.993,MST_task,2024.2.0,60.09095367448805,2026-01-17 16h30.06.274002 +0530,
,Objects\363a.jpg,81,0,82,,,,,,,f,2.358953899994958,0.12719510000897571,None,,,,,,82,0,81,445.5086292999913,,,,,,,,,,,,,,,,,,,,,,,445.4924011999974,445.5086292999913,445.9938446999877,,,,,,,,,,,,,,,,,,,,,,,,445.9969048000057,446.01032280002255,446.01032280002255,446.01032280002255,449.0041731999954,shoe,f,2.358953899994958,0.12719510000897571,449.00438480003504,449.0043981000199,None,,,,,,,,,,,,,,00042,001,2026-01-17_16h29.52.993,MST_task,2024.2.0,60.09095367448805,2026-01-17 16h30.06.274002 +0530,
,Objects\097a.jpg,82,0,83,,,,,,,j,2.4133588999975473,0.1442183000035584,None,,,,,,83,0,82,449.0207667000359,,,,,,,,,,,,,,,,,,,,,,,449.0044747000211,449.0207667000359,449.50631460000295,,,,,,,,,,,,,,,,,,,,,,,,449.5096807000227,449.5224753000075,449.5224753000075,449.5224753000075,452.5166830000235,shoe,j,2.4133588999975473,0.1442183000035584,452.5167403999949,452.51675270003034,None,,,,,,,,,,,,,,00042,001,2026-01-17_16h29.52.993,MST_task,2024.2.0,60.09095367448805,2026-01-17 16h30.06.274002 +0530,
,Objects\014a.jpg,83,0,84,,,,,,,f,1.853776599979028,0.12779800000134856,None,,,,,,84,0,83,452.5330595000414,,,,,,,,,,,,,,,,,,,,,,,452.51682640000945,452.5330595000414,453.0182916999911,,,,,,,,,,,,,,,,,,,,,,,,453.02134869998554,453.03497060004156,453.03497060004156,453.03497060004156,456.02898940001614,shoe,f,1.853776599979028,0.12779800000134856,456.0291820000275,456.029194200004,None,,,,,,,,,,,,,,00042,001,2026-01-17_16h29.52.993,MST_task,2024.2.0,60.09095367448805,2026-01-17 16h30.06.274002 +0530,
,Objects\338a.jpg,84,0,85,,,,,,,f,2.7492783999769017,0.12055540003348142,None,,,,,,85,0,84,456.04536570003256,,,,,,,,,,,,,,,,,,,,,,,456.02931750001153,456.04536570003256,456.5305619999999,,,,,,,,,,,,,,,,,,,,,,,,456.53851129999384,456.54683860001387,456.54683860001387,456.54683860001387,459.54123110004,indoor,f,2.7492783999769017,0.12055540003348142,459.5430912000011,459.5431098000263,None,,,,,,,,,,,,,,00042,001,2026-01-17_16h29.52.993,MST_task,2024.2.0,60.09095367448805,2026-01-17 16h30.06.274002 +0530,
,Objects\229a.jpg,85,0,86,,,,,,,j,2.2196352999890223,0.08002069999929518,None,,,,,,86,0,85,459.5577134999912,,,,,,,,,,,,,,,,,,,,,,,459.5431837000069,459.5577134999912,460.043194900034,,,,,,,,,,,,460.07610890001524,,,,,,,,,,,,460.0514978999854,460.07610890001524,460.07610890001524,460.07610890001524,463.0534783999901,indoor,j,2.2196352999890223,0.08002069999929518,463.05352130002575,463.05353470001137,None,,,,,,,,,,,,,,00042,001,2026-01-17_16h29.52.993,MST_task,2024.2.0,60.09095367448805,2026-01-17 16h30.06.274002 +0530,
,Objects\221a.jpg,86,0,87,,,,,,,j,2.7003385000280105,0.11176970001542941,None,,,,,,87,0,86,463.0699492000276,,,,,,,,,,,,,,,,,,,,,,,463.0536189000122,463.0699492000276,463.5551569000236,,,,,,,,,,,,,,,,,,,,,,,,463.563741400023,463.5884026000276,463.5884026000276,463.5884026000276,466.5655972000095,indoor,j,2.7003385000280105,0.11176970001542941,466.56564179999987,466.56565400003456,None,,,,,,,,,,,,,,00042,001,2026-01-17_16h29.52.993,MST_task,2024.2.0,60.09095367448805,2026-01-17 16h30.06.274002 +0530,
,Objects\104a.jpg,87,0,88,,,,,,,f,1.266987800016068,0.17665400000987574,None,,,,,,88,0,87,466.58253050001804,,,,,,,,,,,,,,,,,,,,,,,466.565726300003,466.58253050001804,467.06736470002215,,,,,,,,,,,,,,,,,,,,,,,,467.0753129000077,467.10083280003164,467.10083280003164,467.10083280003164,470.0779799000011,indoor,f,1.266987800016068,0.17665400000987574,470.07816710002953,470.07817970000906,None,,,,,,,,,,,,,,00042,001,2026-01-17_16h29.52.993,MST_task,2024.2.0,60.09095367448805,2026-01-17 16h30.06.274002 +0530,
,Objects\330a.jpg,88,0,89,,,,,,,f,2.514956600032747,0.17620190000161529,None,,,,,,89,0,88,470.09455610002624,,,,,,,,,,,,,,,,,,,,,,,470.0782507000258,470.09455610002624,470.5797734000371,,,,,,,,,,,,,,,,,,,,,,,,470.58813859999646,470.61323560000164,470.61323560000164,470.61323560000164,473.5901473000413,indoor,f,2.514956600032747,0.17620190000161529,473.59020400000736,473.590215800039,None,,,,,,,,,,,,,,00042,001,2026-01-17_16h29.52.993,MST_task,2024.2.0,60.09095367448805,2026-01-17 16h30.06.274002 +0530,
,Objects\301a.jpg,89,0,90,,,,,,,j,2.866995099990163,None,None,,,,,,90,0,89,473.6070819000015,,,,,,,,,,,,,,,,,,,,,,,473.5905721000163,473.6070819000015,474.0919785000151,,,,,,,,,,,,,,,,,,,,,,,,474.0985057000071,474.10868770000525,474.10868770000525,474.10868770000525,477.10260809998726,indoor,j,2.866995099990163,None,477.1026517000282,477.102664200007,None,,,,,,,,,,,,,,00042,001,2026-01-17_16h29.52.993,MST_task,2024.2.0,60.09095367448805,2026-01-17 16h30.06.274002 +0530,
,Objects\156a.jpg,90,0,91,,,,,,,j,2.0506825000047684,0.15235430002212524,None,,,,,,91,0,90,477.11927319999086,,,,,,,,,,,,,,,,,,,,,,,477.1027345000184,477.11927319999086,477.60456000000704,,,,,,,,,,,,,,,,,,,,,,,,477.6078503000317,477.6209872000036,477.6209872000036,477.6209872000036,480.61487099999795,indoor,j,2.0506825000047684,0.15235430002212524,480.6149120000191,480.6149479000014,None,,,,,,,,,,,,,,00042,001,2026-01-17_16h29.52.993,MST_task,2024.2.0,60.09095367448805,2026-01-17 16h30.06.274002 +0530,
,Objects\292a.jpg,91,0,92,,,,,,,None,,,j,1.5283576999790967,None,,,,92,0,91,480.6314620000194,,,,,,,,,,,,,,,,,,,,,,,480.6150304999901,480.6314620000194,481.11677190003684,,,,,,,,,,,,,,,,,,,,,,,,481.12467620003736,481.15019780001603,481.15019780001603,481.15019780001603,484.1277546000201,shoe,None,,,484.1291790000396,485.683365600009,j,484.1439400000381,484.1439400000381,1.5283576999790967,None,,,,,,,,,,00042,001,2026-01-17_16h29.52.993,MST_task,2024.2.0,60.09095367448805,2026-01-17 16h30.06.274002 +0530,
,Objects\300a.jpg,92,0,93,,,,,,,f,1.9984527999768034,0.1607359999907203,None,,,,,,93,0,92,485.6992174999905,,,,,,,,,,,,,,,,,,,,,,,485.68346090003615,485.6992174999905,486.18481659999816,,,,,,,,,,,,,,,,,,,,,,,,486.1927565000369,486.2176460000337,486.2176460000337,486.2176460000337,489.1948047000333,shoe,f,1.9984527999768034,0.1607359999907203,489.19484720000764,489.1948592000408,None,,,,,,,,,,,,,,00042,001,2026-01-17_16h29.52.993,MST_task,2024.2.0,60.09095367448805,2026-01-17 16h30.06.274002 +0530,
,Objects\016a.jpg,93,0,94,,,,,,,None,,,f,0.8529122999752872,None,,,,94,0,93,489.21167889999924,,,,,,,,,,,,,,,,,,,,,,,489.19493589998456,489.21167889999924,489.69659410003806,,,,,,,,,,,,,,,,,,,,,,,,489.70561250002356,489.73006239999086,489.73006239999086,489.73006239999086,492.70721070002764,shoe,None,,,492.7073945000302,493.57773860002635,f,492.72379300004104,492.72379300004104,0.8529122999752872,None,,,,,,,,,,00042,001,2026-01-17_16h29.52.993,MST_task,2024.2.0,60.09095367448805,2026-01-17 16h30.06.274002 +0530,
,Objects\238a.jpg,94,0,95,,,,,,,f,1.6496945000253618,0.16021280002314597,None,,,,,,95,0,94,493.5935132000013,,,,,,,,,,,,,,,,,,,,,,,493.5778746000142,493.5935132000013,494.0787138000014,,,,,,,,,,,,,,,,,,,,,,,,494.0862997000222,494.09484790003626,494.09484790003626,494.09484790003626,497.08923019998474,shoe,f,1.6496945000253618,0.16021280002314597,497.08928970003035,497.08931400004076,None,,,,,,,,,,,,,,00042,001,2026-01-17_16h29.52.993,MST_task,2024.2.0,60.09095367448805,2026-01-17 16h30.06.274002 +0530,
,Objects\260a.jpg,95,0,96,,,,,,,f,2.576710399996955,0.12828710000030696,None,,,,,,96,0,95,497.1058240000275,,,,,,,,,,,,,,,,,,,,,,,497.0894672999857,497.1058240000275,497.59106609999435,,,,,,,,,,,,,,,,,,,,,,,,497.59857900004135,497.6072147000232,497.6072147000232,497.6072147000232,500.60137709998526,shoe,f,2.576710399996955,0.12828710000030696,500.60142210003687,500.60143410001183,None,,,,,,,,,,,,,,00042,001,2026-01-17_16h29.52.993,MST_task,2024.2.0,60.09095367448805,2026-01-17 16h30.06.274002 +0530,
,Objects\273a.jpg,96,0,97,,,,,,,j,1.5591503000468947,0.16804279998177662,None,,,,,,97,0,96,500.61840030003805,,,,,,,,,,,,,,,,,,,,,,,500.6019124999875,500.61840030003805,501.1033368000062,,,,,,,,,,,,,,,,,,,,,,,,501.1118414000375,501.13670279999496,501.13670279999496,501.13670279999496,504.11403120000614,shoe,j,1.5591503000468947,0.16804279998177662,504.1140763000003,504.11408840003423,None,,,,,,,,,,,,,,00042,001,2026-01-17_16h29.52.993,MST_task,2024.2.0,60.09095367448805,2026-01-17 16h30.06.274002 +0530,
,Objects\028a.jpg,97,0,98,,,,,,,j,1.5121541999978945,0.1043107999721542,None,,,,,,98,0,97,504.13040700001875,,,,,,,,,,,,,,,,,,,,,,,504.114161400008,504.13040700001875,504.6159184999997,,,,,,,,,,,,,,,,,,,,,,,,504.61882999999216,504.63215130002936,504.63215130002936,504.63215130002936,507.6261198000284,shoe,j,1.5121541999978945,0.1043107999721542,507.6261725000222,507.62620290002087,None,,,,,,,,,,,,,,00042,001,2026-01-17_16h29.52.993,MST_task,2024.2.0,60.09095367448805,2026-01-17 16h30.06.274002 +0530,
,Objects\162a.jpg,98,0,99,,,,,,,None,,,j,0.03801219997694716,None,,,,99,0,98,507.64271570002893,,,,,,,,,,,,,,,,,,,,,,,507.62631090002833,507.64271570002893,508.12792120000813,,,,,,,,,,,,,,,,,,,,,,,,508.1320923999883,508.1444375999854,508.1444375999854,508.1444375999854,511.13861510000424,indoor,None,,,511.14010300004156,511.2059795000241,j,511.1550026999903,511.1550026999903,0.03801219997694716,None,,,,,,,,,,00042,001,2026-01-17_16h29.52.993,MST_task,2024.2.0,60.09095367448805,2026-01-17 16h30.06.274002 +0530,
,Objects\262a.jpg,99,0,100,,,,,,,f,2.0374460000311956,0.19934759999159724,None,,,,,,100,0,99,511.22190659999615,,,,,,,,,,,,,,,,,,,,,,,511.20606270001736,511.22190659999615,511.70707559998846,,,,,,,,,,,,,,,,,,,,,,,,511.7142706000013,511.72345789999235,511.72345789999235,511.72345789999235,514.7175120000029,indoor,f,2.0374460000311956,0.19934759999159724,514.7175556999864,514.7175680000219,None,,,,,,,,,,,,,,00042,001,2026-01-17_16h29.52.993,MST_task,2024.2.0,60.09095367448805,2026-01-17 16h30.06.274002 +0530,
,Objects\321a.jpg,100,0,101,,,,,,,j,2.0519954999908805,0.1599675000179559,None,,,,,,101,0,100,514.7344533000141,,,,,,,,,,,,,,,,,,,,,,,514.7176385000348,514.7344533000141,515.2194455999997,,,,,,,,,,,,,,,,,,,,,,,,515.2261217000196,515.2362665000255,515.2362665000255,515.2362665000255,518.2299588000169,indoor,j,2.0519954999908805,0.1599675000179559,518.2300012999913,518.2300132000237,None,,,,,,,,,,,,,,00042,001,2026-01-17_16h29.52.993,MST_task,2024.2.0,60.09095367448805,2026-01-17 16h30.06.274002 +0530,
,Objects\216a.jpg,101,0,102,,,,,,,None,,,f,1.5133381999912672,None,,,,102,0,101,518.2468009000295,,,,,,,,,,,,,,,,,,,,,,,518.2300824000267,518.2468009000295,518.7317540000076,,,,,,,,,,,,,,,,,,,,,,,,518.7478730999865,518.765235800005,518.765235800005,518.765235800005,521.7428760000039,indoor,None,,,521.742914500006,523.2823992000194,f,521.7592998000327,521.7592998000327,1.5133381999912672,None,,,,,,,,,,00042,001,2026-01-17_16h29.52.993,MST_task,2024.2.0,60.09095367448805,2026-01-17 16h30.06.274002 +0530,
,Objects\122a.jpg,102,0,103,,,,,,,f,2.720571600017138,0.16776559996651486,None,,,,,,103,0,102,523.2986144000315,,,,,,,,,,,,,,,,,,,,,,,523.2824929000344,523.2986144000315,523.7831888000364,,,,,,,,,,,,,,,,,,,,,,,,523.7858960999874,523.799828600022,523.799828600022,523.799828600022,526.7937508000177,indoor,f,2.720571600017138,0.16776559996651486,526.7939417000161,526.7939553000033,None,,,,,,,,,,,,,,00042,001,2026-01-17_16h29.52.993,MST_task,2024.2.0,60.09095367448805,2026-01-17 16h30.06.274002 +0530,
,Objects\280a.jpg,103,0,104,,,,,,,f,1.720716999960132,0.1835242000524886,None,,,,,,104,0,103,526.8101320000133,,,,,,,,,,,,,,,,,,,,,,,526.7940262000193,526.8101320000133,527.2953413000214,,,,,,,,,,,,,,,,,,,,,,,,527.2986194000114,527.3120099999942,527.3120099999942,527.3120099999942,530.3060790000018,indoor,f,1.720716999960132,0.1835242000524886,530.3061243999982,530.3061398999998,None,,,,,,,,,,,,,,00042,001,2026-01-17_16h29.52.993,MST_task,2024.2.0,60.09095367448805,2026-01-17 16h30.06.274002 +0530,
,Objects\054a.jpg,104,0,105,,,,,,,f,1.9601513999514282,0.16732370003592223,None,,,,,,105,0,104,530.3224224000005,,,,,,,,,,,,,,,,,,,,,,,530.3062115000212,530.3224224000005,530.8082294000196,,,,,,,,,,,,,,,,,,,,,,,,530.8115954000386,530.8241631000419,530.8241631000419,530.8241631000419,533.8181860999903,indoor,f,1.9601513999514282,0.16732370003592223,533.818496300024,533.8185086000012,None,,,,,,,,,,,,,,00042,001,2026-01-17_16h29.52.993,MST_task,2024.2.0,60.09095367448805,2026-01-17 16h30.06.274002 +0530,
,Objects\310a.jpg,105,0,106,,,,,,,j,2.167176400020253,0.17519209999591112,None,,,,,,106,0,105,533.8347430999856,,,,,,,,,,,,,,,,,,,,,,,533.8185813000309,533.8347430999856,534.319937799999,,,,,,,,,,,,,,,,,,,,,,,,534.3293679000344,534.3532330000307,534.3532330000307,534.3532330000307,537.3304061000235,shoe,j,2.167176400020253,0.17519209999591112,537.3318560000043,537.331874400028,None,,,,,,,,,,,,,,00042,001,2026-01-17_16h29.52.993,MST_task,2024.2.0,60.09095367448805,2026-01-17 16h30.06.274002 +0530,
,Objects\190a.jpg,106,0,107,,,,,,,None,,,f,1.204389699967578,None,,,,107,0,106,537.3471640000353,,,,,,,,,,,,,,,,,,,,,,,537.3322505000397,537.3471640000353,537.832106899994,,,,,,,,,,,,,,,,,,,,,,,,537.8404458999867,537.8656259999843,537.8656259999843,537.8656259999843,540.8431778000086,shoe,None,,,540.8432388000074,542.0807793000131,f,540.8599229000392,540.8599229000392,1.204389699967578,None,,,,,,,,,,00042,001,2026-01-17_16h29.52.993,MST_task,2024.2.0,60.09095367448805,2026-01-17 16h30.06.274002 +0530,
,Objects\382a.jpg,107,0,108,,,,,,,None,,,j,2.01590329996543,None,,,,108,0,107,542.0969916000031,,,,,,,,,,,,,,,,,,,,,,,542.080876299995,542.0969916000031,542.5824239000212,,,,,,,,,,,,,,,,,,,,,,,,542.5913822000148,542.6154726000386,542.6154726000386,542.6154726000386,545.5923766000196,shoe,None,,,545.5924195999978,547.6335986999911,j,545.6091086000088,545.6091086000088,2.01590329996543,None,,,,,,,,,,00042,001,2026-01-17_16h29.52.993,MST_task,2024.2.0,60.09095367448805,2026-01-17 16h30.06.274002 +0530,
,Objects\253a.jpg,108,0,109,,,,,,,f,0.9124710999894887,0.16854690003674477,None,,,,,,109,0,108,547.649587700027,,,,,,,,,,,,,,,,,,,,,,,547.6336926000076,547.649587700027,548.1345631000004,,,,,,,,,,,,,,,,,,,,,,,,548.1421776000061,548.1512753000134,548.1512753000134,548.1512753000134,551.145053300017,shoe,f,0.9124710999894887,0.16854690003674477,551.145094800042,551.1451073000208,None,,,,,,,,,,,,,,00042,001,2026-01-17_16h29.52.993,MST_task,2024.2.0,60.09095367448805,2026-01-17 16h30.06.274002 +0530,
,Objects\081a.jpg,109,0,110,,,,,,,j,2.863924600009341,None,None,,,,,,110,0,109,551.1620974999969,,,,,,,,,,,,,,,,,,,,,,,551.1452458000276,551.1620974999969,551.646854199993,,,,,,,,,,,,,,,,,,,,,,,,551.6501960000023,551.6637327999924,551.6637327999924,551.6637327999924,554.6573575999937,shoe,j,2.863924600009341,None,554.6574028999894,554.657414300018,None,,,,,,,,,,,,,,00042,001,2026-01-17_16h29.52.993,MST_task,2024.2.0,60.09095367448805,2026-01-17 16h30.06.274002 +0530,
,Objects\169a.jpg,110,0,111,,,,,,,j,2.608145500009414,0.17554599995492026,None,,,,,,111,0,110,554.6746811000048,,,,,,,,,,,,,,,,,,,,,,,554.6574861000408,554.6746811000048,555.1591542999959,,,,,,,,,,,,,,,,,,,,,,,,555.1624312000349,555.1759289000183,555.1759289000183,555.1759289000183,558.1697208000114,shoe,j,2.608145500009414,0.17554599995492026,558.1697715999908,558.1697849000338,None,,,,,,,,,,,,,,00042,001,2026-01-17_16h29.52.993,MST_task,2024.2.0,60.09095367448805,2026-01-17 16h30.06.274002 +0530,
,Objects\027a.jpg,111,0,112,,,,,,,j,1.2474795999587514,0.24026920000324026,None,,,,,,112,0,111,558.1864836000022,,,,,,,,,,,,,,,,,,,,,,,558.170117200003,558.1864836000022,558.6714590000338,,,,,,,,,,,,,,,,,,,,,,,,558.6749239999917,558.6881916000275,558.6881916000275,558.6881916000275,561.6821232000366,shoe,j,1.2474795999587514,0.24026920000324026,561.6821768000373,561.6821894000168,None,,,,,,,,,,,,,,00042,001,2026-01-17_16h29.52.993,MST_task,2024.2.0,60.09095367448805,2026-01-17 16h30.06.274002 +0530,
,Objects\189a.jpg,112,0,113,,,,,,,j,2.3758358000195585,0.16818169999169186,None,,,,,,113,0,112,561.6987775000161,,,,,,,,,,,,,,,,,,,,,,,561.6822646000073,561.6987775000161,562.1839058999904,,,,,,,,,,,,,,,,,,,,,,,,562.1879863000358,562.2004182999954,562.2004182999954,562.2004182999954,565.1942586000077,indoor,j,2.3758358000195585,0.16818169999169186,565.1960738000344,565.1960899000405,None,,,,,,,,,,,,,,00042,001,2026-01-17_16h29.52.993,MST_task,2024.2.0,60.09095367448805,2026-01-17 16h30.06.274002 +0530,
,Objects\065a.jpg,113,0,114,,,,,,,None,,,j,0.7334367000148632,None,,,,114,0,113,565.2110773000168,,,,,,,,,,,,,,,,,,,,,,,565.1961597999907,565.2110773000168,565.6965229000198,,,,,,,,,,,,565.7127943999949,,,,,,,,,,,,565.6994527000352,565.7127943999949,565.7127943999949,565.7127943999949,568.7066727000056,indoor,None,,,568.7070108000189,569.4599135000026,j,568.7232485000277,568.7232485000277,0.7334367000148632,None,,,,,,,,,,00042,001,2026-01-17_16h29.52.993,MST_task,2024.2.0,60.09095367448805,2026-01-17 16h30.06.274002 +0530,
,Objects\311a.jpg,114,0,115,,,,,,,j,1.1190256000263616,0.17490549996728078,None,,,,,,115,0,114,569.4760156000266,,,,,,,,,,,,,,,,,,,,,,,569.4600077000214,569.4760156000266,569.9612640000414,,,,,,,,,,,,,,,,,,,,,,,,569.9644181000185,569.9779327000142,569.9779327000142,569.9779327000142,572.9717817000346,indoor,j,1.1190256000263616,0.17490549996728078,572.9718247000128,572.9718370999908,None,,,,,,,,,,,,,,00042,001,2026-01-17_16h29.52.993,MST_task,2024.2.0,60.09095367448805,2026-01-17 16h30.06.274002 +0530,
,Objects\364a.jpg,115,0,116,,,,,,,j,1.1900874000275508,0.2004985999665223,None,,,,,,116,0,115,572.9883514000103,,,,,,,,,,,,,,,,,,,,,,,572.9719081000076,572.9883514000103,573.4736126000062,,,,,,,,,,,,,,,,,,,,,,,,573.4793277999852,573.4896781999851,573.4896781999851,573.4896781999851,576.4839518000372,indoor,j,1.1900874000275508,0.2004985999665223,576.4839957000222,576.4840085000033,None,,,,,,,,,,,,,,00042,001,2026-01-17_16h29.52.993,MST_task,2024.2.0,60.09095367448805,2026-01-17 16h30.06.274002 +0530,
,Objects\298a.jpg,116,0,117,,,,,,,f,2.3809022000059485,0.21573559998068959,None,,,,,,117,0,116,576.5004756000126,,,,,,,,,,,,,,,,,,,,,,,576.4840799000231,576.5004756000126,576.9856998000178,,,,,,,,,,,,,,,,,,,,,,,,576.9937983000418,577.0189312000293,577.0189312000293,577.0189312000293,579.9960916999844,indoor,f,2.3809022000059485,0.21573559998068959,579.9961334000109,579.9961454999866,None,,,,,,,,,,,,,,00042,001,2026-01-17_16h29.52.993,MST_task,2024.2.0,60.09095367448805,2026-01-17 16h30.06.274002 +0530,
,Objects\142a.jpg,117,0,118,,,,,,,f,1.3103412999771535,0.16699769999831915,None,,,,,,118,0,117,580.0129104999942,,,,,,,,,,,,,,,,,,,,,,,579.9962147999904,580.0129104999942,580.4979194999905,,,,,,,,,,,,,,,,,,,,,,,,580.5010681000422,580.5146143999882,580.5146143999882,580.5146143999882,583.5083704999997,indoor,f,1.3103412999771535,0.16699769999831915,583.5084365000366,583.508447900007,None,,,,,,,,,,,,,,00042,001,2026-01-17_16h29.52.993,MST_task,2024.2.0,60.09095367448805,2026-01-17 16h30.06.274002 +0530,
,Objects\127a.jpg,118,0,119,,,,,,,f,2.325535000010859,0.1760245999903418,None,,,,,,119,0,118,583.5251954999985,,,,,,,,,,,,,,,,,,,,,,,583.5085180000169,583.5251954999985,584.0102075000177,,,,,,,,,,,,,,,,,,,,,,,,584.0132595000323,584.0269275000319,584.0269275000319,584.0269275000319,587.0207961000269,indoor,f,2.325535000010859,0.1760245999903418,587.0208381999983,587.0208499000291,None,,,,,,,,,,,,,,00042,001,2026-01-17_16h29.52.993,MST_task,2024.2.0,60.09095367448805,2026-01-17 16h30.06.274002 +0530,
,Objects\357a.jpg,119,0,120,,,,,,,j,2.3503792000119574,0.15899759996682405,None,,,,,,120,0,119,587.0373869999894,,,,,,,,,,,,,,,,,,,,,,,587.0209242000128,587.0373869999894,587.5227769000339,,,,,,,,,,,,,,,,,,,,,,,,587.5269989999942,587.5391022000113,587.5391022000113,587.5391022000113,590.5332237000111,shoe,j,2.3503792000119574,0.15899759996682405,590.5349501000019,590.5349687000271,None,,,,,,,,,,,,,,00042,001,2026-01-17_16h29.52.993,MST_task,2024.2.0,60.09095367448805,2026-01-17 16h30.06.274002 +0530,
,Objects\322a.jpg,120,0,121,,,,,,,f,1.3480834999936633,0.15201040002284572,None,,,,,,121,0,120,590.5496808000025,,,,,,,,,,,,,,,,,,,,,,,590.5350416000001,590.5496808000025,591.0351558999973,,,,,,,,,,,,591.0681275000097,,,,,,,,,,,,591.0430559000233,591.0681275000097,591.0681275000097,591.0681275000097,594.0453912999947,shoe,f,1.3480834999936633,0.15201040002284572,594.0454465000075,594.0454722000286,None,,,,,,,,,,,,,,00042,001,2026-01-17_16h29.52.993,MST_task,2024.2.0,60.09095367448805,2026-01-17 16h30.06.274002 +0530,
,Objects\107a.jpg,121,0,122,,,,,,,None,,,j,0.46637149999151006,None,,,,122,0,121,594.0621552999946,,,,,,,,,,,,,,,,,,,,,,,594.0455888999859,594.0621552999946,594.5471612000256,,,,,,,,,,,,,,,,,,,,,,,,594.5552921000053,594.5633827000274,594.5633827000274,594.5633827000274,597.5576061999891,shoe,None,,,597.5576565000229,598.0434218000155,j,597.5744755000342,597.5744755000342,0.46637149999151006,None,,,,,,,,,,00042,001,2026-01-17_16h29.52.993,MST_task,2024.2.0,60.09095367448805,2026-01-17 16h30.06.274002 +0530,
,Objects\194a.jpg,122,0,123,,,,,,,f,1.3588706000009552,0.21572849998483434,None,,,,,,123,0,122,598.0593281000038,,,,,,,,,,,,,,,,,,,,,,,598.0435465000337,598.0593281000038,598.5447390000336,,,,,,,,,,,,,,,,,,,,,,,,598.5518744000001,598.5611268000212,598.5611268000212,598.5611268000212,601.5550296999863,shoe,f,1.3588706000009552,0.21572849998483434,601.5550704000052,601.5550829999847,None,,,,,,,,,,,,,,00042,001,2026-01-17_16h29.52.993,MST_task,2024.2.0,60.09095367448805,2026-01-17 16h30.06.274002 +0530,
,Objects\058a.jpg,123,0,124,,,,,,,f,1.8296850000042468,0.18474569998215884,None,,,,,,124,0,123,601.5718765000347,,,,,,,,,,,,,,,,,,,,,,,601.5551572000259,601.5718765000347,602.0567995000165,,,,,,,,,,,,,,,,,,,,,,,,602.0657727000071,602.0900522000156,602.0900522000156,602.0900522000156,605.0672774999985,shoe,f,1.8296850000042468,0.18474569998215884,605.0673273000284,605.0673410000163,None,,,,,,,,,,,,,,00042,001,2026-01-17_16h29.52.993,MST_task,2024.2.0,60.09095367448805,2026-01-17 16h30.06.274002 +0530,
,Objects\187a.jpg,124,0,125,,,,,,,f,1.4945657000062056,0.19173419999424368,None,,,,,,125,0,124,605.0841783999931,,,,,,,,,,,,,,,,,,,,,,,605.0674169000122,605.0841783999931,605.5690264999866,,,,,,,,,,,,,,,,,,,,,,,,605.5720800000126,605.5857489000191,605.5857489000191,605.5857489000191,608.5796324000112,shoe,f,1.4945657000062056,0.19173419999424368,608.5797002000036,608.5797132999869,None,,,,,,,,,,,,,,00042,001,2026-01-17_16h29.52.993,MST_task,2024.2.0,60.09095367448805,2026-01-17 16h30.06.274002 +0530,
,Objects\106a.jpg,125,0,126,,,,,,,None,,,j,1.1955751000205055,None,,,,126,0,125,608.5965279000229,,,,,,,,,,,,,,,,,,,,,,,608.5798235000111,608.5965279000229,609.0812984000077,,,,,,,,,,,,,,,,,,,,,,,,609.0845194000285,609.0980501000304,609.0980501000304,609.0980501000304,612.0917952000163,shoe,None,,,612.0918331000139,613.3135595000349,j,612.1086121000117,612.1086121000117,1.1955751000205055,None,,,,,,,,,,00042,001,2026-01-17_16h29.52.993,MST_task,2024.2.0,60.09095367448805,2026-01-17 16h30.06.274002 +0530,
,Objects\316a.jpg,126,0,127,,,,,,,None,,,f,0.15840850002132356,None,,,,127,0,126,613.3294485000079,,,,,,,,,,,,,,,,,,,,,,,613.3136820000364,613.3294485000079,613.8146551999962,,,,,,,,,,,,,,,,,,,,,,,,613.8235818000394,613.8480087000062,613.8480087000062,613.8480087000062,616.8250846000155,indoor,None,,,616.8267347000074,617.009717900015,f,616.8418643000186,616.8418643000186,0.15840850002132356,None,,,,,,,,,,00042,001,2026-01-17_16h29.52.993,MST_task,2024.2.0,60.09095367448805,2026-01-17 16h30.06.274002 +0530,
,Objects\306a.jpg,127,0,128,,,,,,,f,2.0402425000211224,0.4169766000122763,None,,,,,,128,0,127,617.0257234000019,,,,,,,,,,,,,,,,,,,,,,,617.0098042000318,617.0257234000019,617.5109788000118,,,,,,,,,,,,,,,,,,,,,,,,617.5189368000138,617.5272961999872,617.5272961999872,617.5272961999872,620.5214224000229,indoor,f,2.0402425000211224,0.4169766000122763,620.5216287000221,620.5216418000055,None,,,,,,,,,,,,,,00042,001,2026-01-17_16h29.52.993,MST_task,2024.2.0,60.09095367448805,2026-01-17 16h30.06.274002 +0530,
,Objects\213a.jpg,128,0,129,,,,,,,f,1.9193654000409879,0.1605262999655679,None,,,,,,129,0,128,620.5380402000155,,,,,,,,,,,,,,,,,,,,,,,620.5217119000154,620.5380402000155,621.0232325000106,,,,,,,,,,,,,,,,,,,,,,,,621.0393425000366,621.0564634000184,621.0564634000184,621.0564634000184,624.0339746000245,indoor,f,1.9193654000409879,0.1605262999655679,624.0340307999868,624.0340430000215,None,,,,,,,,,,,,,,00042,001,2026-01-17_16h29.52.993,MST_task,2024.2.0,60.09095367448805,2026-01-17 16h30.06.274002 +0530,
,Objects\064a.jpg,129,0,130,,,,,,,f,2.758744199993089,0.1695680000120774,None,,,,,,130,0,129,624.0504503000411,,,,,,,,,,,,,,,,,,,,,,,624.0341158999945,624.0504503000411,624.5354457999929,,,,,,,,,,,,,,,,,,,,,,,,624.5435130000114,624.5688879000372,624.5688879000372,624.5688879000372,627.5460260999971,indoor,f,2.758744199993089,0.1695680000120774,627.5460681000259,627.5460804000031,None,,,,,,,,,,,,,,00042,001,2026-01-17_16h29.52.993,MST_task,2024.2.0,60.09095367448805,2026-01-17 16h30.06.274002 +0530,
,Objects\223a.jpg,130,0,131,,,,,,,None,,,j,1.1975079999538139,None,,,,131,0,130,627.5626085000113,,,,,,,,,,,,,,,,,,,,,,,627.5461506000138,627.5626085000113,628.0479381000041,,,,,,,,,,,,,,,,,,,,,,,,628.0504963999847,628.0643429000047,628.0643429000047,628.0643429000047,631.0583248999901,indoor,None,,,631.0583635999938,632.2800788999884,j,631.0749283999903,631.0749283999903,1.1975079999538139,None,,,,,,,,,,00042,001,2026-01-17_16h29.52.993,MST_task,2024.2.0,60.09095367448805,2026-01-17 16h30.06.274002 +0530,
,Objects\067a.jpg,131,0,132,,,,,,,j,1.9143443000502884,0.255564899998717,None,,,,,,132,0,131,632.2961332999985,,,,,,,,,,,,,,,,,,,,,,,632.2801707999897,632.2961332999985,632.7810654999921,,,,,,,,,,,,,,,,,,,,,,,,632.7840894000256,632.7976868000114,632.7976868000114,632.7976868000114,635.7914476000005,indoor,j,1.9143443000502884,0.255564899998717,635.7914982000366,635.7915261000162,None,,,,,,,,,,,,,,00042,001,2026-01-17_16h29.52.993,MST_task,2024.2.0,60.09095367448805,2026-01-17 16h30.06.274002 +0530,
,Objects\193a.jpg,132,0,133,,,,,,,None,,,f,0.7435346000129357,None,,,,133,0,132,635.8084250999964,,,,,,,,,,,,,,,,,,,,,,,635.7918839000049,635.8084250999964,636.2932673000032,,,,,,,,,,,,,,,,,,,,,,,,636.2962156999856,636.3100016000099,636.3100016000099,636.3100016000099,639.3043912000139,indoor,None,,,639.3044389000279,640.0740749000106,f,639.321125300019,639.321125300019,0.7435346000129357,None,,,,,,,,,,00042,001,2026-01-17_16h29.52.993,MST_task,2024.2.0,60.09095367448805,2026-01-17 16h30.06.274002 +0530,
,Objects\266a.jpg,133,0,134,,,,,,,None,,,j,0.6058634000364691,None,,,,134,0,133,640.0905176000088,,,,,,,,,,,,,,,,,,,,,,,640.0741696000332,640.0905176000088,640.5750551000237,,,,,,,,,,,,,,,,,,,,,,,,640.585069600027,640.6089456999907,640.6089456999907,640.6089456999907,643.5854043000145,shoe,None,,,643.5873353999923,644.2217403000104,j,643.6022295000148,643.6022295000148,0.6058634000364691,None,,,,,,,,,,00042,001,2026-01-17_16h29.52.993,MST_task,2024.2.0,60.09095367448805,2026-01-17 16h30.06.274002 +0530,
,Objects\305a.jpg,134,0,135,,,,,,,None,,,j,0.6179211999988183,None,,,,135,0,134,644.2378143999958,,,,,,,,,,,,,,,,,,,,,,,644.2218344000285,644.2378143999958,644.7232470000163,,,,,,,,,,,,,,,,,,,,,,,,644.7315975000383,644.7566629000357,644.7566629000357,644.7566629000357,647.7333905000123,shoe,None,,,647.7334295000182,648.3698063000338,j,647.7499749999843,647.7499749999843,0.6179211999988183,None,,,,,,,,,,00042,001,2026-01-17_16h29.52.993,MST_task,2024.2.0,60.09095367448805,2026-01-17 16h30.06.274002 +0530,
,Objects\348a.jpg,135,0,136,,,,,,,None,,,j,0.47802539996337146,None,,,,136,0,135,648.3856805000105,,,,,,,,,,,,,,,,,,,,,,,648.3698962000199,648.3856805000105,648.8707377000246,,,,,,,,,,,,,,,,,,,,,,,,648.8778406000347,648.8872412000201,648.8872412000201,648.8872412000201,651.8813051999896,shoe,None,,,651.8813451000024,652.383614099992,j,651.8979544999893,651.8979544999893,0.47802539996337146,None,,,,,,,,,,00042,001,2026-01-17_16h29.52.993,MST_task,2024.2.0,60.09095367448805,2026-01-17 16h30.06.274002 +0530,
,Objects\370a.jpg,136,0,137,,,,,,,j,1.7138083999743685,0.22400570003082976,None,,,,,,137,0,136,652.3995892000385,,,,,,,,,,,,,,,,,,,,,,,652.3838876000373,652.3995892000385,652.884797900042,,,,,,,,,,,,,,,,,,,,,,,,652.8936580999871,652.9180476000183,652.9180476000183,652.9180476000183,655.895348799997,shoe,j,1.7138083999743685,0.22400570003082976,655.8953930999851,655.895406900032,None,,,,,,,,,,,,,,00042,001,2026-01-17_16h29.52.993,MST_task,2024.2.0,60.09095367448805,2026-01-17 16h30.06.274002 +0530,
,Objects\198a.jpg,137,0,138,,,,,,,None,,,f,0.4077799000078812,None,,,,138,0,137,655.9120070000063,,,,,,,,,,,,,,,,,,,,,,,655.8954811000149,655.9120070000063,656.3971230000025,,,,,,,,,,,,,,,,,,,,,,,,656.3999680000124,656.4137244999874,656.4137244999874,656.4137244999874,659.4075883000041,shoe,None,,,659.4076372000272,659.8431869000196,f,659.4243000000133,659.4243000000133,0.4077799000078812,None,,,,,,,,,,00042,001,2026-01-17_16h29.52.993,MST_task,2024.2.0,60.09095367448805,2026-01-17 16h30.06.274002 +0530,
,Objects\344a.jpg,138,0,139,,,,,,,None,,,j,2.108085799962282,None,,,,139,0,138,659.8591686,,,,,,,,,,,,,,,,,,,,,,,659.8432767000049,659.8591686,660.3441676000366,,,,,,,,,,,,,,,,,,,,,,,,660.3509474000311,660.3606989000109,660.3606989000109,660.3606989000109,663.3546542000258,shoe,None,,,663.3546947999857,665.4961733000237,j,663.3715514999931,663.3715514999931,2.108085799962282,None,,,,,,,,,,00042,001,2026-01-17_16h29.52.993,MST_task,2024.2.0,60.09095367448805,2026-01-17 16h30.06.274002 +0530,
,Objects\150a.jpg,139,0,140,,,,,,,j,2.464864400040824,0.1929719999898225,None,,,,,,140,0,139,665.51238010003,,,,,,,,,,,,,,,,,,,,,,,665.4962648000219,665.51238010003,665.9975590000395,,,,,,,,,,,,,,,,,,,,,,,,666.0064627000247,666.0310572999879,666.0310572999879,666.0310572999879,669.0081986000296,shoe,j,2.464864400040824,0.1929719999898225,669.0083920999896,669.0084055000334,None,,,,,,,,,,,,,,00042,001,2026-01-17_16h29.52.993,MST_task,2024.2.0,60.09095367448805,2026-01-17 16h30.06.274002 +0530,
,Objects\372a.jpg,140,0,141,,,,,,,None,,,j,0.7919725999818183,None,,,,141,0,140,669.0247740999912,,,,,,,,,,,,,,,,,,,,,,,669.008476899995,669.0247740999912,669.5101291000028,,,,,,,,,,,,,,,,,,,,,,,,669.519370199996,669.5434342999943,669.5434342999943,669.5434342999943,672.5205524000339,indoor,None,,,672.5217600000324,673.3405311999959,j,672.5373703000369,672.5373703000369,0.7919725999818183,None,,,,,,,,,,00042,001,2026-01-17_16h29.52.993,MST_task,2024.2.0,60.09095367448805,2026-01-17 16h30.06.274002 +0530,
,Objects\265a.jpg,141,0,142,,,,,,,j,1.2049260000349022,0.22366099996725097,None,,,,,,142,0,141,673.3565962000284,,,,,,,,,,,,,,,,,,,,,,,673.3406239000033,673.3565962000284,673.8418176000123,,,,,,,,,,,,,,,,,,,,,,,,673.8498454000219,673.8750830999925,673.8750830999925,673.8750830999925,676.8522266999935,indoor,j,1.2049260000349022,0.22366099996725097,676.8523063000175,676.8523221000214,None,,,,,,,,,,,,,,00042,001,2026-01-17_16h29.52.993,MST_task,2024.2.0,60.09095367448805,2026-01-17 16h30.06.274002 +0530,
,Objects\164a.jpg,142,0,143,,,,,,,f,2.100421399984043,0.1763119000243023,None,,,,,,143,0,142,676.8690080000088,,,,,,,,,,,,,,,,,,,,,,,676.8523941999883,676.8690080000088,677.353970600001,,,,,,,,,,,,,,,,,,,,,,,,677.3627624000073,677.3875302000088,677.3875302000088,677.3875302000088,680.3647204000154,indoor,f,2.100421399984043,0.1763119000243023,680.3649093999993,680.3649226000416,None,,,,,,,,,,,,,,00042,001,2026-01-17_16h29.52.993,MST_task,2024.2.0,60.09095367448805,2026-01-17 16h30.06.274002 +0530,
,Objects\118a.jpg,143,0,144,,,,,,,f,1.1014160999911837,0.19217259995639324,None,,,,,,144,0,143,680.3811919,,,,,,,,,,,,,,,,,,,,,,,680.3649942000047,680.3811919,680.8665329000214,,,,,,,,,,,,,,,,,,,,,,,,680.8698301000404,680.882947999984,680.882947999984,680.882947999984,683.8769448000239,indoor,f,1.1014160999911837,0.19217259995639324,683.8769904000219,683.8770024999976,None,,,,,,,,,,,,,,00042,001,2026-01-17_16h29.52.993,MST_task,2024.2.0,60.09095367448805,2026-01-17 16h30.06.274002 +0530,
,Objects\172a.jpg,144,0,145,,,,,,,j,1.693600400001742,0.3198452000506222,None,,,,,,145,0,144,683.8934959000326,,,,,,,,,,,,,,,,,,,,,,,683.8770733000129,683.8934959000326,684.3790165000246,,,,,,,,,,,,,,,,,,,,,,,,684.3816424999968,684.395242700004,684.395242700004,684.395242700004,687.387386700022,indoor,j,1.693600400001742,0.3198452000506222,687.3874422000372,687.3874543000129,None,,,,,,,,,,,,,,00042,001,2026-01-17_16h29.52.993,MST_task,2024.2.0,60.09095367448805,2026-01-17 16h30.06.274002 +0530,
,Objects\143a.jpg,145,0,146,,,,,,,None,,,j,1.5786652999813668,None,,,,146,0,145,687.4040263000061,,,,,,,,,,,,,,,,,,,,,,,687.3875306000118,687.4040263000061,687.8899662999902,,,,,,,,,,,,,,,,,,,,,,,,687.899632900022,687.9068040000275,687.9068040000275,687.9068040000275,690.9011040999903,indoor,None,,,690.901143199997,692.5075224000029,j,690.9180544000119,690.9180544000119,1.5786652999813668,None,,,,,,,,,,00042,001,2026-01-17_16h29.52.993,MST_task,2024.2.0,60.09095367448805,2026-01-17 16h30.06.274002 +0530,
,Objects\215a.jpg,146,0,147,,,,,,,j,2.2150920999702066,0.2562767000054009,None,,,,,,147,0,146,692.5234246000182,,,,,,,,,,,,,,,,,,,,,,,692.5076128999935,692.5234246000182,693.0088129999931,,,,,,,,,,,,,,,,,,,,,,,,693.0117105999961,693.0252470000414,693.0252470000414,693.0252470000414,696.0198751999997,indoor,j,2.2150920999702066,0.2562767000054009,696.0199316000217,696.0199455000111,None,,,,,,,,,,,,,,00042,001,2026-01-17_16h29.52.993,MST_task,2024.2.0,60.09095367448805,2026-01-17 16h30.06.274002 +0530,
,Objects\272a.jpg,147,0,148,,,,,,,f,2.5573248000000603,0.16044599999440834,None,,,,,,148,0,147,696.036346500041,,,,,,,,,,,,,,,,,,,,,,,696.0200255000382,696.036346500041,696.5208863000153,,,,,,,,,,,,,,,,,,,,,,,,696.5405345000327,696.5542908000061,696.5542908000061,696.5542908000061,699.5314281000174,shoe,f,2.5573248000000603,0.16044599999440834,699.532872300013,699.5328909000382,None,,,,,,,,,,,,,,00042,001,2026-01-17_16h29.52.993,MST_task,2024.2.0,60.09095367448805,2026-01-17 16h30.06.274002 +0530,
,Objects\083a.jpg,148,0,149,,,,,,,None,,,f,1.9793762000044808,None,,,,149,0,148,699.5480207999935,,,,,,,,,,,,,,,,,,,,,,,699.5330137999845,699.5480207999935,700.0332374999998,,,,,,,,,,,,,,,,,,,,,,,,700.0416653000284,700.0664652000414,700.0664652000414,700.0664652000414,703.0436057000188,shoe,None,,,703.0436423000065,705.0513975000358,f,703.0604176000343,703.0604176000343,1.9793762000044808,None,,,,,,,,,,00042,001,2026-01-17_16h29.52.993,MST_task,2024.2.0,60.09095367448805,2026-01-17 16h30.06.274002 +0530,
,Objects\362a.jpg,149,0,150,,,,,,,None,,,f,7.068268899980467,None,,,,150,0,149,705.0673397000064,,,,,,,,,,,,,,,,,,,,,,,705.0514950000215,705.0673397000064,705.5525752000394,,,,,,,,,,,,,,,,,,,,,,,,705.5593681000173,705.56857090001,705.56857090001,705.56857090001,708.5630383000243,shoe,None,,,708.5632512000157,715.6554291000357,f,708.579641600023,708.579641600023,7.068268899980467,None,,,,,,,,,,00042,001,2026-01-17_16h29.52.993,MST_task,2024.2.0,60.09095367448805,2026-01-17 16h30.06.274002 +0530,
,Objects\084a.jpg,150,0,151,,,,,,,None,,,j,0.5358478000271134,None,,,,151,0,150,715.6715608999948,,,,,,,,,,,,,,,,,,,,,,,715.655525500013,715.6715608999948,716.1567085999995,,,,,,,,,,,,,,,,,,,,,,,,716.1656837000046,716.1901802000357,716.1901802000357,716.1901802000357,719.1672929000342,shoe,None,,,719.1674848000403,719.7362374000368,j,719.1838647000259,719.1838647000259,0.5358478000271134,None,,,,,,,,,,00042,001,2026-01-17_16h29.52.993,MST_task,2024.2.0,60.09095367448805,2026-01-17 16h30.06.274002 +0530,
,Objects\066a.jpg,151,0,152,,,,,,,j,1.2977015000069514,0.18452549999346957,None,,,,,,152,0,151,719.7523998999968,,,,,,,,,,,,,,,,,,,,,,,719.7363627000013,719.7523998999968,720.2376333000138,,,,,,,,,,,,,,,,,,,,,,,,720.2416278999881,720.254263699986,720.254263699986,720.254263699986,723.2480266999919,shoe,j,1.2977015000069514,0.18452549999346957,723.2480686000199,723.2480815000017,None,,,,,,,,,,,,,,00042,001,2026-01-17_16h29.52.993,MST_task,2024.2.0,60.09095367448805,2026-01-17 16h30.06.274002 +0530,
,Objects\222a.jpg,152,0,153,,,,,,,j,2.2327006999985315,0.22430739999981597,None,,,,,,153,0,152,723.2648169000167,,,,,,,,,,,,,,,,,,,,,,,723.2481540000299,723.2648169000167,723.7497954000137,,,,,,,,,,,,,,,,,,,,,,,,723.7583930999972,723.7832985999994,723.7832985999994,723.7832985999994,726.7607563000056,shoe,j,2.2327006999985315,0.22430739999981597,726.7607988000382,726.7608109000139,None,,,,,,,,,,,,,,00042,001,2026-01-17_16h29.52.993,MST_task,2024.2.0,60.09095367448805,2026-01-17 16h30.06.274002 +0530,
,Objects\019a.jpg,153,0,154,,,,,,,j,1.864723899983801,0.2245579000446014,None,,,,,,154,0,153,726.777002900024,,,,,,,,,,,,,,,,,,,,,,,726.760884599993,726.777002900024,727.2621770999976,,,,,,,,,,,,,,,,,,,,,,,,727.2707583000301,727.2954951000283,727.2954951000283,727.2954951000283,730.2726461000275,shoe,j,1.864723899983801,0.2245579000446014,730.2726988000213,730.2727113000001,None,,,,,,,,,,,,,,00042,001,2026-01-17_16h29.52.993,MST_task,2024.2.0,60.09095367448805,2026-01-17 16h30.06.274002 +0530,
,Objects\350a.jpg,154,0,155,,,,,,,j,2.6010105999885127,0.2711396000231616,None,,,,,,155,0,154,730.2889761000406,,,,,,,,,,,,,,,,,,,,,,,730.2727833000245,730.2889761000406,730.7740713999956,,,,,,,,,,,,,,,,,,,,,,,,730.7838338000001,730.8074205000303,730.8074205000303,730.8074205000303,733.7846024000319,indoor,j,2.6010105999885127,0.2711396000231616,733.7862013000413,733.7862219000235,None,,,,,,,,,,,,,,00042,001,2026-01-17_16h29.52.993,MST_task,2024.2.0,60.09095367448805,2026-01-17 16h30.06.274002 +0530,
,Objects\244a.jpg,155,0,156,,,,,,,None,,,j,1.1823146999813616,None,,,,156,0,155,733.8014494000236,,,,,,,,,,,,,,,,,,,,,,,733.7862995000323,733.8014494000236,734.2863679000293,,,,,,,,,,,,,,,,,,,,,,,,734.2923505000072,734.3031131000025,734.3031131000025,734.3031131000025,737.296862600022,indoor,None,,,737.2969010000234,738.5020397999906,j,737.3136899000383,737.3136899000383,1.1823146999813616,None,,,,,,,,,,00042,001,2026-01-17_16h29.52.993,MST_task,2024.2.0,60.09095367448805,2026-01-17 16h30.06.274002 +0530,
,Objects\123a.jpg,156,0,157,,,,,,,j,1.1724366000271402,0.2234306000173092,None,,,,,,157,0,156,738.5179373000283,,,,,,,,,,,,,,,,,,,,,,,738.5021363000269,738.5179373000283,739.0028832000098,,,,,,,,,,,,,,,,,,,,,,,,739.0101341000409,739.0196672999882,739.0196672999882,739.0196672999882,742.0133959000232,indoor,j,1.1724366000271402,0.2234306000173092,742.0134404000128,742.0134530999931,None,,,,,,,,,,,,,,00042,001,2026-01-17_16h29.52.993,MST_task,2024.2.0,60.09095367448805,2026-01-17 16h30.06.274002 +0530,
,Objects\258a.jpg,157,0,158,,,,,,,f,2.1568096000119112,0.12760969996452332,None,,,,,,158,0,157,742.030348100001,,,,,,,,,,,,,,,,,,,,,,,742.0135266000289,742.030348100001,742.5154404999921,,,,,,,,,,,,,,,,,,,,,,,,742.5219972000341,742.531495800009,742.531495800009,742.531495800009,745.5257194000296,indoor,f,2.1568096000119112,0.12760969996452332,745.5257747999858,745.5257870000205,None,,,,,,,,,,,,,,00042,001,2026-01-17_16h29.52.993,MST_task,2024.2.0,60.09095367448805,2026-01-17 16h30.06.274002 +0530,
,Objects\030a.jpg,158,0,159,,,,,,,f,2.1407541999942623,0.1919746000203304,None,,,,,,159,0,158,745.5425173999975,,,,,,,,,,,,,,,,,,,,,,,745.5260050999932,745.5425173999975,746.0274972000043,,,,,,,,,,,,,,,,,,,,,,,,746.0348483999842,746.0436317000422,746.0436317000422,746.0436317000422,749.0380217999918,indoor,f,2.1407541999942623,0.1919746000203304,749.0380762999994,749.0380887000356,None,,,,,,,,,,,,,,00042,001,2026-01-17_16h29.52.993,MST_task,2024.2.0,60.09095367448805,2026-01-17 16h30.06.274002 +0530,
,Objects\147a.jpg,159,0,160,,,,,,,f,1.1156255999812856,0.19953680003527552,None,,,,,,160,0,159,749.0548239999916,,,,,,,,,,,,,,,,,,,,,,,749.038425100036,749.0548239999916,749.539793700038,,,,,,,,,,,,,,,,,,,,,,,,749.5431448000018,749.5565337000298,749.5565337000298,749.5565337000298,752.550451099989,indoor,f,1.1156255999812856,0.19953680003527552,752.550499200006,752.5505119999871,None,,,,,,,,,,,,,,00042,001,2026-01-17_16h29.52.993,MST_task,2024.2.0,60.09095367448805,2026-01-17 16h30.06.274002 +0530,
,Objects\315a.jpg,160,0,161,,,,,,,f,2.299437800014857,0.21583699999609962,None,,,,,,161,0,160,752.5671268000151,,,,,,,,,,,,,,,,,,,,,,,752.550879699993,752.5671268000151,753.0520761000225,,,,,,,,,,,,,,,,,,,,,,,,753.0601013000123,753.0689001000137,753.0689001000137,753.0689001000137,756.0626022000215,indoor,f,2.299437800014857,0.21583699999609962,756.0626565000275,756.0626688000048,None,,,,,,,,,,,,,,00042,001,2026-01-17_16h29.52.993,MST_task,2024.2.0,60.09095367448805,2026-01-17 16h30.06.274002 +0530,
,Objects\287a.jpg,161,0,162,,,,,,,None,,,f,1.2327142999856733,None,,,,162,0,161,756.0794082999928,,,,,,,,,,,,,,,,,,,,,,,756.0629032999859,756.0794082999928,756.5644030999974,,,,,,,,,,,,,,,,,,,,,,,,756.5730302000302,756.5981235000072,756.5981235000072,756.5981235000072,759.5750043999869,shoe,None,,,759.5769778999966,760.830053600017,f,759.5915820000228,759.5915820000228,1.2327142999856733,None,,,,,,,,,,00042,001,2026-01-17_16h29.52.993,MST_task,2024.2.0,60.09095367448805,2026-01-17 16h30.06.274002 +0530,
,Objects\249a.jpg,162,0,163,,,,,,,f,1.4671813999884762,0.20853689999785274,None,,,,,,163,0,162,760.8460985000129,,,,,,,,,,,,,,,,,,,,,,,760.8301484000403,760.8460985000129,761.3310619000113,,,,,,,,,,,,,,,,,,,,,,,,761.3470353999874,761.3645404000417,761.3645404000417,761.3645404000417,764.3415629999945,shoe,f,1.4671813999884762,0.20853689999785274,764.3416063000332,764.3416186000104,None,,,,,,,,,,,,,,00042,001,2026-01-17_16h29.52.993,MST_task,2024.2.0,60.09095367448805,2026-01-17 16h30.06.274002 +0530,
,Objects\101a.jpg,163,0,164,,,,,,,f,2.0126470000250265,0.16776260000187904,None,,,,,,164,0,163,764.3585366000189,,,,,,,,,,,,,,,,,,,,,,,764.3417276000255,764.3585366000189,764.8441416000132,,,,,,,,,,,,,,,,,,,,,,,,764.8515826000366,764.8595589000033,764.8595589000033,764.8595589000033,767.8539166999981,shoe,f,2.0126470000250265,0.16776260000187904,767.8539579000208,767.8539708000026,None,,,,,,,,,,,,,,00042,001,2026-01-17_16h29.52.993,MST_task,2024.2.0,60.09095367448805,2026-01-17 16h30.06.274002 +0530,
,Objects\152a.jpg,164,0,165,,,,,,,f,1.7080002999864519,0.1678171000094153,None,,,,,,165,0,164,767.8706902000122,,,,,,,,,,,,,,,,,,,,,,,767.8543026000261,767.8706902000122,768.3556707000243,,,,,,,,,,,,,,,,,,,,,,,,768.3588636000059,768.3724073999911,768.3724073999911,768.3724073999911,771.366362300003,shoe,f,1.7080002999864519,0.1678171000094153,771.3664417000255,771.3664560000179,None,,,,,,,,,,,,,,00042,001,2026-01-17_16h29.52.993,MST_task,2024.2.0,60.09095367448805,2026-01-17 16h30.06.274002 +0530,
,Objects\046a.jpg,165,0,166,,,,,,,None,,,f,1.4488602000055835,None,,,,166,0,165,771.383123000036,,,,,,,,,,,,,,,,,,,,,,,771.3665867000236,771.383123000036,771.8679443000001,,,,,,,,,,,,,,,,,,,,,,,,771.8713382999995,771.8849063999951,771.8849063999951,771.8849063999951,774.8784631000017,shoe,None,,,774.8785049000289,776.351129800023,f,774.89528170001,774.89528170001,1.4488602000055835,None,,,,,,,,,,00042,001,2026-01-17_16h29.52.993,MST_task,2024.2.0,60.09095367448805,2026-01-17 16h30.06.274002 +0530,
,Objects\130a.jpg,166,0,167,,,,,,,j,1.538882700027898,0.19993479998083785,None,,,,,,167,0,166,776.3671199000091,,,,,,,,,,,,,,,,,,,,,,,776.3512229000335,776.3671199000091,776.8523073000251,,,,,,,,,,,,,,,,,,,,,,,,776.8553841999965,776.8690841000061,776.8690841000061,776.8690841000061,779.8627498000278,shoe,j,1.538882700027898,0.19993479998083785,779.8627943000174,779.8628076000023,None,,,,,,,,,,,,,,00042,001,2026-01-17_16h29.52.993,MST_task,2024.2.0,60.09095367448805,2026-01-17 16h30.06.274002 +0530,
,Objects\057a.jpg,167,0,168,,,,,,,f,1.3948285999940708,0.1758047000039369,None,,,,,,168,0,167,779.8795858999947,,,,,,,,,,,,,,,,,,,,,,,779.8628793000244,779.8795858999947,780.364542299998,,,,,,,,,,,,,,,,,,,,,,,,780.3672259000014,780.381294300023,780.381294300023,780.381294300023,783.3750217999914,shoe,f,1.3948285999940708,0.1758047000039369,783.3750882000313,783.3751034000306,None,,,,,,,,,,,,,,00042,001,2026-01-17_16h29.52.993,MST_task,2024.2.0,60.09095367448805,2026-01-17 16h30.06.274002 +0530,
,Objects\091a.jpg,168,0,169,,,,,,,j,1.347915600053966,0.18278059997828677,None,,,,,,169,0,168,783.3917071000324,,,,,,,,,,,,,,,,,,,,,,,783.3751841000048,783.3917071000324,783.876866400009,,,,,,,,,,,,,,,,,,,,,,,,783.881144199986,783.8933131000376,783.8933131000376,783.8933131000376,786.8877276999992,indoor,j,1.347915600053966,0.18278059997828677,786.8892519000219,786.8892705999897,None,,,,,,,,,,,,,,00042,001,2026-01-17_16h29.52.993,MST_task,2024.2.0,60.09095367448805,2026-01-17 16h30.06.274002 +0530,
,Objects\251a.jpg,169,0,170,,,,,,,f,2.362062700034585,0.18475369998486713,None,,,,,,170,0,169,786.9039207000169,,,,,,,,,,,,,,,,,,,,,,,786.889342200011,786.9039207000169,787.3893124000169,,,,,,,,,,,,787.4056070999941,,,,,,,,,,,,787.3951674000127,787.4056070999941,787.4056070999941,787.4056070999941,790.3999039999908,indoor,f,2.362062700034585,0.18475369998486713,790.3999482000363,790.3999618000234,None,,,,,,,,,,,,,,00042,001,2026-01-17_16h29.52.993,MST_task,2024.2.0,60.09095367448805,2026-01-17 16h30.06.274002 +0530,
,Objects\309a.jpg,170,0,171,,,,,,,f,2.3705548999714665,0.19929159997263923,None,,,,,,171,0,170,790.4163416000083,,,,,,,,,,,,,,,,,,,,,,,790.4000314000295,790.4163416000083,790.901572200004,,,,,,,,,,,,,,,,,,,,,,,,790.9083773000166,790.9180664999876,790.9180664999876,790.9180664999876,793.9121763000148,indoor,f,2.3705548999714665,0.19929159997263923,793.9122311000247,793.9122436000034,None,,,,,,,,,,,,,,00042,001,2026-01-17_16h29.52.993,MST_task,2024.2.0,60.09095367448805,2026-01-17 16h30.06.274002 +0530,
,Objects\131a.jpg,171,0,172,,,,,,,j,2.39402509998763,0.2634430999751203,None,,,,,,172,0,171,793.9284749000217,,,,,,,,,,,,,,,,,,,,,,,793.912315100024,793.9284749000217,794.4136950999964,,,,,,,,,,,,,,,,,,,,,,,,794.4225847999915,794.4469241999905,794.4469241999905,794.4469241999905,797.4244486000389,indoor,j,2.39402509998763,0.2634430999751203,797.4245034999913,797.4245286000078,None,,,,,,,,,,,,,,00042,001,2026-01-17_16h29.52.993,MST_task,2024.2.0,60.09095367448805,2026-01-17 16h30.06.274002 +0530,
,Objects\125a.jpg,172,0,173,,,,,,,None,,,j,0.9186119000078179,None,,,,173,0,172,797.4410444000387,,,,,,,,,,,,,,,,,,,,,,,797.4247539000353,797.4410444000387,797.9258555999841,,,,,,,,,,,,,,,,,,,,,,,,797.9286807000171,797.9426203999901,797.9426203999901,797.9426203999901,800.9364829999977,indoor,None,,,800.9365206999937,801.8736536999932,j,800.9533241000026,800.9533241000026,0.9186119000078179,None,,,,,,,,,,00042,001,2026-01-17_16h29.52.993,MST_task,2024.2.0,60.09095367448805,2026-01-17 16h30.06.274002 +0530,
,Objects\176a.jpg,173,0,174,,,,,,,None,,,j,0.8302542000310495,None,,,,174,0,173,801.8896960000275,,,,,,,,,,,,,,,,,,,,,,,801.8737515000394,801.8896960000275,802.3751293999958,,,,,,,,,,,,,,,,,,,,,,,,802.3782721000025,802.3913990000146,802.3913990000146,802.3913990000146,805.385528600018,indoor,None,,,805.3857330000028,806.2389065999887,j,805.4019079999998,805.4019079999998,0.8302542000310495,None,,,,,,,,,,00042,001,2026-01-17_16h29.52.993,MST_task,2024.2.0,60.09095367448805,2026-01-17 16h30.06.274002 +0530,
,Objects\337a.jpg,174,0,175,,,,,,,f,2.9078990000416525,None,None,,,,,,175,0,174,806.255092700012,,,,,,,,,,,,,,,,,,,,,,,806.239001000009,806.255092700012,806.7401004999992,,,,,,,,,,,,,,,,,,,,,,,,806.7475851000054,806.7561141999904,806.7561141999904,806.7561141999904,809.7505577999982,indoor,f,2.9078990000416525,None,809.7505994000239,809.7506119000027,None,,,,,,,,,,,,,,00042,001,2026-01-17_16h29.52.993,MST_task,2024.2.0,60.09095367448805,2026-01-17 16h30.06.274002 +0530,
,Objects\002a.jpg,175,0,176,,,,,,,None,,,f,0.9529339000000618,None,,,,176,0,175,809.7673987000016,,,,,,,,,,,,,,,,,,,,,,,809.750681000005,809.7673987000016,810.2523601999856,,,,,,,,,,,,,,,,,,,,,,,,810.2622218999895,810.2859778000275,810.2859778000275,810.2859778000275,813.26298639999,shoe,None,,,813.264856200025,814.233765300014,f,813.2795723000308,813.2795723000308,0.9529339000000618,None,,,,,,,,,,00042,001,2026-01-17_16h29.52.993,MST_task,2024.2.0,60.09095367448805,2026-01-17 16h30.06.274002 +0530,
,Objects\217a.jpg,176,0,177,,,,,,,f,1.504481100011617,0.16769859998021275,None,,,,,,177,0,176,814.249646100041,,,,,,,,,,,,,,,,,,,,,,,814.2338989999844,814.249646100041,814.7348354000133,,,,,,,,,,,,,,,,,,,,,,,,814.7435456000385,814.7680727000115,814.7680727000115,814.7680727000115,817.745226500032,shoe,f,1.504481100011617,0.16769859998021275,817.7452671999927,817.7452802000334,None,,,,,,,,,,,,,,00042,001,2026-01-17_16h29.52.993,MST_task,2024.2.0,60.09095367448805,2026-01-17 16h30.06.274002 +0530,
,Objects\368a.jpg,177,0,178,,,,,,,None,,,f,0.6927565000369214,None,,,,178,0,177,817.7620563000091,,,,,,,,,,,,,,,,,,,,,,,817.7453505999874,817.7620563000091,818.2470345000038,,,,,,,,,,,,,,,,,,,,,,,,818.2535537999938,818.263556800026,818.263556800026,818.263556800026,821.2580323999864,shoe,None,,,821.2580751000205,821.9773410999915,f,821.274891500012,821.274891500012,0.6927565000369214,None,,,,,,,,,,00042,001,2026-01-17_16h29.52.993,MST_task,2024.2.0,60.09095367448805,2026-01-17 16h30.06.274002 +0530,
,Objects\121a.jpg,178,0,179,,,,,,,f,2.6566542999935336,0.18400289997225627,None,,,,,,179,0,178,821.9934160000412,,,,,,,,,,,,,,,,,,,,,,,821.9774322999874,821.9934160000412,822.478632399987,,,,,,,,,,,,,,,,,,,,,,,,822.4871351000038,822.5118527000304,822.5118527000304,822.5118527000304,825.489149400033,shoe,f,2.6566542999935336,0.18400289997225627,825.4892003000132,825.4892139000003,None,,,,,,,,,,,,,,00042,001,2026-01-17_16h29.52.993,MST_task,2024.2.0,60.09095367448805,2026-01-17 16h30.06.274002 +0530,
,Objects\175a.jpg,179,0,180,,,,,,,f,2.832362099958118,None,None,,,,,,180,0,179,825.505852500035,,,,,,,,,,,,,,,,,,,,,,,825.4893092000275,825.505852500035,825.9914821999846,,,,,,,,,,,,,,,,,,,,,,,,825.9946239000419,826.0076949000359,826.0076949000359,826.0076949000359,829.0014564000303,shoe,f,2.832362099958118,None,829.0014980999986,829.001510400034,None,,,,,,,,,,,,,,00042,001,2026-01-17_16h29.52.993,MST_task,2024.2.0,60.09095367448805,2026-01-17 16h30.06.274002 +0530,
,Objects\001a.jpg,180,0,181,,,,,,,f,1.6240636000293307,0.19195209996541962,None,,,,,,181,0,180,829.0182898000348,,,,,,,,,,,,,,,,,,,,,,,829.0015775000211,829.0182898000348,829.5032699999865,,,,,,,,,,,,,,,,,,,,,,,,829.505992099992,829.5200068000122,829.5200068000122,829.5200068000122,832.5136215999955,shoe,f,1.6240636000293307,0.19195209996541962,832.5136644000304,832.5136763000046,None,,,,,,,,,,,,,,00042,001,2026-01-17_16h29.52.993,MST_task,2024.2.0,60.09095367448805,2026-01-17 16h30.06.274002 +0530,
