Sl_no,image_path,thisN,thisTrialN,thisRepN,key_resp_5.keys,key_resp_7.keys,key_resp_7.rt,key_resp_7.duration,key_resp_5.rt,key_resp_5.duration,key_resp_9.keys,key_resp_8.keys,key_resp_8.rt,key_resp_8.duration,key_resp_9.rt,key_resp_9.duration,practice.thisRepN,practice.thisTrialN,practice.thisN,trials.thisRepN,trials.thisTrialN,trials.thisN,thisRow.t,notes,welcome_page.started,text.started,key_resp.started,welcome_page.stopped,key_resp.keys,key_resp.rt,key_resp.duration,instructions.started,ins.started,key_resp_2.started,instructions.stopped,key_resp_2.keys,key_resp_2.rt,key_resp_2.duration,objects_only_instruction.started,text_3.started,key_resp_3.started,objects_only_instruction.stopped,key_resp_3.keys,key_resp_3.rt,key_resp_3.duration,ISI.started,text_4.started,text_4.stopped,ISI.stopped,practice_block.started,image.started,key_resp_5.started,text_5.started,practice_block.stopped,practice.key_resp_5.keys,indoor_outdoor.started,text_7.started,key_resp_7.started,indoor_outdoor.stopped,practice.key_resp_7.keys,practice.key_resp_7.rt,practice.key_resp_7.duration,image.stopped,key_resp_5.stopped,text_5.stopped,practice.key_resp_5.rt,practice.key_resp_5.duration,practice_to_main.started,text_2.started,key_resp_4.started,practice_to_main.stopped,key_resp_4.keys,key_resp_4.rt,key_resp_4.duration,objects.started,image_2.started,text_9.started,key_resp_9.started,objects.stopped,category,trials.key_resp_9.keys,encoding_task.started,text_8.started,key_resp_8.started,encoding_task.stopped,trials.key_resp_8.keys,trials.key_resp_8.rt,trials.key_resp_8.duration,image_2.stopped,text_9.stopped,key_resp_9.stopped,trials.key_resp_9.rt,trials.key_resp_9.duration,end_experiment.started,text_6.started,key_resp_6.started,end_experiment.stopped,key_resp_6.keys,key_resp_6.rt,key_resp_6.duration,list_of_stimuli,encoding_task_accuracy,participant,session,date,expName,psychopyVersion,frameRate,expStart,
,,,,,,,,,,,,,,,,,,,,,,,,,0.0014667000068584457,0.0032408999977633357,0.0032408999977633357,594.9111310000008,space,594.8957124000008,None,,,,,,,,,,,,,,,,,,,,,,,,,,,,,,,,,,,,,,,,,,,,,,,,,,,,,,,,,,,,,,,,,,,,,,,,00044,001,2026-01-17_17h50.12.146,MST_task,2024.2.0,59.93385699587797,2026-01-17 17h50.54.713540 +0530,
,,,,,,,,,,,,,,,,,,,,,,,,,,,,,,,,594.9111881999997,594.9267279000051,594.9267279000051,595.1569853999972,space,0.22024199999577831,None,,,,,,,,,,,,,,,,,,,,,,,,,,,,,,,,,,,,,,,,,,,,,,,,,,,,,,,,,,,,,,,,,00044,001,2026-01-17_17h50.12.146,MST_task,2024.2.0,59.93385699587797,2026-01-17 17h50.54.713540 +0530,
,,,,,,,,,,,,,,,,,,,,,,,,,,,,,,,,,,,,,,,595.1570422000077,595.1742329999979,595.1742329999979,662.857785500004,space,67.66832810000051,None,,,,,,,,,,,,,,,,,,,,,,,,,,,,,,,,,,,,,,,,,,,,,,,,,,,,,,,,,,00044,001,2026-01-17_17h50.12.146,MST_task,2024.2.0,59.93385699587797,2026-01-17 17h50.54.713540 +0530,
9,practice_images/180a.jpg,0,0,1,None,f,0.3658348000026308,None,,,,,,,,,1,0,0,,,,662.8723330000066,,,,,,,,,,,,,,,,,,,,,,,662.8651412000036,662.8723330000066,663.4003195999976,663.356703700003,663.3684830999991,663.4003195999976,663.4003195999976,663.4003195999976,666.372515199997,None,666.375996200004,666.3890977999981,666.3890977999981,666.757890199995,f,0.3658348000026308,None,,,,,,,,,,,,,,,,,,,,,,,,,,,,,,,,,,,,,,,,,00044,001,2026-01-17_17h50.12.146,MST_task,2024.2.0,59.93385699587797,2026-01-17 17h50.54.713540 +0530,
8,practice_images/178a.jpg,1,1,1,j,None,,,2.242408799997065,0.11965419999614824,,,,,,,1,1,1,,,,666.7722994000069,,,,,,,,,,,,,,,,,,,,,,,666.7581582999992,666.7722994000069,667.2727718999959,667.2568887999951,667.2607279999938,667.2727718999959,667.2727718999959,667.2727718999959,670.2568377999996,j,670.2569409999996,,,670.2569853000023,None,,,670.2722875000036,670.2722875000036,670.2722875000036,2.242408799997065,0.11965419999614824,,,,,,,,,,,,,,,,,,,,,,,,,,,,,,,,,,,,00044,001,2026-01-17_17h50.12.146,MST_task,2024.2.0,59.93385699587797,2026-01-17 17h50.54.713540 +0530,
3,practice_images/037a.jpg,2,2,1,f,None,,,1.749783799998113,0.2641915999993216,,,,,,,1,2,2,,,,670.2722875000036,,,,,,,,,,,,,,,,,,,,,,,670.2571800000005,670.2722875000036,670.7726145000051,670.7572134000075,670.7617667000013,670.7726145000051,670.7726145000051,670.7726145000051,673.7568865000067,f,673.7570708999992,,,673.7571585999976,None,,,673.7722614999948,673.7722614999948,673.7722614999948,1.749783799998113,0.2641915999993216,,,,,,,,,,,,,,,,,,,,,,,,,,,,,,,,,,,,00044,001,2026-01-17_17h50.12.146,MST_task,2024.2.0,59.93385699587797,2026-01-17 17h50.54.713540 +0530,
5,practice_images/139a.jpg,3,3,1,j,None,,,2.466684400002123,0.20016379999287892,,,,,,,1,3,3,,,,673.7722614999948,,,,,,,,,,,,,,,,,,,,,,,673.7573483000015,673.7722614999948,674.2725613999937,674.2566933000053,674.2613361999975,674.2725613999937,674.2725613999937,674.2725613999937,677.2569256999996,j,677.2570191999985,,,677.2570566000068,None,,,677.2722968000016,677.2722968000016,677.2722968000016,2.466684400002123,0.20016379999287892,,,,,,,,,,,,,,,,,,,,,,,,,,,,,,,,,,,,00044,001,2026-01-17_17h50.12.146,MST_task,2024.2.0,59.93385699587797,2026-01-17 17h50.54.713540 +0530,
1,practice_images/013a.jpg,4,4,1,j,None,,,2.0384937999915564,0.22290690000227187,,,,,,,1,4,4,,,,677.2722968000016,,,,,,,,,,,,,,,,,,,,,,,677.2572244000039,677.2722968000016,677.7726607999939,677.7567470000067,677.7620942000067,677.7726607999939,677.7726607999939,677.7726607999939,680.7574588999996,j,680.7575821000064,,,680.757628899999,None,,,680.7724198000069,680.7724198000069,680.7724198000069,2.0384937999915564,0.22290690000227187,,,,,,,,,,,,,,,,,,,,,,,,,,,,,,,,,,,,00044,001,2026-01-17_17h50.12.146,MST_task,2024.2.0,59.93385699587797,2026-01-17 17h50.54.713540 +0530,
7,practice_images/166a.jpg,5,5,1,j,None,,,2.9067868999991333,None,,,,,,,1,5,5,,,,680.7724198000069,,,,,,,,,,,,,,,,,,,,,,,680.7578365999943,680.7724198000069,681.2722460999939,681.2574164999969,681.2677119,681.2722460999939,681.2722460999939,681.2722460999939,684.2577667000005,j,684.2626623999968,,,684.2626975000021,None,,,684.2722706000059,684.2722706000059,684.2722706000059,2.9067868999991333,None,,,,,,,,,,,,,,,,,,,,,,,,,,,,,,,,,,,,00044,001,2026-01-17_17h50.12.146,MST_task,2024.2.0,59.93385699587797,2026-01-17 17h50.54.713540 +0530,
6,practice_images/158a.jpg,6,6,1,j,None,,,1.4054599999944912,0.1912012999964645,,,,,,,1,6,6,,,,684.2722706000059,,,,,,,,,,,,,,,,,,,,,,,684.262834299996,684.2722706000059,684.7736216000048,684.7576526000048,684.7628636000009,684.7736216000048,684.7736216000048,684.7736216000048,687.7572233999963,j,687.7573789000016,,,687.7574456000002,None,,,687.7726032000064,687.7726032000064,687.7726032000064,1.4054599999944912,0.1912012999964645,,,,,,,,,,,,,,,,,,,,,,,,,,,,,,,,,,,,00044,001,2026-01-17_17h50.12.146,MST_task,2024.2.0,59.93385699587797,2026-01-17 17h50.54.713540 +0530,
10,practice_images/182a.jpg,7,7,1,f,None,,,2.1062857000069926,0.1674053000024287,,,,,,,1,7,7,,,,687.7726032000064,,,,,,,,,,,,,,,,,,,,,,,687.7577550999995,687.7726032000064,688.272340800002,688.2568659999961,688.2607009000058,688.272340800002,688.272340800002,688.272340800002,691.2571844000049,f,691.2573109999939,,,691.2573650999984,None,,,691.2722453000024,691.2722453000024,691.2722453000024,2.1062857000069926,0.1674053000024287,,,,,,,,,,,,,,,,,,,,,,,,,,,,,,,,,,,,00044,001,2026-01-17_17h50.12.146,MST_task,2024.2.0,59.93385699587797,2026-01-17 17h50.54.713540 +0530,
2,practice_images/031a.jpg,8,8,1,j,None,,,1.366521499992814,0.17575270000088494,,,,,,,1,8,8,,,,691.2722453000024,,,,,,,,,,,,,,,,,,,,,,,691.2576061,691.2722453000024,691.7726640000037,691.7570214000007,691.7617800000007,691.7726640000037,691.7726640000037,691.7726640000037,694.7572612999938,j,694.7573765999987,,,694.7574224999989,None,,,694.7723063000012,694.7723063000012,694.7723063000012,1.366521499992814,0.17575270000088494,,,,,,,,,,,,,,,,,,,,,,,,,,,,,,,,,,,,00044,001,2026-01-17_17h50.12.146,MST_task,2024.2.0,59.93385699587797,2026-01-17 17h50.54.713540 +0530,
4,practice_images/002b.jpg,9,9,1,j,None,,,2.3058651000028476,0.14304089998768177,,,,,,,1,9,9,,,,694.7723063000012,,,,,,,,,,,,,,,,,,,,,,,694.7576281000074,694.7723063000012,695.2727958000032,695.2568212000042,695.262207000007,695.2727958000032,695.2727958000032,695.2727958000032,698.2570229999983,j,698.2571800000005,,,698.2572488000005,None,,,698.272280899997,698.272280899997,698.272280899997,2.3058651000028476,0.14304089998768177,,,,,,,,,,,,,,,,,,,,,,,,,,,,,,,,,,,,00044,001,2026-01-17_17h50.12.146,MST_task,2024.2.0,59.93385699587797,2026-01-17 17h50.54.713540 +0530,
,,,,,,,,,,,,,,,,,,,,,,,,,,,,,,,,,,,,,,,,,,,,,,,,,,,,,,,,,,,,,,,,,,,,698.2574103999941,698.272280899997,698.272280899997,712.1245494000032,space,13.842645000011544,None,,,,,,,,,,,,,,,,,,,,,,,,,,,,,00044,001,2026-01-17_17h50.12.146,MST_task,2024.2.0,59.93385699587797,2026-01-17 17h50.54.713540 +0530,
,Objects\380a.jpg,0,0,1,,,,,,,None,f,0.17941209999844432,None,,,,,,1,0,0,712.1395934000029,,,,,,,,,,,,,,,,,,,,,,,712.1277671999997,712.1395934000029,712.6407867999951,712.6237756000046,,,,,,,,,,,,,,,,,,,,,,,,,,712.6366730000009,712.6407867999951,712.6407867999951,712.6407867999951,715.6394670000009,indoor,None,715.6433500999992,715.6554178000079,715.6554178000079,715.840560800003,f,0.17941209999844432,None,,,,,,,,,,,,,,,00044,001,2026-01-17_17h50.12.146,MST_task,2024.2.0,59.93385699587797,2026-01-17 17h50.54.713540 +0530,
,Objects\339a.jpg,1,0,2,,,,,,,j,None,,,2.237529000005452,0.16925459999765735,,,,2,0,1,715.8558262000006,,,,,,,,,,,,,,,,,,,,,,,715.8407856999984,715.8558262000006,716.3561275999964,716.3401622999954,,,,,,,,,,,,,,,,,,,,,,,,,,716.3501009000029,716.3561275999964,716.3561275999964,716.3561275999964,719.3409463999997,indoor,j,719.341133199996,,,719.341195800007,None,,,719.3556059999974,719.3556059999974,719.3556059999974,2.237529000005452,0.16925459999765735,,,,,,,,,,00044,001,2026-01-17_17h50.12.146,MST_task,2024.2.0,59.93385699587797,2026-01-17 17h50.54.713540 +0530,
,Objects\026a.jpg,2,0,3,,,,,,,f,None,,,2.282200300003751,0.15176309998787474,,,,3,0,2,719.3556059999974,,,,,,,,,,,,,,,,,,,,,,,719.341497100002,719.3556059999974,719.8561673999939,719.8404226999992,,,,,,,,,,,,,,,,,,,,,,,,,,719.8474305999989,719.8561673999939,719.8561673999939,719.8561673999939,722.840904800003,indoor,f,722.8410370000056,,,722.8410788000037,None,,,722.8556104000018,722.8556104000018,722.8556104000018,2.282200300003751,0.15176309998787474,,,,,,,,,,00044,001,2026-01-17_17h50.12.146,MST_task,2024.2.0,59.93385699587797,2026-01-17 17h50.54.713540 +0530,
,Objects\131a.jpg,3,0,4,,,,,,,f,None,,,2.3557402000005823,0.14524180001171771,,,,4,0,3,722.8556104000018,,,,,,,,,,,,,,,,,,,,,,,722.8413540000038,722.8556104000018,723.3820616000012,723.340391100006,,,,,,,,,,,,,,,,,,,,,,,,,,723.3786607000075,723.3820616000012,723.3820616000012,723.3820616000012,726.3562557999976,indoor,f,726.3563939000014,,,726.3564434,None,,,,,,2.3557402000005823,0.14524180001171771,,,,,,,,,,00044,001,2026-01-17_17h50.12.146,MST_task,2024.2.0,59.93385699587797,2026-01-17 17h50.54.713540 +0530,
,Objects\177a.jpg,4,0,5,,,,,,,j,None,,,1.7536036999954376,0.1444919000059599,,,,5,0,4,726.3722438999976,,,,,,,,,,,,,,,,,,,,,,,726.3566776999942,726.3722438999976,726.8727928000008,726.8568776000029,,,,,,,,,,,,,,,,,,,,,,,,,,726.8629330999975,726.8727928000008,726.8727928000008,726.8727928000008,729.8583978999959,indoor,j,729.858532600003,,,729.8585960000055,None,,,729.872718300001,729.872718300001,729.872718300001,1.7536036999954376,0.1444919000059599,,,,,,,,,,00044,001,2026-01-17_17h50.12.146,MST_task,2024.2.0,59.93385699587797,2026-01-17 17h50.54.713540 +0530,
,Objects\227a.jpg,5,0,6,,,,,,,f,None,,,1.3500670999928843,0.14401350000116508,,,,6,0,5,729.872718300001,,,,,,,,,,,,,,,,,,,,,,,729.858900399995,729.872718300001,730.3724769999972,730.3567315999971,,,,,,,,,,,,,,,,,,,,,,,,,,730.3698144999944,730.3724769999972,730.3724769999972,730.3724769999972,733.357613900007,indoor,f,733.3578223000077,,,733.3579024000064,None,,,733.3722817999951,733.3722817999951,733.3722817999951,1.3500670999928843,0.14401350000116508,,,,,,,,,,00044,001,2026-01-17_17h50.12.146,MST_task,2024.2.0,59.93385699587797,2026-01-17 17h50.54.713540 +0530,
,Objects\322a.jpg,6,0,7,,,,,,,f,None,,,2.272943400006625,0.23248140000214335,,,,7,0,6,733.3722817999951,,,,,,,,,,,,,,,,,,,,,,,733.3581077999988,733.3722817999951,733.873098600001,733.8568935000076,,,,,,,,,,,,,,,,,,,,,,,,,,733.8660405999981,733.873098600001,733.873098600001,733.873098600001,736.8579953000008,indoor,f,736.8581989999948,,,736.8582704,None,,,736.8727744000062,736.8727744000062,736.8727744000062,2.272943400006625,0.23248140000214335,,,,,,,,,,00044,001,2026-01-17_17h50.12.146,MST_task,2024.2.0,59.93385699587797,2026-01-17 17h50.54.713540 +0530,
,Objects\038a.jpg,7,0,8,,,,,,,f,None,,,2.1559387000015704,0.24072249999153428,,,,8,0,7,736.8727744000062,,,,,,,,,,,,,,,,,,,,,,,736.8584988999937,736.8727744000062,737.3740939999989,737.356843600006,,,,,,,,,,,,,,,,,,,,,,,,,,737.3712283000059,737.3740939999989,737.3740939999989,737.3740939999989,740.3728050000063,shoe,f,740.3784891999967,,,740.3785317000002,None,,,,,,2.1559387000015704,0.24072249999153428,,,,,,,,,,00044,001,2026-01-17_17h50.12.146,MST_task,2024.2.0,59.93385699587797,2026-01-17 17h50.54.713540 +0530,
,Objects\085a.jpg,8,0,9,,,,,,,j,None,,,1.8008674000011524,0.21553489999496378,,,,9,0,8,740.3890185000055,,,,,,,,,,,,,,,,,,,,,,,740.3787689000019,740.3890185000055,740.8894325000001,740.8739455000032,,,,,,,,,,,,,,,,,,,,,,,,,,740.882763200003,740.8894325000001,740.8894325000001,740.8894325000001,743.8742448999983,shoe,j,743.8743983000022,,,743.8744505000068,None,,,743.8897762999986,743.8897762999986,743.8897762999986,1.8008674000011524,0.21553489999496378,,,,,,,,,,00044,001,2026-01-17_17h50.12.146,MST_task,2024.2.0,59.93385699587797,2026-01-17 17h50.54.713540 +0530,
,Objects\168a.jpg,9,0,10,,,,,,,f,None,,,2.8692293999920366,None,,,,10,0,9,743.8897762999986,,,,,,,,,,,,,,,,,,,,,,,743.8748536000057,743.8897762999986,744.3893486000015,744.3737891000055,,,,,,,,,,,,,,,,,,,,,,,,,,744.3794476000039,744.3893486000015,744.3893486000015,744.3893486000015,747.3741059000022,shoe,f,747.3742844999942,,,747.3743589000078,None,,,747.3890591999952,747.3890591999952,747.3890591999952,2.8692293999920366,None,,,,,,,,,,00044,001,2026-01-17_17h50.12.146,MST_task,2024.2.0,59.93385699587797,2026-01-17 17h50.54.713540 +0530,
,Objects\161a.jpg,10,0,11,,,,,,,f,None,,,1.5522635000088485,0.23194040000089444,,,,11,0,10,747.3890591999952,,,,,,,,,,,,,,,,,,,,,,,747.3746381999954,747.3890591999952,747.8893933000072,747.8733551000041,,,,,,,,,,,,,,,,,,,,,,,,,,747.8812897000025,747.8893933000072,747.8893933000072,747.8893933000072,750.873806100004,shoe,f,750.8739064999972,,,750.8739423000079,None,,,750.8892346000066,750.8892346000066,750.8892346000066,1.5522635000088485,0.23194040000089444,,,,,,,,,,00044,001,2026-01-17_17h50.12.146,MST_task,2024.2.0,59.93385699587797,2026-01-17 17h50.54.713540 +0530,
,Objects\203a.jpg,11,0,12,,,,,,,None,j,0.013562199994339608,None,,,,,,12,0,11,750.8892346000066,,,,,,,,,,,,,,,,,,,,,,,750.8741068999952,750.8892346000066,751.3896973999945,751.3732833999966,,,,,,,,,,,,,,,,,,,,,,,,,,751.383322099995,751.3896973999945,751.3896973999945,751.3896973999945,754.3742062999954,shoe,None,754.3743030000041,754.389414300007,754.389414300007,754.408330899998,j,0.013562199994339608,None,754.389414300007,754.389414300007,754.389414300007,,,,,,,,,,,,00044,001,2026-01-17_17h50.12.146,MST_task,2024.2.0,59.93385699587797,2026-01-17 17h50.54.713540 +0530,
,Objects\147a.jpg,12,0,13,,,,,,,f,None,,,2.9122519999946235,None,,,,13,0,12,754.4224570999941,,,,,,,,,,,,,,,,,,,,,,,754.4085940999939,754.4224570999941,754.9228755000076,754.9069233000046,,,,,,,,,,,,,,,,,,,,,,,,,,754.9184886000003,754.9228755000076,754.9228755000076,754.9228755000076,757.9074420999968,shoe,f,757.907635800002,,,757.907679099997,None,,,757.9223826999951,757.9223826999951,757.9223826999951,2.9122519999946235,None,,,,,,,,,,00044,001,2026-01-17_17h50.12.146,MST_task,2024.2.0,59.93385699587797,2026-01-17 17h50.54.713540 +0530,
,Objects\301a.jpg,13,0,14,,,,,,,None,f,0.0991817999893101,None,,,,,,14,0,13,757.9223826999951,,,,,,,,,,,,,,,,,,,,,,,757.9078735999938,757.9223826999951,758.4466724999947,758.406968700001,,,,,,,,,,,,,,,,,,,,,,,,,,758.443171699997,758.4466724999947,758.4466724999947,758.4466724999947,761.422724899996,shoe,None,761.4228807000036,761.439552099997,761.439552099997,761.5409848999989,f,0.0991817999893101,None,,,,,,,,,,,,,,,00044,001,2026-01-17_17h50.12.146,MST_task,2024.2.0,59.93385699587797,2026-01-17 17h50.54.713540 +0530,
,Objects\035a.jpg,14,0,15,,,,,,,None,f,0.0830366000009235,None,,,,,,15,0,14,761.5558280999976,,,,,,,,,,,,,,,,,,,,,,,761.5412835000025,761.5558280999976,762.0560425000003,762.040639800005,,,,,,,,,,,,,,,,,,,,,,,,,,762.0480459999962,762.0560425000003,762.0560425000003,762.0560425000003,765.0409493000043,indoor,None,765.0443977999967,765.0558368000056,765.0558368000056,765.141778300007,f,0.0830366000009235,None,765.0558368000056,765.0558368000056,765.0558368000056,,,,,,,,,,,,00044,001,2026-01-17_17h50.12.146,MST_task,2024.2.0,59.93385699587797,2026-01-17 17h50.54.713540 +0530,
,Objects\267a.jpg,15,0,16,,,,,,,f,None,,,2.8182189999934053,None,,,,16,0,15,765.1557734999951,,,,,,,,,,,,,,,,,,,,,,,765.142033600001,765.1557734999951,765.6563577000052,765.6401439000037,,,,,,,,,,,,,,,,,,,,,,,,,,765.6495407000039,765.6563577000052,765.6563577000052,765.6563577000052,768.6409896999976,indoor,f,768.6411702000041,,,768.6412371000042,None,,,768.6556132999976,768.6556132999976,768.6556132999976,2.8182189999934053,None,,,,,,,,,,00044,001,2026-01-17_17h50.12.146,MST_task,2024.2.0,59.93385699587797,2026-01-17 17h50.54.713540 +0530,
,Objects\377a.jpg,16,0,17,,,,,,,j,None,,,1.3496065999934217,0.26414980000117794,,,,17,0,16,768.6556132999976,,,,,,,,,,,,,,,,,,,,,,,768.6414491000032,768.6556132999976,769.2043185000075,769.1407018000027,,,,,,,,,,,,,,,,,,,,,,,,,,769.2011770999961,769.2043185000075,769.2043185000075,769.2043185000075,772.1561409999995,indoor,j,772.1563224999991,,,772.1563909999968,None,,,,,,1.3496065999934217,0.26414980000117794,,,,,,,,,,00044,001,2026-01-17_17h50.12.146,MST_task,2024.2.0,59.93385699587797,2026-01-17 17h50.54.713540 +0530,
,Objects\184a.jpg,17,0,18,,,,,,,None,j,0.5058983000053558,None,,,,,,18,0,17,772.1731188999984,,,,,,,,,,,,,,,,,,,,,,,772.1565951999946,772.1731188999984,772.6728693000041,772.6566949999979,,,,,,,,,,,,,,,,,,,,,,,,,,772.6663564000046,772.6728693000041,772.6728693000041,772.6728693000041,775.6576773999986,indoor,None,775.6578362,775.672436199995,775.672436199995,776.190891899998,j,0.5058983000053558,None,775.672436199995,775.672436199995,775.672436199995,,,,,,,,,,,,00044,001,2026-01-17_17h50.12.146,MST_task,2024.2.0,59.93385699587797,2026-01-17 17h50.54.713540 +0530,
,Objects\185a.jpg,18,0,19,,,,,,,None,f,0.05622120000771247,None,,,,,,19,0,18,776.2056560000055,,,,,,,,,,,,,,,,,,,,,,,776.1912761999993,776.2056560000055,776.7060084999976,776.6901414000022,,,,,,,,,,,,,,,,,,,,,,,,,,776.6989609000011,776.7060084999976,776.7060084999976,776.7060084999976,779.691167500001,indoor,None,779.6913062999956,779.7057166000013,779.7057166000013,779.7745041000016,f,0.05622120000771247,None,779.7057166000013,779.7057166000013,779.7057166000013,,,,,,,,,,,,00044,001,2026-01-17_17h50.12.146,MST_task,2024.2.0,59.93385699587797,2026-01-17 17h50.54.713540 +0530,
,Objects\141a.jpg,19,0,20,,,,,,,None,j,0.26556849999178667,None,,,,,,20,0,19,779.7893279999989,,,,,,,,,,,,,,,,,,,,,,,779.7747658000008,779.7893279999989,780.2892865000031,780.2733339999977,,,,,,,,,,,,,,,,,,,,,,,,,,780.2786607000016,780.2892865000031,780.2892865000031,780.2892865000031,783.2746326000051,indoor,None,783.2747244000057,783.2893489999988,783.2893489999988,783.5579550999973,j,0.26556849999178667,None,783.2893489999988,783.2893489999988,783.2893489999988,,,,,,,,,,,,00044,001,2026-01-17_17h50.12.146,MST_task,2024.2.0,59.93385699587797,2026-01-17 17h50.54.713540 +0530,
,Objects\127a.jpg,20,0,21,,,,,,,f,None,,,1.3703572999947937,0.19902970000111964,,,,21,0,20,783.5734070000035,,,,,,,,,,,,,,,,,,,,,,,783.5583249000047,783.5734070000035,784.0724668000039,784.0573437999992,,,,,,,,,,,,,,,,,,,,,,,,,,784.0650945999951,784.0724668000039,784.0724668000039,784.0724668000039,787.0571825999941,indoor,f,787.0572967000044,,,787.0573335999943,None,,,787.0725386999984,787.0725386999984,787.0725386999984,1.3703572999947937,0.19902970000111964,,,,,,,,,,00044,001,2026-01-17_17h50.12.146,MST_task,2024.2.0,59.93385699587797,2026-01-17 17h50.54.713540 +0530,
,Objects\328a.jpg,21,0,22,,,,,,,None,f,0.310210299998289,None,,,,,,22,0,21,787.0725386999984,,,,,,,,,,,,,,,,,,,,,,,787.057499100003,787.0725386999984,787.572613700002,787.5568501999951,,,,,,,,,,,,,,,,,,,,,,,,,,787.5659720999975,787.572613700002,787.572613700002,787.572613700002,790.5573856999981,shoe,None,790.5623341000028,790.5731998999981,790.5731998999981,790.8907092000009,f,0.310210299998289,None,790.5731998999981,790.5731998999981,790.5731998999981,,,,,,,,,,,,00044,001,2026-01-17_17h50.12.146,MST_task,2024.2.0,59.93385699587797,2026-01-17 17h50.54.713540 +0530,
,Objects\163a.jpg,22,0,23,,,,,,,j,None,,,2.1569677000079537,0.15172890000394545,,,,23,0,22,790.9064497000072,,,,,,,,,,,,,,,,,,,,,,,790.8909445000027,790.9064497000072,791.4059114999982,791.3899396000052,,,,,,,,,,,,,,,,,,,,,,,,,,791.3969275999989,791.4059114999982,791.4059114999982,791.4059114999982,794.3906719999941,shoe,j,794.3908461999963,,,794.3909096999996,None,,,794.4057140999939,794.4057140999939,794.4057140999939,2.1569677000079537,0.15172890000394545,,,,,,,,,,00044,001,2026-01-17_17h50.12.146,MST_task,2024.2.0,59.93385699587797,2026-01-17 17h50.54.713540 +0530,
,Objects\091a.jpg,23,0,24,,,,,,,j,None,,,1.881209499988472,0.14442250000138301,,,,24,0,23,794.4057140999939,,,,,,,,,,,,,,,,,,,,,,,794.3911593999946,794.4057140999939,794.9291436000058,794.8911191000079,,,,,,,,,,,,,,,,,,,,,,,,,,794.9264687999967,794.9291436000058,794.9291436000058,794.9291436000058,797.9059817999951,shoe,j,797.9061501999968,,,797.9062126000063,None,,,,,,1.881209499988472,0.14442250000138301,,,,,,,,,,00044,001,2026-01-17_17h50.12.146,MST_task,2024.2.0,59.93385699587797,2026-01-17 17h50.54.713540 +0530,
,Objects\233a.jpg,24,0,25,,,,,,,None,f,0.011192499994649552,None,,,,,,25,0,24,797.9225531999982,,,,,,,,,,,,,,,,,,,,,,,797.9066276999947,797.9225531999982,798.4235972000024,798.4070528000011,,,,,,,,,,,,,,,,,,,,,,,,,,798.4130445000046,798.4235972000024,798.4235972000024,798.4235972000024,801.4064689000079,shoe,None,801.4065739000071,801.422527200004,801.422527200004,801.4408967000054,f,0.011192499994649552,None,,,,,,,,,,,,,,,00044,001,2026-01-17_17h50.12.146,MST_task,2024.2.0,59.93385699587797,2026-01-17 17h50.54.713540 +0530,
,Objects\216a.jpg,25,0,26,,,,,,,None,j,0.9746901000034995,None,,,,,,26,0,25,801.455667400005,,,,,,,,,,,,,,,,,,,,,,,801.4411546000047,801.455667400005,801.9562320999976,801.9399836999946,,,,,,,,,,,,,,,,,,,,,,,,,,801.9499667000055,801.9562320999976,801.9562320999976,801.9562320999976,804.9411336000048,shoe,None,804.9412563000078,804.9561764999962,804.9561764999962,805.9408117999992,j,0.9746901000034995,None,804.9561764999962,804.9561764999962,804.9561764999962,,,,,,,,,,,,00044,001,2026-01-17_17h50.12.146,MST_task,2024.2.0,59.93385699587797,2026-01-17 17h50.54.713540 +0530,
,Objects\295a.jpg,26,0,27,,,,,,,f,None,,,1.633995900003356,0.20774499999242835,,,,27,0,26,805.9558459999971,,,,,,,,,,,,,,,,,,,,,,,805.9410513000039,805.9558459999971,806.4565182000078,806.4401567000023,,,,,,,,,,,,,,,,,,,,,,,,,,806.4496404999954,806.4565182000078,806.4565182000078,806.4565182000078,809.4407539999956,shoe,f,809.440923800008,,,809.440981599997,None,,,809.4556657000066,809.4556657000066,809.4556657000066,1.633995900003356,0.20774499999242835,,,,,,,,,,00044,001,2026-01-17_17h50.12.146,MST_task,2024.2.0,59.93385699587797,2026-01-17 17h50.54.713540 +0530,
,Objects\258a.jpg,27,0,28,,,,,,,None,j,0.02239220000046771,None,,,,,,28,0,27,809.4556657000066,,,,,,,,,,,,,,,,,,,,,,,809.4413067999994,809.4556657000066,809.9842102999974,809.9401046999992,,,,,,,,,,,,,,,,,,,,,,,,,,809.9805650000053,809.9842102999974,809.9842102999974,809.9842102999974,812.9561051000055,shoe,None,812.956256999998,812.9724672000011,812.9724672000011,813.0077862000035,j,0.02239220000046771,None,,,,,,,,,,,,,,,00044,001,2026-01-17_17h50.12.146,MST_task,2024.2.0,59.93385699587797,2026-01-17 17h50.54.713540 +0530,
,Objects\356a.jpg,28,0,29,,,,,,,None,f,2.103910599995288,None,,,,,,29,0,28,813.0225092000037,,,,,,,,,,,,,,,,,,,,,,,813.0079967000056,813.0225092000037,813.522729999997,813.5067711000011,,,,,,,,,,,,,,,,,,,,,,,,,,813.5186873000057,813.522729999997,813.522729999997,813.522729999997,816.5075328999956,indoor,None,816.5123451999971,816.5223729999998,816.5223729999998,818.6409221000067,f,2.103910599995288,None,816.5223729999998,816.5223729999998,816.5223729999998,,,,,,,,,,,,00044,001,2026-01-17_17h50.12.146,MST_task,2024.2.0,59.93385699587797,2026-01-17 17h50.54.713540 +0530,
,Objects\136a.jpg,29,0,30,,,,,,,f,None,,,1.4705719000048703,0.19209650000266265,,,,30,0,29,818.6560613000038,,,,,,,,,,,,,,,,,,,,,,,818.641274499998,818.6560613000038,819.1561742000049,819.1405132000073,,,,,,,,,,,,,,,,,,,,,,,,,,819.1514510999987,819.1561742000049,819.1561742000049,819.1561742000049,822.1412662000075,indoor,f,822.1414291999972,,,822.1414730999968,None,,,822.155849200004,822.155849200004,822.155849200004,1.4705719000048703,0.19209650000266265,,,,,,,,,,00044,001,2026-01-17_17h50.12.146,MST_task,2024.2.0,59.93385699587797,2026-01-17 17h50.54.713540 +0530,
,Objects\172a.jpg,30,0,31,,,,,,,j,None,,,1.7381248000019696,0.11223789998621214,,,,31,0,30,822.155849200004,,,,,,,,,,,,,,,,,,,,,,,822.141673399994,822.155849200004,822.6803306999936,822.6398633000063,,,,,,,,,,,,,,,,,,,,,,,,,,822.6777361999993,822.6803306999936,822.6803306999936,822.6803306999936,825.6562731000013,indoor,j,825.6564401000069,,,825.6564889000001,None,,,,,,1.7381248000019696,0.11223789998621214,,,,,,,,,,00044,001,2026-01-17_17h50.12.146,MST_task,2024.2.0,59.93385699587797,2026-01-17 17h50.54.713540 +0530,
,Objects\347a.jpg,31,0,32,,,,,,,f,None,,,2.6512954000063473,0.12071589998959098,,,,32,0,31,825.6726350999961,,,,,,,,,,,,,,,,,,,,,,,825.6567039999936,825.6726350999961,826.1986941000068,826.1568922000006,,,,,,,,,,,,,,,,,,,,,,,,,,826.1952308000036,826.1986941000068,826.1986941000068,826.1986941000068,829.1732835000003,indoor,f,829.1734589999978,,,829.1735132000031,None,,,,,,2.6512954000063473,0.12071589998959098,,,,,,,,,,00044,001,2026-01-17_17h50.12.146,MST_task,2024.2.0,59.93385699587797,2026-01-17 17h50.54.713540 +0530,
,Objects\014a.jpg,32,0,33,,,,,,,f,None,,,1.0418066999991424,0.1426562999986345,,,,33,0,32,829.1890302999964,,,,,,,,,,,,,,,,,,,,,,,829.1737664999964,829.1890302999964,829.6892788999976,829.6735426999949,,,,,,,,,,,,,,,,,,,,,,,,,,829.6793517000042,829.6892788999976,829.6892788999976,829.6892788999976,832.6742534000077,indoor,f,832.674383000005,,,832.6744294999953,None,,,832.6890292000026,832.6890292000026,832.6890292000026,1.0418066999991424,0.1426562999986345,,,,,,,,,,00044,001,2026-01-17_17h50.12.146,MST_task,2024.2.0,59.93385699587797,2026-01-17 17h50.54.713540 +0530,
,Objects\217a.jpg,33,0,34,,,,,,,f,None,,,1.0689005000022007,0.13550049999321345,,,,34,0,33,832.6890292000026,,,,,,,,,,,,,,,,,,,,,,,832.6746363999991,832.6890292000026,833.1894998000062,833.1732215999946,,,,,,,,,,,,,,,,,,,,,,,,,,833.181666000004,833.1894998000062,833.1894998000062,833.1894998000062,836.1745376000035,indoor,f,836.1746758000081,,,836.1747211000038,None,,,836.1894861000037,836.1894861000037,836.1894861000037,1.0689005000022007,0.13550049999321345,,,,,,,,,,00044,001,2026-01-17_17h50.12.146,MST_task,2024.2.0,59.93385699587797,2026-01-17 17h50.54.713540 +0530,
,Objects\355a.jpg,34,0,35,,,,,,,j,None,,,1.264810500011663,0.13574769999831915,,,,35,0,34,836.1894861000037,,,,,,,,,,,,,,,,,,,,,,,836.1749746999994,836.1894861000037,836.6897578000062,836.6733999999997,,,,,,,,,,,,,,,,,,,,,,,,,,836.6798171999981,836.6897578000062,836.6897578000062,836.6897578000062,839.6745675999991,indoor,j,839.674682900004,,,839.6747228000022,None,,,839.6890512999962,839.6890512999962,839.6890512999962,1.264810500011663,0.13574769999831915,,,,,,,,,,00044,001,2026-01-17_17h50.12.146,MST_task,2024.2.0,59.93385699587797,2026-01-17 17h50.54.713540 +0530,
,Objects\345a.jpg,35,0,36,,,,,,,f,None,,,1.653458100001444,0.11195849999785423,,,,36,0,35,839.6890512999962,,,,,,,,,,,,,,,,,,,,,,,839.6749307999999,839.6890512999962,840.1894196000067,840.1736013000045,,,,,,,,,,,,,,,,,,,,,,,,,,840.1824456000031,840.1894196000067,840.1894196000067,840.1894196000067,843.1744171000028,shoe,f,843.1797619999998,,,843.1797973000066,None,,,843.1893281999946,843.1893281999946,843.1893281999946,1.653458100001444,0.11195849999785423,,,,,,,,,,00044,001,2026-01-17_17h50.12.146,MST_task,2024.2.0,59.93385699587797,2026-01-17 17h50.54.713540 +0530,
,Objects\160a.jpg,36,0,37,,,,,,,None,j,1.3211230000015348,None,,,,,,37,0,36,843.1893281999946,,,,,,,,,,,,,,,,,,,,,,,843.1799465999939,843.1893281999946,843.6897313000081,843.6735647000023,,,,,,,,,,,,,,,,,,,,,,,,,,843.6816642000049,843.6897313000081,843.6897313000081,843.6897313000081,846.6743205999956,shoe,None,846.6744811999961,846.6889542999998,846.6889542999998,848.0243495000032,j,1.3211230000015348,None,846.6889542999998,846.6889542999998,846.6889542999998,,,,,,,,,,,,00044,001,2026-01-17_17h50.12.146,MST_task,2024.2.0,59.93385699587797,2026-01-17 17h50.54.713540 +0530,
,Objects\106a.jpg,37,0,38,,,,,,,f,None,,,2.4466310999996495,0.14532979999785312,,,,38,0,37,848.0390322000021,,,,,,,,,,,,,,,,,,,,,,,848.0246479000052,848.0390322000021,848.5391764999949,848.5239404000022,,,,,,,,,,,,,,,,,,,,,,,,,,848.5323824000079,848.5391764999949,848.5391764999949,848.5391764999949,851.5246399000025,shoe,f,851.5248236000043,,,851.5248877999984,None,,,851.5389324999996,851.5389324999996,851.5389324999996,2.4466310999996495,0.14532979999785312,,,,,,,,,,00044,001,2026-01-17_17h50.12.146,MST_task,2024.2.0,59.93385699587797,2026-01-17 17h50.54.713540 +0530,
,Objects\175a.jpg,38,0,39,,,,,,,f,None,,,1.6025054999918211,0.17666150000877678,,,,39,0,38,851.5389324999996,,,,,,,,,,,,,,,,,,,,,,,851.5252544999967,851.5389324999996,852.0398015999963,852.0235217000009,,,,,,,,,,,,,,,,,,,,,,,,,,852.0312569999951,852.0398015999963,852.0398015999963,852.0398015999963,855.0243074000027,shoe,f,855.0244901999977,,,855.024556999997,None,,,855.0389389000047,855.0389389000047,855.0389389000047,1.6025054999918211,0.17666150000877678,,,,,,,,,,00044,001,2026-01-17_17h50.12.146,MST_task,2024.2.0,59.93385699587797,2026-01-17 17h50.54.713540 +0530,
,Objects\198a.jpg,39,0,40,,,,,,,f,None,,,0.9664054000022588,0.1208967999991728,,,,40,0,39,855.0389389000047,,,,,,,,,,,,,,,,,,,,,,,855.0248635000025,855.0389389000047,855.5393553000031,855.5240387999947,,,,,,,,,,,,,,,,,,,,,,,,,,855.5315509000066,855.5393553000031,855.5393553000031,855.5393553000031,858.5246751999948,shoe,f,858.524860999998,,,858.5249334999971,None,,,858.5392952999973,858.5392952999973,858.5392952999973,0.9664054000022588,0.1208967999991728,,,,,,,,,,00044,001,2026-01-17_17h50.12.146,MST_task,2024.2.0,59.93385699587797,2026-01-17 17h50.54.713540 +0530,
,Objects\234a.jpg,40,0,41,,,,,,,j,None,,,1.7390029999951366,0.19241450000845362,,,,41,0,40,858.5392952999973,,,,,,,,,,,,,,,,,,,,,,,858.5251719999942,858.5392952999973,859.039420400004,859.0234638999973,,,,,,,,,,,,,,,,,,,,,,,,,,859.0298746000044,859.039420400004,859.039420400004,859.039420400004,862.0237770999956,shoe,j,862.0238849000016,,,862.0239230000007,None,,,862.0389474999974,862.0389474999974,862.0389474999974,1.7390029999951366,0.19241450000845362,,,,,,,,,,00044,001,2026-01-17_17h50.12.146,MST_task,2024.2.0,59.93385699587797,2026-01-17 17h50.54.713540 +0530,
,Objects\228a.jpg,41,0,42,,,,,,,None,f,0.31824320000305306,None,,,,,,42,0,41,862.0389474999974,,,,,,,,,,,,,,,,,,,,,,,862.0240946999984,862.0389474999974,862.539191200005,862.5237502999953,,,,,,,,,,,,,,,,,,,,,,,,,,862.531011900006,862.539191200005,862.539191200005,862.539191200005,865.5241418000078,shoe,None,865.5242944000056,865.5397846999986,865.5397846999986,865.8743000999966,f,0.31824320000305306,None,865.5397846999986,865.5397846999986,865.5397846999986,,,,,,,,,,,,00044,001,2026-01-17_17h50.12.146,MST_task,2024.2.0,59.93385699587797,2026-01-17 17h50.54.713540 +0530,
,Objects\212a.jpg,42,0,43,,,,,,,j,None,,,1.840075900006923,0.15275399999518413,,,,43,0,42,865.8893612999964,,,,,,,,,,,,,,,,,,,,,,,865.8745475000032,865.8893612999964,866.4179467000067,866.3738501000043,,,,,,,,,,,,,,,,,,,,,,,,,,866.4145832000067,866.4179467000067,866.4179467000067,866.4179467000067,869.3893404999981,indoor,j,869.3925692000048,,,869.3925984999951,None,,,,,,1.840075900006923,0.15275399999518413,,,,,,,,,,00044,001,2026-01-17_17h50.12.146,MST_task,2024.2.0,59.93385699587797,2026-01-17 17h50.54.713540 +0530,
,Objects\344a.jpg,43,0,44,,,,,,,f,None,,,2.567529199994169,0.16805089999979828,,,,44,0,43,869.405928799999,,,,,,,,,,,,,,,,,,,,,,,869.392709000007,869.405928799999,869.9063328000047,869.8903905000043,,,,,,,,,,,,,,,,,,,,,,,,,,869.8985476999951,869.9063328000047,869.9063328000047,869.9063328000047,872.8912273000024,indoor,f,872.8914081999974,,,872.8914746999944,None,,,872.906051900005,872.906051900005,872.906051900005,2.567529199994169,0.16805089999979828,,,,,,,,,,00044,001,2026-01-17_17h50.12.146,MST_task,2024.2.0,59.93385699587797,2026-01-17 17h50.54.713540 +0530,
,Objects\155a.jpg,44,0,45,,,,,,,None,j,1.2290827999968315,None,,,,,,45,0,44,872.906051900005,,,,,,,,,,,,,,,,,,,,,,,872.8917933000048,872.906051900005,873.4060602999962,873.3903189999983,,,,,,,,,,,,,,,,,,,,,,,,,,873.398016399995,873.4060602999962,873.4060602999962,873.4060602999962,876.3908414000034,indoor,None,876.3909895999968,876.4057642999978,876.4057642999978,877.6407999000076,j,1.2290827999968315,None,876.4057642999978,876.4057642999978,876.4057642999978,,,,,,,,,,,,00044,001,2026-01-17_17h50.12.146,MST_task,2024.2.0,59.93385699587797,2026-01-17 17h50.54.713540 +0530,
,Objects\316a.jpg,45,0,46,,,,,,,None,f,0.3659138999937568,None,,,,,,46,0,45,877.655671200002,,,,,,,,,,,,,,,,,,,,,,,877.6411475000059,877.655671200002,878.1975241000036,878.1403126000077,,,,,,,,,,,,,,,,,,,,,,,,,,878.1946895000001,878.1975241000036,878.1975241000036,878.1975241000036,881.1561488000007,indoor,None,881.1563586999982,881.1724027000018,881.1724027000018,881.5404861999996,f,0.3659138999937568,None,,,,,,,,,,,,,,,00044,001,2026-01-17_17h50.12.146,MST_task,2024.2.0,59.93385699587797,2026-01-17 17h50.54.713540 +0530,
,Objects\157a.jpg,46,0,47,,,,,,,f,None,,,1.7933216999954311,0.1447554000042146,,,,47,0,46,881.5556548000022,,,,,,,,,,,,,,,,,,,,,,,881.5407800999965,881.5556548000022,882.0563867000019,882.0404540000018,,,,,,,,,,,,,,,,,,,,,,,,,,882.0461881999945,882.0563867000019,882.0563867000019,882.0563867000019,885.041035000002,indoor,f,885.0412174999947,,,885.041284100007,None,,,885.0560088000057,885.0560088000057,885.0560088000057,1.7933216999954311,0.1447554000042146,,,,,,,,,,00044,001,2026-01-17_17h50.12.146,MST_task,2024.2.0,59.93385699587797,2026-01-17 17h50.54.713540 +0530,
,Objects\154a.jpg,47,0,48,,,,,,,f,None,,,1.5344993000035174,0.19284829999378417,,,,48,0,47,885.0560088000057,,,,,,,,,,,,,,,,,,,,,,,885.0415826999961,885.0560088000057,885.5560777000064,885.5404178000026,,,,,,,,,,,,,,,,,,,,,,,,,,885.5470536000066,885.5560777000064,885.5560777000064,885.5560777000064,888.5407740999945,indoor,f,888.5409594999946,,,888.5410362999974,None,,,888.5556644000026,888.5556644000026,888.5556644000026,1.5344993000035174,0.19284829999378417,,,,,,,,,,00044,001,2026-01-17_17h50.12.146,MST_task,2024.2.0,59.93385699587797,2026-01-17 17h50.54.713540 +0530,
,Objects\338a.jpg,48,0,49,,,,,,,f,None,,,2.4897245000029216,0.14351799999712966,,,,49,0,48,888.5556644000026,,,,,,,,,,,,,,,,,,,,,,,888.5413492999942,888.5556644000026,889.0565004999953,889.0400911000033,,,,,,,,,,,,,,,,,,,,,,,,,,889.0473775999999,889.0565004999953,889.0565004999953,889.0565004999953,892.0410969000077,indoor,f,892.0412357000023,,,892.041284299994,None,,,892.0562318000011,892.0562318000011,892.0562318000011,2.4897245000029216,0.14351799999712966,,,,,,,,,,00044,001,2026-01-17_17h50.12.146,MST_task,2024.2.0,59.93385699587797,2026-01-17 17h50.54.713540 +0530,
,Objects\083a.jpg,49,0,50,,,,,,,f,None,,,1.6135140999977011,0.16138560000399593,,,,50,0,49,892.0562318000011,,,,,,,,,,,,,,,,,,,,,,,892.0416291000001,892.0562318000011,892.556110000005,892.5407672000001,,,,,,,,,,,,,,,,,,,,,,,,,,892.5513369999971,892.556110000005,892.556110000005,892.556110000005,895.5406303000054,shoe,f,895.5450435999956,,,895.5451001000038,None,,,895.5557311000011,895.5557311000011,895.5557311000011,1.6135140999977011,0.16138560000399593,,,,,,,,,,00044,001,2026-01-17_17h50.12.146,MST_task,2024.2.0,59.93385699587797,2026-01-17 17h50.54.713540 +0530,
,Objects\031a.jpg,50,0,51,,,,,,,j,None,,,2.738053900000523,0.12120549999235664,,,,51,0,50,895.5557311000011,,,,,,,,,,,,,,,,,,,,,,,895.5453481000004,895.5557311000011,896.0558853999974,896.0410878999974,,,,,,,,,,,,,,,,,,,,,,,,,,896.0489484999998,896.0558853999974,896.0558853999974,896.0558853999974,899.0419529000064,shoe,j,899.0421432000003,,,899.0422044000006,None,,,899.0555856999999,899.0555856999999,899.0555856999999,2.738053900000523,0.12120549999235664,,,,,,,,,,00044,001,2026-01-17_17h50.12.146,MST_task,2024.2.0,59.93385699587797,2026-01-17 17h50.54.713540 +0530,
,Objects\140a.jpg,51,0,52,,,,,,,None,j,0.22971829999005422,None,,,,,,52,0,51,899.0555856999999,,,,,,,,,,,,,,,,,,,,,,,899.0424847999966,899.0555856999999,899.5925908000063,899.5402313999948,,,,,,,,,,,,,,,,,,,,,,,,,,899.5888176000008,899.5925908000063,899.5925908000063,899.5925908000063,902.5562768999953,shoe,None,902.5564344000013,902.5725766999967,902.5725766999967,902.8077437000029,j,0.22971829999005422,None,,,,,,,,,,,,,,,00044,001,2026-01-17_17h50.12.146,MST_task,2024.2.0,59.93385699587797,2026-01-17 17h50.54.713540 +0530,
,Objects\241a.jpg,52,0,53,,,,,,,f,None,,,2.095841400005156,0.19963649999408517,,,,53,0,52,902.8222421999963,,,,,,,,,,,,,,,,,,,,,,,902.8080696999968,902.8222421999963,903.3227446999954,903.3071397000022,,,,,,,,,,,,,,,,,,,,,,,,,,903.3132246000023,903.3227446999954,903.3227446999954,903.3227446999954,906.3071990000026,shoe,f,906.3073009000072,,,906.3073372000072,None,,,906.3222610999946,906.3222610999946,906.3222610999946,2.095841400005156,0.19963649999408517,,,,,,,,,,00044,001,2026-01-17_17h50.12.146,MST_task,2024.2.0,59.93385699587797,2026-01-17 17h50.54.713540 +0530,
,Objects\262a.jpg,53,0,54,,,,,,,f,None,,,2.516461299994262,0.14276170000084676,,,,54,0,53,906.3222610999946,,,,,,,,,,,,,,,,,,,,,,,906.3074992000038,906.3222610999946,906.8227297999983,906.807776600006,,,,,,,,,,,,,,,,,,,,,,,,,,906.8175271000073,906.8227297999983,906.8227297999983,906.8227297999983,909.8082729000016,shoe,f,909.8084536999959,,,909.8085191999999,None,,,909.8229732000036,909.8229732000036,909.8229732000036,2.516461299994262,0.14276170000084676,,,,,,,,,,00044,001,2026-01-17_17h50.12.146,MST_task,2024.2.0,59.93385699587797,2026-01-17 17h50.54.713540 +0530,
,Objects\327a.jpg,54,0,55,,,,,,,j,None,,,1.991446799991536,0.11902480000571813,,,,55,0,54,909.8229732000036,,,,,,,,,,,,,,,,,,,,,,,909.8087717000017,909.8229732000036,910.3633408000023,910.3066844999994,,,,,,,,,,,,,,,,,,,,,,,,,,910.3592627000035,910.3633408000023,910.3633408000023,910.3633408000023,913.3237833000021,shoe,j,913.323959100002,,,913.3240184000024,None,,,,,,1.991446799991536,0.11902480000571813,,,,,,,,,,00044,001,2026-01-17_17h50.12.146,MST_task,2024.2.0,59.93385699587797,2026-01-17 17h50.54.713540 +0530,
,Objects\205a.jpg,55,0,56,,,,,,,j,None,,,1.6022624999895925,0.1928191000042716,,,,56,0,55,913.338988500007,,,,,,,,,,,,,,,,,,,,,,,913.3242845000059,913.338988500007,913.8718212999956,913.8236438000022,,,,,,,,,,,,,,,,,,,,,,,,,,913.8686624999973,913.8718212999956,913.8718212999956,913.8718212999956,916.8395734000078,shoe,j,916.8397447000025,,,916.8397924000019,None,,,,,,1.6022624999895925,0.1928191000042716,,,,,,,,,,00044,001,2026-01-17_17h50.12.146,MST_task,2024.2.0,59.93385699587797,2026-01-17 17h50.54.713540 +0530,
,Objects\343a.jpg,56,0,57,,,,,,,j,None,,,2.4935516999976244,0.16838650000863709,,,,57,0,56,916.8556611999957,,,,,,,,,,,,,,,,,,,,,,,916.8400126000051,916.8556611999957,917.3561652000062,917.3403080999997,,,,,,,,,,,,,,,,,,,,,,,,,,917.3477352000045,917.3561652000062,917.3561652000062,917.3561652000062,920.3415359000064,indoor,j,920.3451020000066,,,920.3451351999975,None,,,920.3556983000017,920.3556983000017,920.3556983000017,2.4935516999976244,0.16838650000863709,,,,,,,,,,00044,001,2026-01-17_17h50.12.146,MST_task,2024.2.0,59.93385699587797,2026-01-17 17h50.54.713540 +0530,
,Objects\251a.jpg,57,0,58,,,,,,,f,None,,,1.383049199997913,0.19262739999976475,,,,58,0,57,920.3556983000017,,,,,,,,,,,,,,,,,,,,,,,920.3452833000047,920.3556983000017,920.8906025000033,920.840867100007,,,,,,,,,,,,,,,,,,,,,,,,,,920.8874222000013,920.8906025000033,920.8906025000033,920.8906025000033,923.8562555999961,indoor,f,923.856388900007,,,923.8564371999964,None,,,,,,1.383049199997913,0.19262739999976475,,,,,,,,,,00044,001,2026-01-17_17h50.12.146,MST_task,2024.2.0,59.93385699587797,2026-01-17 17h50.54.713540 +0530,
,Objects\092a.jpg,58,0,59,,,,,,,None,j,3.2698550000059186,None,,,,,,59,0,58,923.8723257999955,,,,,,,,,,,,,,,,,,,,,,,923.856666599997,923.8723257999955,924.3727054000046,924.3568375000032,,,,,,,,,,,,,,,,,,,,,,,,,,924.3662126999989,924.3727054000046,924.3727054000046,924.3727054000046,927.3578195000009,indoor,None,927.3579577000055,927.3724882999959,927.3724882999959,930.6574533999956,j,3.2698550000059186,None,927.3724882999959,927.3724882999959,927.3724882999959,,,,,,,,,,,,00044,001,2026-01-17_17h50.12.146,MST_task,2024.2.0,59.93385699587797,2026-01-17 17h50.54.713540 +0530,
,Objects\096a.jpg,59,0,60,,,,,,,None,f,0.43722030000935774,None,,,,,,60,0,59,930.6723519000079,,,,,,,,,,,,,,,,,,,,,,,930.6576851999998,930.6723519000079,931.1725998000038,931.156831100001,,,,,,,,,,,,,,,,,,,,,,,,,,931.1652805000049,931.1725998000038,931.1725998000038,931.1725998000038,934.1569829000073,indoor,None,934.1570582999993,934.1725102000055,934.1725102000055,934.6245615999942,f,0.43722030000935774,None,934.1725102000055,934.1725102000055,934.1725102000055,,,,,,,,,,,,00044,001,2026-01-17_17h50.12.146,MST_task,2024.2.0,59.93385699587797,2026-01-17 17h50.54.713540 +0530,
,Objects\285a.jpg,60,0,61,,,,,,,None,f,0.25533460000588093,None,,,,,,61,0,60,934.6391002000018,,,,,,,,,,,,,,,,,,,,,,,934.6249664000061,934.6391002000018,935.1397125000076,935.1236575000075,,,,,,,,,,,,,,,,,,,,,,,,,,935.1314692000014,935.1397125000076,935.1397125000076,935.1397125000076,938.124106999996,indoor,None,938.1242232000077,938.1393719000043,938.1393719000043,938.4075718999957,f,0.25533460000588093,None,938.1393719000043,938.1393719000043,938.1393719000043,,,,,,,,,,,,00044,001,2026-01-17_17h50.12.146,MST_task,2024.2.0,59.93385699587797,2026-01-17 17h50.54.713540 +0530,
,Objects\299a.jpg,61,0,62,,,,,,,None,j,2.1506164000020362,None,,,,,,62,0,61,938.4222754000075,,,,,,,,,,,,,,,,,,,,,,,938.407933399998,938.4222754000075,939.0253281000041,938.9068756000052,,,,,,,,,,,,,,,,,,,,,,,,,,939.0223583000043,939.0253281000041,939.0253281000041,939.0253281000041,941.9230222000042,indoor,None,941.9231736999936,941.9390772000042,941.9390772000042,944.0919036999985,j,2.1506164000020362,None,,,,,,,,,,,,,,,00044,001,2026-01-17_17h50.12.146,MST_task,2024.2.0,59.93385699587797,2026-01-17 17h50.54.713540 +0530,
,Objects\143a.jpg,62,0,63,,,,,,,None,f,0.2523892000026535,None,,,,,,63,0,62,944.1057583999936,,,,,,,,,,,,,,,,,,,,,,,944.0921703000058,944.1057583999936,944.6061467999971,944.5906814000045,,,,,,,,,,,,,,,,,,,,,,,,,,944.5981107999978,944.6061467999971,944.6061467999971,944.6061467999971,947.5906854000059,indoor,None,947.590810499998,947.6057054999983,947.6057054999983,947.8741451999958,f,0.2523892000026535,None,947.6057054999983,947.6057054999983,947.6057054999983,,,,,,,,,,,,00044,001,2026-01-17_17h50.12.146,MST_task,2024.2.0,59.93385699587797,2026-01-17 17h50.54.713540 +0530,
,Objects\190a.jpg,63,0,64,,,,,,,f,None,,,2.693170200000168,0.1438447999971686,,,,64,0,63,947.8890729999985,,,,,,,,,,,,,,,,,,,,,,,947.874463900007,947.8890729999985,948.3893870000029,948.3732000000018,,,,,,,,,,,,,,,,,,,,,,,,,,948.3818483000068,948.3893870000029,948.3893870000029,948.3893870000029,951.3742159999965,shoe,f,951.3795527000038,,,951.3796014999971,None,,,951.3891670000012,951.3891670000012,951.3891670000012,2.693170200000168,0.1438447999971686,,,,,,,,,,00044,001,2026-01-17_17h50.12.146,MST_task,2024.2.0,59.93385699587797,2026-01-17 17h50.54.713540 +0530,
,Objects\188a.jpg,64,0,65,,,,,,,f,None,,,1.2323802999890177,0.08896070001355838,,,,65,0,64,951.3891670000012,,,,,,,,,,,,,,,,,,,,,,,951.3798040999973,951.3891670000012,951.889264700003,951.8735251000035,,,,,,,,,,,,,,,,,,,,,,,,,,951.8799287000002,951.889264700003,951.889264700003,951.889264700003,954.8742964999983,shoe,f,954.874487299996,,,954.8745462999941,None,,,954.8890182000032,954.8890182000032,954.8890182000032,1.2323802999890177,0.08896070001355838,,,,,,,,,,00044,001,2026-01-17_17h50.12.146,MST_task,2024.2.0,59.93385699587797,2026-01-17 17h50.54.713540 +0530,
,Objects\090a.jpg,65,0,66,,,,,,,j,None,,,2.1491131000075256,0.13624179999169428,,,,66,0,65,954.8890182000032,,,,,,,,,,,,,,,,,,,,,,,954.8749650999962,954.8890182000032,955.3892887999973,955.3736415000021,,,,,,,,,,,,,,,,,,,,,,,,,,955.3824378999998,955.3892887999973,955.3892887999973,955.3892887999973,958.3743536999973,shoe,j,958.3745134000055,,,958.3745565999998,None,,,958.389087500007,958.389087500007,958.389087500007,2.1491131000075256,0.13624179999169428,,,,,,,,,,00044,001,2026-01-17_17h50.12.146,MST_task,2024.2.0,59.93385699587797,2026-01-17 17h50.54.713540 +0530,
,Objects\293a.jpg,66,0,67,,,,,,,f,None,,,1.7842410000012023,0.19317499999306165,,,,67,0,66,958.389087500007,,,,,,,,,,,,,,,,,,,,,,,958.3747769000038,958.389087500007,958.8895745000045,958.8738347000035,,,,,,,,,,,,,,,,,,,,,,,,,,958.8803062000079,958.8895745000045,958.8895745000045,958.8895745000045,961.8741416999983,shoe,f,961.8743149000074,,,961.874350500002,None,,,961.8893702000059,961.8893702000059,961.8893702000059,1.7842410000012023,0.19317499999306165,,,,,,,,,,00044,001,2026-01-17_17h50.12.146,MST_task,2024.2.0,59.93385699587797,2026-01-17 17h50.54.713540 +0530,
,Objects\286a.jpg,67,0,68,,,,,,,None,j,0.28443980000156444,None,,,,,,68,0,67,961.8893702000059,,,,,,,,,,,,,,,,,,,,,,,961.8745140999963,961.8893702000059,962.4081480000023,962.373365499996,,,,,,,,,,,,,,,,,,,,,,,,,,962.4048485999956,962.4081480000023,962.4081480000023,962.4081480000023,965.3896017000079,shoe,None,965.389766799999,965.4058267000073,965.4058267000073,965.7074297000072,j,0.28443980000156444,None,,,,,,,,,,,,,,,00044,001,2026-01-17_17h50.12.146,MST_task,2024.2.0,59.93385699587797,2026-01-17 17h50.54.713540 +0530,
,Objects\046a.jpg,68,0,69,,,,,,,f,None,,,2.3045461000001524,0.15152539999689907,,,,69,0,68,965.7223559999984,,,,,,,,,,,,,,,,,,,,,,,965.7075331999949,965.7223559999984,966.242033100003,966.2069494000025,,,,,,,,,,,,,,,,,,,,,,,,,,966.2390217000066,966.242033100003,966.242033100003,966.242033100003,969.2229488000012,shoe,f,969.2231294999947,,,969.2231983999955,None,,,,,,2.3045461000001524,0.15152539999689907,,,,,,,,,,00044,001,2026-01-17_17h50.12.146,MST_task,2024.2.0,59.93385699587797,2026-01-17 17h50.54.713540 +0530,
,Objects\097a.jpg,69,0,70,,,,,,,j,None,,,2.126874499997939,0.15976310000405647,,,,70,0,69,969.239643199995,,,,,,,,,,,,,,,,,,,,,,,969.2235034000041,969.239643199995,,969.7245890000049,,,,,,,,,,,,,,,,,,,,,,,,,,969.7307989999972,969.7393524000072,969.7393524000072,969.7393524000072,972.7242792000034,shoe,j,972.7244859000057,,,972.7245238000032,None,,,972.7391444999957,972.7391444999957,972.7391444999957,2.126874499997939,0.15976310000405647,,,,,,,,,,00044,001,2026-01-17_17h50.12.146,MST_task,2024.2.0,59.93385699587797,2026-01-17 17h50.54.713540 +0530,
,Objects\292a.jpg,70,0,71,,,,,,,None,j,0.7074517000000924,None,,,,,,71,0,70,972.7391444999957,,,,,,,,,,,,,,,,,,,,,,,972.7247145000001,972.7391444999957,973.2396352000069,973.2235983999999,,,,,,,,,,,,,,,,,,,,,,,,,,973.2309672999982,973.2396352000069,973.2396352000069,973.2396352000069,976.2245425000001,indoor,None,976.2295444000047,976.2390498000022,976.2390498000022,976.957693999997,j,0.7074517000000924,None,976.2390498000022,976.2390498000022,976.2390498000022,,,,,,,,,,,,00044,001,2026-01-17_17h50.12.146,MST_task,2024.2.0,59.93385699587797,2026-01-17 17h50.54.713540 +0530,
,Objects\373a.jpg,71,0,72,,,,,,,j,None,,,2.0177153999975417,0.16780160000780597,,,,72,0,71,976.9724868000048,,,,,,,,,,,,,,,,,,,,,,,976.9578955000034,976.9724868000048,977.4728147999995,977.4566902000079,,,,,,,,,,,,,,,,,,,,,,,,,,977.4650147000066,977.4728147999995,977.4728147999995,977.4728147999995,980.4576052000048,indoor,j,980.4578002000053,,,980.4578678999969,None,,,980.4723984000011,980.4723984000011,980.4723984000011,2.0177153999975417,0.16780160000780597,,,,,,,,,,00044,001,2026-01-17_17h50.12.146,MST_task,2024.2.0,59.93385699587797,2026-01-17 17h50.54.713540 +0530,
,Objects\043a.jpg,72,0,73,,,,,,,None,f,2.822100000004866,None,,,,,,73,0,72,980.4723984000011,,,,,,,,,,,,,,,,,,,,,,,980.4580801999982,980.4723984000011,980.973116299996,980.9567386999988,,,,,,,,,,,,,,,,,,,,,,,,,,980.9636277999962,980.973116299996,980.973116299996,980.973116299996,983.9574967999943,indoor,None,983.9576430000016,983.9724582000053,983.9724582000053,986.8077056000038,f,2.822100000004866,None,983.9724582000053,983.9724582000053,983.9724582000053,,,,,,,,,,,,00044,001,2026-01-17_17h50.12.146,MST_task,2024.2.0,59.93385699587797,2026-01-17 17h50.54.713540 +0530,
,Objects\113a.jpg,73,0,74,,,,,,,f,None,,,2.615865499989013,0.19219820000580512,,,,74,0,73,986.8224097000057,,,,,,,,,,,,,,,,,,,,,,,986.8079871999944,986.8224097000057,987.3227045999956,987.3067473999981,,,,,,,,,,,,,,,,,,,,,,,,,,987.3149724999967,987.3227045999956,987.3227045999956,987.3227045999956,990.3076260999951,indoor,f,990.3077695999964,,,990.3078230999963,None,,,990.3226068000076,990.3226068000076,990.3226068000076,2.615865499989013,0.19219820000580512,,,,,,,,,,00044,001,2026-01-17_17h50.12.146,MST_task,2024.2.0,59.93385699587797,2026-01-17 17h50.54.713540 +0530,
,Objects\325a.jpg,74,0,75,,,,,,,f,None,,,1.9304266999970423,0.18507220000901725,,,,75,0,74,990.3226068000076,,,,,,,,,,,,,,,,,,,,,,,990.3080335999985,990.3226068000076,990.8234460999956,990.8065288000071,,,,,,,,,,,,,,,,,,,,,,,,,,990.8172858000034,990.8234460999956,990.8234460999956,990.8234460999956,993.8077839000034,indoor,f,993.8079652000015,,,993.8080304000032,None,,,993.8223290000024,993.8223290000024,993.8223290000024,1.9304266999970423,0.18507220000901725,,,,,,,,,,00044,001,2026-01-17_17h50.12.146,MST_task,2024.2.0,59.93385699587797,2026-01-17 17h50.54.713540 +0530,
,Objects\117a.jpg,75,0,76,,,,,,,j,None,,,1.470385400010855,0.23236480000196025,,,,76,0,75,993.8223290000024,,,,,,,,,,,,,,,,,,,,,,,993.8083477000037,993.8223290000024,994.3553048000031,994.3068682000012,,,,,,,,,,,,,,,,,,,,,,,,,,994.3522737000021,994.3553048000031,994.3553048000031,994.3553048000031,997.322730800006,indoor,j,997.3228892000043,,,997.3229286999995,None,,,,,,1.470385400010855,0.23236480000196025,,,,,,,,,,00044,001,2026-01-17_17h50.12.146,MST_task,2024.2.0,59.93385699587797,2026-01-17 17h50.54.713540 +0530,
,Objects\215a.jpg,76,0,77,,,,,,,f,None,,,1.4428590000024997,0.14300559999537654,,,,77,0,76,997.3391390000033,,,,,,,,,,,,,,,,,,,,,,,997.3231112000067,997.3391390000033,997.8398660999956,997.8235210999992,,,,,,,,,,,,,,,,,,,,,,,,,,997.8319283000019,997.8398660999956,997.8398660999956,997.8398660999956,1000.8238486000046,indoor,f,1000.8239525999961,,,1000.8239900000044,None,,,1000.8393378000037,1000.8393378000037,1000.8393378000037,1.4428590000024997,0.14300559999537654,,,,,,,,,,00044,001,2026-01-17_17h50.12.146,MST_task,2024.2.0,59.93385699587797,2026-01-17 17h50.54.713540 +0530,
,Objects\064a.jpg,77,0,78,,,,,,,f,None,,,1.2540268000011565,0.1443440000002738,,,,78,0,77,1000.8393378000037,,,,,,,,,,,,,,,,,,,,,,,1000.8241658000043,1000.8393378000037,1001.3399204000016,1001.3234918999951,,,,,,,,,,,,,,,,,,,,,,,,,,1001.3354804999981,1001.3399204000016,1001.3399204000016,1001.3399204000016,1004.3242395999987,shoe,f,1004.3298446999979,,,1004.3298848999984,None,,,1004.3390310999966,1004.3390310999966,1004.3390310999966,1.2540268000011565,0.1443440000002738,,,,,,,,,,00044,001,2026-01-17_17h50.12.146,MST_task,2024.2.0,59.93385699587797,2026-01-17 17h50.54.713540 +0530,
,Objects\313a.jpg,78,0,79,,,,,,,None,f,3.610647900000913,None,,,,,,79,0,78,1004.3390310999966,,,,,,,,,,,,,,,,,,,,,,,1004.3301165000012,1004.3390310999966,1004.8396613999939,1004.8233393999981,,,,,,,,,,,,,,,,,,,,,,,,,,1004.8285410999961,1004.8396613999939,1004.8396613999939,1004.8396613999939,1007.8244642000063,shoe,None,1007.8246433000022,1007.8397350000014,1007.8397350000014,1011.4577294000046,f,3.610647900000913,None,1007.8397350000014,1007.8397350000014,1007.8397350000014,,,,,,,,,,,,00044,001,2026-01-17_17h50.12.146,MST_task,2024.2.0,59.93385699587797,2026-01-17 17h50.54.713540 +0530,
,Objects\314a.jpg,79,0,80,,,,,,,f,None,,,2.051316599987331,0.19917780000832863,,,,80,0,79,1011.4724501000019,,,,,,,,,,,,,,,,,,,,,,,1011.4580064000038,1011.4724501000019,1011.9910522999999,1011.9569485999964,,,,,,,,,,,,,,,,,,,,,,,,,,1011.9881907999952,1011.9910522999999,1011.9910522999999,1011.9910522999999,1014.9727141000039,shoe,f,1014.9728944999952,,,1014.9729632999952,None,,,,,,2.051316599987331,0.19917780000832863,,,,,,,,,,00044,001,2026-01-17_17h50.12.146,MST_task,2024.2.0,59.93385699587797,2026-01-17 17h50.54.713540 +0530,
,Objects\005a.jpg,80,0,81,,,,,,,f,None,,,0.24138310000125784,0.20793439999397378,,,,81,0,80,1014.9898952000076,,,,,,,,,,,,,,,,,,,,,,,1014.9732740000036,1014.9898952000076,1015.4894052000018,1015.4734921000054,,,,,,,,,,,,,,,,,,,,,,,,,,1015.483860399996,1015.4894052000018,1015.4894052000018,1015.4894052000018,1018.4739387000009,shoe,f,1018.4740657999937,,,1018.4741099999956,None,,,1018.4898291999998,1018.4898291999998,1018.4898291999998,0.24138310000125784,0.20793439999397378,,,,,,,,,,00044,001,2026-01-17_17h50.12.146,MST_task,2024.2.0,59.93385699587797,2026-01-17 17h50.54.713540 +0530,
,Objects\306a.jpg,81,0,82,,,,,,,f,None,,,0.8457586000004085,0.1508182000106899,,,,82,0,81,1018.4898291999998,,,,,,,,,,,,,,,,,,,,,,,1018.4743992000003,1018.4898291999998,1018.9895844999992,1018.9733917999984,,,,,,,,,,,,,,,,,,,,,,,,,,1018.982322900003,1018.9895844999992,1018.9895844999992,1018.9895844999992,1021.9748787999997,shoe,f,1021.9750153000059,,,1021.9750583999994,None,,,1021.9890477000008,1021.9890477000008,1021.9890477000008,0.8457586000004085,0.1508182000106899,,,,,,,,,,00044,001,2026-01-17_17h50.12.146,MST_task,2024.2.0,59.93385699587797,2026-01-17 17h50.54.713540 +0530,
,Objects\245a.jpg,82,0,83,,,,,,,f,None,,,1.2568701000127476,0.14415709998866078,,,,83,0,82,1021.9890477000008,,,,,,,,,,,,,,,,,,,,,,,1021.9753552000038,1021.9890477000008,1022.4897169000033,1022.4749372000078,,,,,,,,,,,,,,,,,,,,,,,,,,1022.4834717000049,1022.4897169000033,1022.4897169000033,1022.4897169000033,1025.4737998000055,shoe,f,1025.4739323999966,,,1025.4739750000008,None,,,1025.4903322000027,1025.4903322000027,1025.4903322000027,1.2568701000127476,0.14415709998866078,,,,,,,,,,00044,001,2026-01-17_17h50.12.146,MST_task,2024.2.0,59.93385699587797,2026-01-17 17h50.54.713540 +0530,
,Objects\146a.jpg,83,0,84,,,,,,,j,None,,,2.715388900003745,0.1849209000065457,,,,84,0,83,1025.4903322000027,,,,,,,,,,,,,,,,,,,,,,,1025.4741694999975,1025.4903322000027,,1025.989643599998,,,,,,,,,,,,,,,,,,,,,,,,,,1025.9983898000064,1026.005999400004,1026.005999400004,1026.005999400004,1028.9896092999988,shoe,j,1028.9897917000053,,,1028.9898554999963,None,,,,,,2.715388900003745,0.1849209000065457,,,,,,,,,,00044,001,2026-01-17_17h50.12.146,MST_task,2024.2.0,59.93385699587797,2026-01-17 17h50.54.713540 +0530,
,Objects\296a.jpg,84,0,85,,,,,,,f,None,,,2.150128900000709,0.1771708000014769,,,,85,0,84,1029.0058651,,,,,,,,,,,,,,,,,,,,,,,1028.9901463999995,1029.0058651,1029.5397792000003,1029.4901934999943,,,,,,,,,,,,,,,,,,,,,,,,,,1029.5366034000035,1029.5397792000003,1029.5397792000003,1029.5397792000003,1032.5061153999995,indoor,f,1032.5109720000037,,,1032.5110201000061,None,,,,,,2.150128900000709,0.1771708000014769,,,,,,,,,,00044,001,2026-01-17_17h50.12.146,MST_task,2024.2.0,59.93385699587797,2026-01-17 17h50.54.713540 +0530,
,Objects\268a.jpg,85,0,86,,,,,,,None,f,2.499114500009455,None,,,,,,86,0,85,1032.5224280999973,,,,,,,,,,,,,,,,,,,,,,,1032.5112105000007,1032.5224280999973,1033.0526915999944,1033.0068466999946,,,,,,,,,,,,,,,,,,,,,,,,,,1033.0493164000072,1033.0526915999944,1033.0526915999944,1033.0526915999944,1036.0233453999972,indoor,None,1036.0234812999988,1036.0390339000005,1036.0390339000005,1038.5418414000014,f,2.499114500009455,None,,,,,,,,,,,,,,,00044,001,2026-01-17_17h50.12.146,MST_task,2024.2.0,59.93385699587797,2026-01-17 17h50.54.713540 +0530,
,Objects\149a.jpg,86,0,87,,,,,,,f,None,,,1.9533104000001913,0.168782699998701,,,,87,0,86,1038.5559671999945,,,,,,,,,,,,,,,,,,,,,,,1038.542119699996,1038.5559671999945,1039.056249500005,1039.040181000004,,,,,,,,,,,,,,,,,,,,,,,,,,1039.0496502000024,1039.056249500005,1039.056249500005,1039.056249500005,1042.040912700002,indoor,f,1042.041095099994,,,1042.0411528999975,None,,,1042.0557304999966,1042.0557304999966,1042.0557304999966,1.9533104000001913,0.168782699998701,,,,,,,,,,00044,001,2026-01-17_17h50.12.146,MST_task,2024.2.0,59.93385699587797,2026-01-17 17h50.54.713540 +0530,
,Objects\279a.jpg,87,0,88,,,,,,,None,f,1.26948089999496,None,,,,,,88,0,87,1042.0557304999966,,,,,,,,,,,,,,,,,,,,,,,1042.0413440999982,1042.0557304999966,1042.5559794,1042.540245199998,,,,,,,,,,,,,,,,,,,,,,,,,,1042.549073800008,1042.5559794,1042.5559794,1042.5559794,1045.5404398999963,indoor,None,1045.5405177000066,1045.5559424999956,1045.5559424999956,1046.8406001999974,f,1.26948089999496,None,1045.5559424999956,1045.5559424999956,1045.5559424999956,,,,,,,,,,,,00044,001,2026-01-17_17h50.12.146,MST_task,2024.2.0,59.93385699587797,2026-01-17 17h50.54.713540 +0530,
,Objects\081a.jpg,88,0,89,,,,,,,None,f,2.590197999990778,None,,,,,,89,0,88,1046.8557531999977,,,,,,,,,,,,,,,,,,,,,,,1046.840874100002,1046.8557531999977,1047.3787086999946,1047.340151299999,,,,,,,,,,,,,,,,,,,,,,,,,,1047.375902700005,1047.3787086999946,1047.3787086999946,1047.3787086999946,1050.3560883000027,indoor,None,1050.3561854,1050.3723853999982,1050.3723853999982,1052.9742072999943,f,2.590197999990778,None,,,,,,,,,,,,,,,00044,001,2026-01-17_17h50.12.146,MST_task,2024.2.0,59.93385699587797,2026-01-17 17h50.54.713540 +0530,
,Objects\041a.jpg,89,0,90,,,,,,,f,None,,,1.9614084000058938,0.2228356999985408,,,,90,0,89,1052.9890128999978,,,,,,,,,,,,,,,,,,,,,,,1052.9744265000045,1052.9890128999978,1053.4894114000053,1053.4735359000042,,,,,,,,,,,,,,,,,,,,,,,,,,1053.4812603000028,1053.4894114000053,1053.4894114000053,1053.4894114000053,1056.474454299998,indoor,f,1056.4746448000078,,,1056.4746911999973,None,,,1056.488980299997,1056.488980299997,1056.488980299997,1.9614084000058938,0.2228356999985408,,,,,,,,,,00044,001,2026-01-17_17h50.12.146,MST_task,2024.2.0,59.93385699587797,2026-01-17 17h50.54.713540 +0530,
,Objects\218a.jpg,90,0,91,,,,,,,j,None,,,1.4805866000097012,0.14445569999224972,,,,91,0,90,1056.488980299997,,,,,,,,,,,,,,,,,,,,,,,1056.474904200004,1056.488980299997,1057.017014099998,1056.973588199995,,,,,,,,,,,,,,,,,,,,,,,,,,1057.0135257999937,1057.017014099998,1057.017014099998,1057.017014099998,1059.9894464999961,indoor,j,1059.9896077000012,,,1059.9896513999993,None,,,,,,1.4805866000097012,0.14445569999224972,,,,,,,,,,00044,001,2026-01-17_17h50.12.146,MST_task,2024.2.0,59.93385699587797,2026-01-17 17h50.54.713540 +0530,
,Objects\363a.jpg,91,0,92,,,,,,,None,f,2.215437300008489,None,,,,,,92,0,91,1060.0057725000079,,,,,,,,,,,,,,,,,,,,,,,1059.9899110999977,1060.0057725000079,1060.5071891999978,1060.4900640999986,,,,,,,,,,,,,,,,,,,,,,,,,,1060.5042911000055,1060.5071891999978,1060.5071891999978,1060.5071891999978,1063.5062454,shoe,None,1063.511746899996,1063.522387200006,1063.522387200006,1065.7409604999993,f,2.215437300008489,None,,,,,,,,,,,,,,,00044,001,2026-01-17_17h50.12.146,MST_task,2024.2.0,59.93385699587797,2026-01-17 17h50.54.713540 +0530,
,Objects\167a.jpg,92,0,93,,,,,,,None,f,1.8268494999938412,None,,,,,,93,0,92,1065.7556793999975,,,,,,,,,,,,,,,,,,,,,,,1065.7413665000058,1065.7556793999975,1066.2815174999996,1066.2402546999947,,,,,,,,,,,,,,,,,,,,,,,,,,1066.2787533999945,1066.2815174999996,1066.2815174999996,1066.2815174999996,1069.2563477999938,shoe,None,1069.256500100004,1069.2725777000014,1069.2725777000014,1071.1082343000016,f,1.8268494999938412,None,,,,,,,,,,,,,,,00044,001,2026-01-17_17h50.12.146,MST_task,2024.2.0,59.93385699587797,2026-01-17 17h50.54.713540 +0530,
,Objects\056a.jpg,93,0,94,,,,,,,None,f,0.07534799999848474,None,,,,,,94,0,93,1071.1223808000068,,,,,,,,,,,,,,,,,,,,,,,1071.1085472999985,1071.1223808000068,1071.622932600003,1071.6069539000018,,,,,,,,,,,,,,,,,,,,,,,,,,1071.6124367000011,1071.622932600003,1071.622932600003,1071.622932600003,1074.6076440000033,shoe,None,1074.6078003000002,1074.622377000007,1074.622377000007,1074.7074894999969,f,0.07534799999848474,None,1074.622377000007,1074.622377000007,1074.622377000007,,,,,,,,,,,,00044,001,2026-01-17_17h50.12.146,MST_task,2024.2.0,59.93385699587797,2026-01-17 17h50.54.713540 +0530,
,Objects\196a.jpg,94,0,95,,,,,,,None,f,0.36358150000160094,None,,,,,,95,0,94,1074.7224969999952,,,,,,,,,,,,,,,,,,,,,,,1074.7077071999956,1074.7224969999952,1075.2226293999993,1075.2069914000022,,,,,,,,,,,,,,,,,,,,,,,,,,1075.2181942000025,1075.2226293999993,1075.2226293999993,1075.2226293999993,1078.207582300005,shoe,None,1078.2077135,1078.2223786999966,1078.2223786999966,1078.5906132999953,f,0.36358150000160094,None,1078.2223786999966,1078.2223786999966,1078.2223786999966,,,,,,,,,,,,00044,001,2026-01-17_17h50.12.146,MST_task,2024.2.0,59.93385699587797,2026-01-17 17h50.54.713540 +0530,
,Objects\332a.jpg,95,0,96,,,,,,,j,None,,,2.8551889000082156,None,,,,96,0,95,1078.6059430000023,,,,,,,,,,,,,,,,,,,,,,,1078.5908345000062,1078.6059430000023,1079.1063338999957,1079.0900467000029,,,,,,,,,,,,,,,,,,,,,,,,,,1079.1007279000041,1079.1063338999957,1079.1063338999957,1079.1063338999957,1082.091339599996,shoe,j,1082.0915355000034,,,1082.091600300002,None,,,1082.1057363,1082.1057363,1082.1057363,2.8551889000082156,None,,,,,,,,,,00044,001,2026-01-17_17h50.12.146,MST_task,2024.2.0,59.93385699587797,2026-01-17 17h50.54.713540 +0530,
,Objects\370a.jpg,96,0,97,,,,,,,None,f,0.2836928999895463,None,,,,,,97,0,96,1082.1057363,,,,,,,,,,,,,,,,,,,,,,,1082.0919068000076,1082.1057363,1082.6072266999981,1082.5902342000045,,,,,,,,,,,,,,,,,,,,,,,,,,1082.6005742999987,1082.6072266999981,1082.6072266999981,1082.6072266999981,1085.606195500004,shoe,None,1085.606365700005,1085.622819199998,1085.622819199998,1085.9110705000057,f,0.2836928999895463,None,,,,,,,,,,,,,,,00044,001,2026-01-17_17h50.12.146,MST_task,2024.2.0,59.93385699587797,2026-01-17 17h50.54.713540 +0530,
,Objects\098a.jpg,97,0,98,,,,,,,None,f,0.27514979999978095,None,,,,,,98,0,97,1085.922279499995,,,,,,,,,,,,,,,,,,,,,,,1085.9113011000009,1085.922279499995,1086.4227012000047,1086.4074699000048,,,,,,,,,,,,,,,,,,,,,,,,,,1086.4135630999954,1086.4227012000047,1086.4227012000047,1086.4227012000047,1089.4077629999956,shoe,None,1089.407869200004,1089.4224290999991,1089.4224290999991,1089.7075018000032,f,0.27514979999978095,None,1089.4224290999991,1089.4224290999991,1089.4224290999991,,,,,,,,,,,,00044,001,2026-01-17_17h50.12.146,MST_task,2024.2.0,59.93385699587797,2026-01-17 17h50.54.713540 +0530,
,Objects\122a.jpg,98,0,99,,,,,,,None,f,1.683921099989675,None,,,,,,99,0,98,1089.722680100007,,,,,,,,,,,,,,,,,,,,,,,1089.7078636000078,1089.722680100007,1090.223172500002,1090.2070289999974,,,,,,,,,,,,,,,,,,,,,,,,,,1090.216340400002,1090.223172500002,1090.223172500002,1090.223172500002,1093.2072004999936,indoor,None,1093.212181099996,1093.2224184000079,1093.2224184000079,1094.9082942999958,f,1.683921099989675,None,1093.2224184000079,1093.2224184000079,1093.2224184000079,,,,,,,,,,,,00044,001,2026-01-17_17h50.12.146,MST_task,2024.2.0,59.93385699587797,2026-01-17 17h50.54.713540 +0530,
,Objects\060a.jpg,99,0,100,,,,,,,None,f,0.9227123000018764,None,,,,,,100,0,99,1094.9223627000029,,,,,,,,,,,,,,,,,,,,,,,1094.9086434000055,1094.9223627000029,1095.4493610000063,1095.4068816000072,,,,,,,,,,,,,,,,,,,,,,,,,,1095.446888499995,1095.4493610000063,1095.4493610000063,1095.4493610000063,1098.4228156000027,indoor,None,1098.4229085999978,1098.439366000006,1098.439366000006,1099.3743878999958,f,0.9227123000018764,None,,,,,,,,,,,,,,,00044,001,2026-01-17_17h50.12.146,MST_task,2024.2.0,59.93385699587797,2026-01-17 17h50.54.713540 +0530,
,Objects\051a.jpg,100,0,101,,,,,,,j,None,,,2.3379904000030365,0.19146590000309516,,,,101,0,100,1099.3889045999967,,,,,,,,,,,,,,,,,,,,,,,1099.3747552999994,1099.3889045999967,1099.9281730999937,1099.873510400008,,,,,,,,,,,,,,,,,,,,,,,,,,1099.9245683000045,1099.9281730999937,1099.9281730999937,1099.9281730999937,1102.8894712000038,indoor,j,1102.8896472000051,,,1102.8897171999997,None,,,,,,2.3379904000030365,0.19146590000309516,,,,,,,,,,00044,001,2026-01-17_17h50.12.146,MST_task,2024.2.0,59.93385699587797,2026-01-17 17h50.54.713540 +0530,
,Objects\276a.jpg,101,0,102,,,,,,,j,None,,,1.844466199996532,0.19113239999569487,,,,102,0,101,1102.905815399994,,,,,,,,,,,,,,,,,,,,,,,1102.8900309000019,1102.905815399994,1103.4059630999982,1103.390258600004,,,,,,,,,,,,,,,,,,,,,,,,,,1103.396454600006,1103.4059630999982,1103.4059630999982,1103.4059630999982,1106.3905694999994,indoor,j,1106.3907041000057,,,1106.3907520000066,None,,,1106.4057907999959,1106.4057907999959,1106.4057907999959,1.844466199996532,0.19113239999569487,,,,,,,,,,00044,001,2026-01-17_17h50.12.146,MST_task,2024.2.0,59.93385699587797,2026-01-17 17h50.54.713540 +0530,
,Objects\225a.jpg,102,0,103,,,,,,,f,None,,,2.3364291000034427,0.17637429999012966,,,,103,0,102,1106.4057907999959,,,,,,,,,,,,,,,,,,,,,,,1106.3909335000062,1106.4057907999959,1106.9373381000041,1106.8900766000006,,,,,,,,,,,,,,,,,,,,,,,,,,1106.934418200006,1106.9373381000041,1106.9373381000041,1106.9373381000041,1109.9063915000006,indoor,f,1109.9065650999983,,,1109.9066320999991,None,,,,,,2.3364291000034427,0.17637429999012966,,,,,,,,,,00044,001,2026-01-17_17h50.12.146,MST_task,2024.2.0,59.93385699587797,2026-01-17 17h50.54.713540 +0530,
,Objects\187a.jpg,103,0,104,,,,,,,f,None,,,2.7711154999997234,0.1445248999953037,,,,104,0,103,1109.9224107000045,,,,,,,,,,,,,,,,,,,,,,,1109.906917100001,1109.9224107000045,1110.4226595000073,1110.4068072999944,,,,,,,,,,,,,,,,,,,,,,,,,,1110.4129126000043,1110.4226595000073,1110.4226595000073,1110.4226595000073,1113.4074821999966,indoor,f,1113.4076662000007,,,1113.4077452000056,None,,,1113.423289600003,1113.423289600003,1113.423289600003,2.7711154999997234,0.1445248999953037,,,,,,,,,,00044,001,2026-01-17_17h50.12.146,MST_task,2024.2.0,59.93385699587797,2026-01-17 17h50.54.713540 +0530,
,Objects\153a.jpg,104,0,105,,,,,,,f,None,,,1.6906802000012249,0.19209489999047946,,,,105,0,104,1113.423289600003,,,,,,,,,,,,,,,,,,,,,,,1113.408050099999,1113.423289600003,,1113.9227337000048,,,,,,,,,,,,,,,,,,,,,,,,,,1113.962790400008,1113.967203399996,1113.967203399996,1113.967203399996,1116.9227922999999,indoor,f,1116.9229729000072,,,1116.9230374000035,None,,,,,,1.6906802000012249,0.19209489999047946,,,,,,,,,,00044,001,2026-01-17_17h50.12.146,MST_task,2024.2.0,59.93385699587797,2026-01-17 17h50.54.713540 +0530,
,Objects\309a.jpg,105,0,106,,,,,,,f,None,,,2.2515070000081323,0.16718709999986459,,,,106,0,105,1116.9390711000015,,,,,,,,,,,,,,,,,,,,,,,1116.9233652999974,1116.9390711000015,1117.4395167000039,1117.4234777999955,,,,,,,,,,,,,,,,,,,,,,,,,,1117.4357517000026,1117.4395167000039,1117.4395167000039,1117.4395167000039,1120.4239593999955,shoe,f,1120.4275667000038,,,1120.4275924999965,None,,,1120.4391856000002,1120.4391856000002,1120.4391856000002,2.2515070000081323,0.16718709999986459,,,,,,,,,,00044,001,2026-01-17_17h50.12.146,MST_task,2024.2.0,59.93385699587797,2026-01-17 17h50.54.713540 +0530,
,Objects\007a.jpg,106,0,107,,,,,,,j,None,,,1.6550255000038305,0.16806050000013784,,,,107,0,106,1120.4391856000002,,,,,,,,,,,,,,,,,,,,,,,1120.4277016999986,1120.4391856000002,1120.9872544999962,1120.9233157999988,,,,,,,,,,,,,,,,,,,,,,,,,,1120.9845045999973,1120.9872544999962,1120.9872544999962,1120.9872544999962,1123.9392034000048,shoe,j,1123.9392727999948,,,1123.9393016999966,None,,,,,,1.6550255000038305,0.16806050000013784,,,,,,,,,,00044,001,2026-01-17_17h50.12.146,MST_task,2024.2.0,59.93385699587797,2026-01-17 17h50.54.713540 +0530,
,Objects\128a.jpg,107,0,108,,,,,,,f,None,,,1.8942547000042396,0.18386699999973644,,,,108,0,107,1123.955741800004,,,,,,,,,,,,,,,,,,,,,,,1123.9394143999962,1123.955741800004,,1124.439485099996,,,,,,,,,,,,,,,,,,,,,,,,,,1124.520939599999,1124.5239476999996,1124.5239476999996,1124.5239476999996,1127.439654700007,shoe,f,1127.4398327999952,,,1127.4398753999994,None,,,,,,1.8942547000042396,0.18386699999973644,,,,,,,,,,00044,001,2026-01-17_17h50.12.146,MST_task,2024.2.0,59.93385699587797,2026-01-17 17h50.54.713540 +0530,
,Objects\001a.jpg,108,0,109,,,,,,,f,None,,,1.3580571000056807,0.19166979999863543,,,,109,0,108,1127.4563511000015,,,,,,,,,,,,,,,,,,,,,,,1127.4401306000073,1127.4563511000015,1127.9559990999987,1127.9401719000016,,,,,,,,,,,,,,,,,,,,,,,,,,1127.9456512000033,1127.9559990999987,1127.9559990999987,1127.9559990999987,1130.9409754999942,shoe,f,1130.941153599997,,,1130.9412185999972,None,,,1130.9557440000062,1130.9557440000062,1130.9557440000062,1.3580571000056807,0.19166979999863543,,,,,,,,,,00044,001,2026-01-17_17h50.12.146,MST_task,2024.2.0,59.93385699587797,2026-01-17 17h50.54.713540 +0530,
,Objects\186a.jpg,109,0,110,,,,,,,f,None,,,1.864913700002944,0.19253919999755453,,,,110,0,109,1130.9557440000062,,,,,,,,,,,,,,,,,,,,,,,1130.941509199998,1130.9557440000062,1131.4809131000075,1131.4402438999969,,,,,,,,,,,,,,,,,,,,,,,,,,1131.4777881000045,1131.4809131000075,1131.4809131000075,1131.4809131000075,1134.4560327000072,shoe,f,1134.4561642000044,,,1134.4562091999978,None,,,,,,1.864913700002944,0.19253919999755453,,,,,,,,,,00044,001,2026-01-17_17h50.12.146,MST_task,2024.2.0,59.93385699587797,2026-01-17 17h50.54.713540 +0530,
,Objects\348a.jpg,110,0,111,,,,,,,f,None,,,1.213348400007817,0.11918889998923987,,,,111,0,110,1134.4725104999961,,,,,,,,,,,,,,,,,,,,,,,1134.4564265999943,1134.4725104999961,1134.9734279999975,1134.956852000003,,,,,,,,,,,,,,,,,,,,,,,,,,1134.969274700008,1134.9734279999975,1134.9734279999975,1134.9734279999975,1137.9572330999945,shoe,f,1137.9573876000068,,,1137.9574285999988,None,,,,,,1.213348400007817,0.11918889998923987,,,,,,,,,,00044,001,2026-01-17_17h50.12.146,MST_task,2024.2.0,59.93385699587797,2026-01-17 17h50.54.713540 +0530,
,Objects\158a.jpg,111,0,112,,,,,,,f,None,,,1.3040229000034742,0.16810890000488143,,,,112,0,111,1137.9726535000082,,,,,,,,,,,,,,,,,,,,,,,1137.957624600007,1137.9726535000082,1138.4734013999987,1138.4569434000005,,,,,,,,,,,,,,,,,,,,,,,,,,1138.4632155,1138.4734013999987,1138.4734013999987,1138.4734013999987,1141.4575813999982,shoe,f,1141.4577140000038,,,1141.4577542000043,None,,,1141.472328799995,1141.472328799995,1141.472328799995,1.3040229000034742,0.16810890000488143,,,,,,,,,,00044,001,2026-01-17_17h50.12.146,MST_task,2024.2.0,59.93385699587797,2026-01-17 17h50.54.713540 +0530,
,Objects\280a.jpg,112,0,113,,,,,,,j,None,,,1.2216155000060098,0.1601842999953078,,,,113,0,112,1141.472328799995,,,,,,,,,,,,,,,,,,,,,,,1141.4580158000026,1141.472328799995,1141.9726093000063,1141.9567752000003,,,,,,,,,,,,,,,,,,,,,,,,,,1141.9656636,1141.9726093000063,1141.9726093000063,1141.9726093000063,1144.9582072000048,indoor,j,1144.962130800006,,,1144.962178200003,None,,,1144.9726245000056,1144.9726245000056,1144.9726245000056,1.2216155000060098,0.1601842999953078,,,,,,,,,,00044,001,2026-01-17_17h50.12.146,MST_task,2024.2.0,59.93385699587797,2026-01-17 17h50.54.713540 +0530,
,Objects\247a.jpg,113,0,114,,,,,,,None,f,2.4002779000002192,None,,,,,,114,0,113,1144.9726245000056,,,,,,,,,,,,,,,,,,,,,,,1144.9623692000023,1144.9726245000056,1145.5108929999988,1145.456930100001,,,,,,,,,,,,,,,,,,,,,,,,,,1145.507253200005,1145.5108929999988,1145.5108929999988,1145.5108929999988,1148.4730309000006,indoor,None,1148.4731831999961,1148.4892565000046,1148.4892565000046,1150.8916057000024,f,2.4002779000002192,None,,,,,,,,,,,,,,,00044,001,2026-01-17_17h50.12.146,MST_task,2024.2.0,59.93385699587797,2026-01-17 17h50.54.713540 +0530,
,Objects\148a.jpg,114,0,115,,,,,,,None,f,0.21322840001084842,None,,,,,,115,0,114,1150.9057859000022,,,,,,,,,,,,,,,,,,,,,,,1150.891877400005,1150.9057859000022,1151.4063752999937,1151.3899489000032,,,,,,,,,,,,,,,,,,,,,,,,,,1151.3980393999955,1151.4063752999937,1151.4063752999937,1151.4063752999937,1154.3906177000026,indoor,None,1154.3907743000018,1154.4057787000056,1154.4057787000056,1154.624050600003,f,0.21322840001084842,None,1154.4057787000056,1154.4057787000056,1154.4057787000056,,,,,,,,,,,,00044,001,2026-01-17_17h50.12.146,MST_task,2024.2.0,59.93385699587797,2026-01-17 17h50.54.713540 +0530,
,Objects\087a.jpg,115,0,116,,,,,,,None,j,0.23058360000140965,None,,,,,,116,0,115,1154.638912800001,,,,,,,,,,,,,,,,,,,,,,,1154.6243799999938,1154.638912800001,1155.1612434999988,1155.1235784000019,,,,,,,,,,,,,,,,,,,,,,,,,,1155.1577350000007,1155.1612434999988,1155.1612434999988,1155.1612434999988,1158.1393481999985,indoor,None,1158.139499099998,1158.1557233000058,1158.1557233000058,1158.3908980999986,j,0.23058360000140965,None,,,,,,,,,,,,,,,00044,001,2026-01-17_17h50.12.146,MST_task,2024.2.0,59.93385699587797,2026-01-17 17h50.54.713540 +0530,
,Objects\375a.jpg,116,0,117,,,,,,,None,f,0.15115760000480805,None,,,,,,117,0,116,1158.4058382999938,,,,,,,,,,,,,,,,,,,,,,,1158.3912720999942,1158.4058382999938,1158.933677699999,1158.8901349999942,,,,,,,,,,,,,,,,,,,,,,,,,,1158.930192800006,1158.933677699999,1158.933677699999,1158.933677699999,1161.9070326000074,indoor,None,1161.9071444,1161.922493200007,1161.922493200007,1162.0910231000016,f,0.15115760000480805,None,,,,,,,,,,,,,,,00044,001,2026-01-17_17h50.12.146,MST_task,2024.2.0,59.93385699587797,2026-01-17 17h50.54.713540 +0530,
,Objects\176a.jpg,117,0,118,,,,,,,None,f,1.9483573000034085,None,,,,,,118,0,117,1162.105724699999,,,,,,,,,,,,,,,,,,,,,,,1162.0913937000005,1162.105724699999,1162.6059647000075,1162.5902649000054,,,,,,,,,,,,,,,,,,,,,,,,,,1162.5991123999993,1162.6059647000075,1162.6059647000075,1162.6059647000075,1165.5914593000052,indoor,None,1165.591617900005,1165.6060154000006,1165.6060154000006,1167.5573913999979,f,1.9483573000034085,None,1165.6060154000006,1165.6060154000006,1165.6060154000006,,,,,,,,,,,,00044,001,2026-01-17_17h50.12.146,MST_task,2024.2.0,59.93385699587797,2026-01-17 17h50.54.713540 +0530,
,Objects\192a.jpg,118,0,119,,,,,,,j,None,,,1.761409900005674,0.2163700999954017,,,,119,0,118,1167.5724506999977,,,,,,,,,,,,,,,,,,,,,,,1167.557613900004,1167.5724506999977,1168.0730221999984,1168.056929600003,,,,,,,,,,,,,,,,,,,,,,,,,,1168.0628465000045,1168.0730221999984,1168.0730221999984,1168.0730221999984,1171.0577817000012,indoor,j,1171.0579581000056,,,1171.058023999998,None,,,1171.0723899000004,1171.0723899000004,1171.0723899000004,1.761409900005674,0.2163700999954017,,,,,,,,,,00044,001,2026-01-17_17h50.12.146,MST_task,2024.2.0,59.93385699587797,2026-01-17 17h50.54.713540 +0530,
,Objects\260a.jpg,119,0,120,,,,,,,f,None,,,2.7013605999964057,0.1996363000071142,,,,120,0,119,1171.0723899000004,,,,,,,,,,,,,,,,,,,,,,,1171.0582693000033,1171.0723899000004,1171.6132863999956,1171.5577137000073,,,,,,,,,,,,,,,,,,,,,,,,,,1171.6096687999961,1171.6132863999956,1171.6132863999956,1171.6132863999956,1174.573115399995,shoe,f,1174.5786622000014,,,1174.578720599995,None,,,,,,2.7013605999964057,0.1996363000071142,,,,,,,,,,00044,001,2026-01-17_17h50.12.146,MST_task,2024.2.0,59.93385699587797,2026-01-17 17h50.54.713540 +0530,
,Objects\181a.jpg,120,0,121,,,,,,,j,None,,,1.1756330000062007,0.2158342999900924,,,,121,0,120,1174.5892631000024,,,,,,,,,,,,,,,,,,,,,,,1174.5789607000042,1174.5892631000024,1175.0907065000065,1175.0737854000035,,,,,,,,,,,,,,,,,,,,,,,,,,1175.0806439000007,1175.0907065000065,1175.0907065000065,1175.0907065000065,1178.090200999999,shoe,j,1178.0903884,,,1178.0904582000076,None,,,,,,1.1756330000062007,0.2158342999900924,,,,,,,,,,00044,001,2026-01-17_17h50.12.146,MST_task,2024.2.0,59.93385699587797,2026-01-17 17h50.54.713540 +0530,
,Objects\195a.jpg,121,0,122,,,,,,,j,None,,,2.3243960999971023,0.21532629999273922,,,,122,0,121,1178.1065030000027,,,,,,,,,,,,,,,,,,,,,,,1178.0907985999947,1178.1065030000027,1178.606186200006,1178.5912529000052,,,,,,,,,,,,,,,,,,,,,,,,,,1178.6016054000065,1178.606186200006,1178.606186200006,1178.606186200006,1181.5914731999947,shoe,j,1181.5916615000024,,,1181.5917287000048,None,,,1181.6057053999975,1181.6057053999975,1181.6057053999975,2.3243960999971023,0.21532629999273922,,,,,,,,,,00044,001,2026-01-17_17h50.12.146,MST_task,2024.2.0,59.93385699587797,2026-01-17 17h50.54.713540 +0530,
,Objects\159a.jpg,122,0,123,,,,,,,f,None,,,1.005509800001164,0.1518221000005724,,,,123,0,122,1181.6057053999975,,,,,,,,,,,,,,,,,,,,,,,1181.5920353999973,1181.6057053999975,1182.1484081999952,1182.0903015999938,,,,,,,,,,,,,,,,,,,,,,,,,,1182.144856400002,1182.1484081999952,1182.1484081999952,1182.1484081999952,1185.1062867,shoe,f,1185.106463899996,,,1185.1065099999978,None,,,,,,1.005509800001164,0.1518221000005724,,,,,,,,,,00044,001,2026-01-17_17h50.12.146,MST_task,2024.2.0,59.93385699587797,2026-01-17 17h50.54.713540 +0530,
,Objects\103a.jpg,123,0,124,,,,,,,j,None,,,1.2046608999953605,0.1608637000026647,,,,124,0,123,1185.1223527999973,,,,,,,,,,,,,,,,,,,,,,,1185.1068130000058,1185.1223527999973,1185.652598200002,1185.606940800004,,,,,,,,,,,,,,,,,,,,,,,,,,1185.6496218999964,1185.652598200002,1185.652598200002,1185.652598200002,1188.6228837999952,shoe,j,1188.6230100999965,,,1188.6230561999982,None,,,,,,1.2046608999953605,0.1608637000026647,,,,,,,,,,00044,001,2026-01-17_17h50.12.146,MST_task,2024.2.0,59.93385699587797,2026-01-17 17h50.54.713540 +0530,
,Objects\317a.jpg,124,0,125,,,,,,,None,j,0.9019082000013441,None,,,,,,125,0,124,1188.639188000001,,,,,,,,,,,,,,,,,,,,,,,1188.6233553000056,1188.639188000001,1189.1608785999997,1189.123374600007,,,,,,,,,,,,,,,,,,,,,,,,,,1189.157934200004,1189.1608785999997,1189.1608785999997,1189.1608785999997,1192.1400986999943,shoe,None,1192.1401900000055,1192.155881700004,1192.155881700004,1193.0741086000053,j,0.9019082000013441,None,,,,,,,,,,,,,,,00044,001,2026-01-17_17h50.12.146,MST_task,2024.2.0,59.93385699587797,2026-01-17 17h50.54.713540 +0530,
,Objects\072a.jpg,125,0,126,,,,,,,None,j,1.1723973999905866,None,,,,,,126,0,125,1193.0890933000046,,,,,,,,,,,,,,,,,,,,,,,1193.074595099999,1193.0890933000046,1193.6346247000038,1193.5735299999942,,,,,,,,,,,,,,,,,,,,,,,,,,1193.6317731000017,1193.6346247000038,1193.6346247000038,1193.6346247000038,1196.5897538999998,shoe,None,1196.5899198999978,1196.6061387999944,1196.6061387999944,1197.7908516000025,j,1.1723973999905866,None,,,,,,,,,,,,,,,00044,001,2026-01-17_17h50.12.146,MST_task,2024.2.0,59.93385699587797,2026-01-17 17h50.54.713540 +0530,
,Objects\361a.jpg,126,0,127,,,,,,,None,f,1.3754617000086,None,,,,,,127,0,126,1197.8067360999994,,,,,,,,,,,,,,,,,,,,,,,1197.7911924000073,1197.8067360999994,,1198.3059635999962,,,,,,,,,,,,,,,,,,,,,,,,,,1198.3175484999956,1198.3225934000075,1198.3225934000075,1198.3225934000075,1201.3061236000067,indoor,None,1201.3109492999938,1201.3223237000057,1201.3223237000057,1202.7079339000047,f,1.3754617000086,None,,,,,,,,,,,,,,,00044,001,2026-01-17_17h50.12.146,MST_task,2024.2.0,59.93385699587797,2026-01-17 17h50.54.713540 +0530,
,Objects\298a.jpg,127,0,128,,,,,,,None,f,0.7862072000134503,None,,,,,,128,0,127,1202.7223472000042,,,,,,,,,,,,,,,,,,,,,,,1202.7081875000003,1202.7223472000042,1203.222759700002,1203.206652000008,,,,,,,,,,,,,,,,,,,,,,,,,,1203.2139446000074,1203.222759700002,1203.222759700002,1203.222759700002,1206.2085111000051,indoor,None,1206.2086626999953,1206.223135399996,1206.223135399996,1207.0251123000053,f,0.7862072000134503,None,1206.223135399996,1206.223135399996,1206.223135399996,,,,,,,,,,,,00044,001,2026-01-17_17h50.12.146,MST_task,2024.2.0,59.93385699587797,2026-01-17 17h50.54.713540 +0530,
,Objects\360a.jpg,128,0,129,,,,,,,f,None,,,2.4323729000025196,0.15255030000116676,,,,129,0,128,1207.0394065,,,,,,,,,,,,,,,,,,,,,,,1207.0253609000065,1207.0394065,1207.5696944999945,1207.5234416000021,,,,,,,,,,,,,,,,,,,,,,,,,,1207.5649438999972,1207.5696944999945,1207.5696944999945,1207.5696944999945,1210.539884800004,indoor,f,1210.5400267000077,,,1210.5400743000064,None,,,,,,2.4323729000025196,0.15255030000116676,,,,,,,,,,00044,001,2026-01-17_17h50.12.146,MST_task,2024.2.0,59.93385699587797,2026-01-17 17h50.54.713540 +0530,
,Objects\013a.jpg,129,0,130,,,,,,,None,f,3.0979150000057416,None,,,,,,130,0,129,1210.5561753999937,,,,,,,,,,,,,,,,,,,,,,,1210.5402928999974,1210.5561753999937,1211.0563681000058,1211.0405248000025,,,,,,,,,,,,,,,,,,,,,,,,,,1211.0469332000066,1211.0563681000058,1211.0563681000058,1211.0563681000058,1214.0414370000071,indoor,None,1214.0416183000052,1214.0557528000063,1214.0557528000063,1217.1572801000002,f,3.0979150000057416,None,1214.0557528000063,1214.0557528000063,1214.0557528000063,,,,,,,,,,,,00044,001,2026-01-17_17h50.12.146,MST_task,2024.2.0,59.93385699587797,2026-01-17 17h50.54.713540 +0530,
,Objects\034a.jpg,130,0,131,,,,,,,f,None,,,1.8625087999971583,0.19938510000065435,,,,131,0,130,1217.172862899999,,,,,,,,,,,,,,,,,,,,,,,1217.157663200007,1217.172862899999,1217.7242539,1217.657266299997,,,,,,,,,,,,,,,,,,,,,,,,,,1217.7205648999952,1217.7242539,1217.7242539,1217.7242539,1220.6729034000018,indoor,f,1220.6730803999963,,,1220.6731498000008,None,,,,,,1.8625087999971583,0.19938510000065435,,,,,,,,,,00044,001,2026-01-17_17h50.12.146,MST_task,2024.2.0,59.93385699587797,2026-01-17 17h50.54.713540 +0530,
,Objects\112a.jpg,131,0,132,,,,,,,f,None,,,0.8505772000062279,0.16708070000458974,,,,132,0,131,1220.6892754,,,,,,,,,,,,,,,,,,,,,,,1220.6734049000079,1220.6892754,1221.2317226000014,1221.173614600004,,,,,,,,,,,,,,,,,,,,,,,,,,1221.2285296000045,1221.2317226000014,1221.2317226000014,1221.2317226000014,1224.1739610000077,indoor,f,1224.1740680999937,,,1224.1741063999943,None,,,,,,0.8505772000062279,0.16708070000458974,,,,,,,,,,00044,001,2026-01-17_17h50.12.146,MST_task,2024.2.0,59.93385699587797,2026-01-17 17h50.54.713540 +0530,
,Objects\164a.jpg,132,0,133,,,,,,,f,None,,,2.049774499988416,0.14307070001086686,,,,133,0,132,1224.189145299999,,,,,,,,,,,,,,,,,,,,,,,1224.174289600007,1224.189145299999,1224.6893280000077,1224.6734638000053,,,,,,,,,,,,,,,,,,,,,,,,,,1224.6796976000041,1224.6893280000077,1224.6893280000077,1224.6893280000077,1227.6741100000072,indoor,f,1227.6742911000038,,,1227.6743558000016,None,,,1227.6890615000011,1227.6890615000011,1227.6890615000011,2.049774499988416,0.14307070001086686,,,,,,,,,,00044,001,2026-01-17_17h50.12.146,MST_task,2024.2.0,59.93385699587797,2026-01-17 17h50.54.713540 +0530,
,Objects\334a.jpg,133,0,134,,,,,,,j,None,,,2.589143500008504,0.16760990000329912,,,,134,0,133,1227.6890615000011,,,,,,,,,,,,,,,,,,,,,,,1227.6746558000013,1227.6890615000011,1228.1893343999982,1228.1738152000034,,,,,,,,,,,,,,,,,,,,,,,,,,1228.1817058000015,1228.1893343999982,1228.1893343999982,1228.1893343999982,1231.1746383999998,shoe,j,1231.1794630999939,,,1231.1795061000012,None,,,1231.1890447000042,1231.1890447000042,1231.1890447000042,2.589143500008504,0.16760990000329912,,,,,,,,,,00044,001,2026-01-17_17h50.12.146,MST_task,2024.2.0,59.93385699587797,2026-01-17 17h50.54.713540 +0530,
,Objects\200a.jpg,134,0,135,,,,,,,j,None,,,2.288297400009469,0.20769679998920765,,,,135,0,134,1231.1890447000042,,,,,,,,,,,,,,,,,,,,,,,1231.179677799999,1231.1890447000042,1231.6896026000031,1231.6735052000004,,,,,,,,,,,,,,,,,,,,,,,,,,1231.6811492999987,1231.6896026000031,1231.6896026000031,1231.6896026000031,1234.6745263000048,shoe,j,1234.6746949999942,,,1234.6747319999995,None,,,1234.6893591999979,1234.6893591999979,1234.6893591999979,2.288297400009469,0.20769679998920765,,,,,,,,,,00044,001,2026-01-17_17h50.12.146,MST_task,2024.2.0,59.93385699587797,2026-01-17 17h50.54.713540 +0530,
,Objects\265a.jpg,135,0,136,,,,,,,j,None,,,1.5316960999916773,0.16851499999756925,,,,136,0,135,1234.6893591999979,,,,,,,,,,,,,,,,,,,,,,,1234.6750066999957,1234.6893591999979,1235.214407899999,1235.1739557999972,,,,,,,,,,,,,,,,,,,,,,,,,,1235.2100673999958,1235.214407899999,1235.214407899999,1235.214407899999,1238.1894283000001,shoe,j,1238.1895358000038,,,1238.1895746999944,None,,,,,,1.5316960999916773,0.16851499999756925,,,,,,,,,,00044,001,2026-01-17_17h50.12.146,MST_task,2024.2.0,59.93385699587797,2026-01-17 17h50.54.713540 +0530,
,Objects\040a.jpg,136,0,137,,,,,,,f,None,,,1.6803401999932248,0.19187629999942146,,,,137,0,136,1238.2059124999942,,,,,,,,,,,,,,,,,,,,,,,1238.1897637000075,1238.2059124999942,1238.7064028000023,1238.6903342000005,,,,,,,,,,,,,,,,,,,,,,,,,,1238.697476900008,1238.7064028000023,1238.7064028000023,1238.7064028000023,1241.6905796000065,shoe,f,1241.6906898000016,,,1241.6907259,None,,,1241.7057185000012,1241.7057185000012,1241.7057185000012,1.6803401999932248,0.19187629999942146,,,,,,,,,,00044,001,2026-01-17_17h50.12.146,MST_task,2024.2.0,59.93385699587797,2026-01-17 17h50.54.713540 +0530,
,Objects\335a.jpg,137,0,138,,,,,,,j,None,,,1.683023299992783,0.12783820000186097,,,,138,0,137,1241.7057185000012,,,,,,,,,,,,,,,,,,,,,,,1241.6908915999957,1241.7057185000012,1242.2066473000014,1242.1901050000015,,,,,,,,,,,,,,,,,,,,,,,,,,1242.1962997999944,1242.2066473000014,1242.2066473000014,1242.2066473000014,1245.1913956000062,shoe,j,1245.1915139000048,,,1245.191554799996,None,,,1245.2059493999986,1245.2059493999986,1245.2059493999986,1.683023299992783,0.12783820000186097,,,,,,,,,,00044,001,2026-01-17_17h50.12.146,MST_task,2024.2.0,59.93385699587797,2026-01-17 17h50.54.713540 +0530,
,Objects\206a.jpg,138,0,139,,,,,,,j,None,,,2.0492145999887725,0.16040770000836346,,,,139,0,138,1245.2059493999986,,,,,,,,,,,,,,,,,,,,,,,1245.191945700004,1245.2059493999986,1245.737099799997,1245.6898694999982,,,,,,,,,,,,,,,,,,,,,,,,,,1245.7332456000004,1245.737099799997,1245.737099799997,1245.737099799997,1248.706488099997,shoe,j,1248.706672900007,,,1248.706714,None,,,,,,2.0492145999887725,0.16040770000836346,,,,,,,,,,00044,001,2026-01-17_17h50.12.146,MST_task,2024.2.0,59.93385699587797,2026-01-17 17h50.54.713540 +0530,
,Objects\229a.jpg,139,0,140,,,,,,,f,None,,,1.2353207999985898,0.1837870000017574,,,,140,0,139,1248.7228620999958,,,,,,,,,,,,,,,,,,,,,,,1248.7069192000054,1248.7228620999958,1249.2230255000031,1249.2069341000024,,,,,,,,,,,,,,,,,,,,,,,,,,1249.2141556999995,1249.2230255000031,1249.2230255000031,1249.2230255000031,1252.2074552999984,shoe,f,1252.207617100008,,,1252.2076699000027,None,,,1252.222589900004,1252.222589900004,1252.222589900004,1.2353207999985898,0.1837870000017574,,,,,,,,,,00044,001,2026-01-17_17h50.12.146,MST_task,2024.2.0,59.93385699587797,2026-01-17 17h50.54.713540 +0530,
,Objects\346a.jpg,140,0,141,,,,,,,f,None,,,1.9816801999986637,0.11078289999568369,,,,141,0,140,1252.222589900004,,,,,,,,,,,,,,,,,,,,,,,1252.2079108000034,1252.222589900004,1252.7489395000011,1252.7070516999956,,,,,,,,,,,,,,,,,,,,,,,,,,1252.7455095000041,1252.7489395000011,1252.7489395000011,1252.7489395000011,1255.7230823999998,indoor,f,1255.7263507000025,,,1255.7263854000048,None,,,,,,1.9816801999986637,0.11078289999568369,,,,,,,,,,00044,001,2026-01-17_17h50.12.146,MST_task,2024.2.0,59.93385699587797,2026-01-17 17h50.54.713540 +0530,
,Objects\021a.jpg,141,0,142,,,,,,,f,None,,,2.4705685999942943,0.15113330000895076,,,,142,0,141,1255.7391365000076,,,,,,,,,,,,,,,,,,,,,,,1255.7265151000029,1255.7391365000076,1256.2679828999972,1256.2235443999962,,,,,,,,,,,,,,,,,,,,,,,,,,1256.2642169000028,1256.2679828999972,1256.2679828999972,1256.2679828999972,1259.2394926999987,indoor,f,1259.239672399999,,,1259.239737099997,None,,,,,,2.4705685999942943,0.15113330000895076,,,,,,,,,,00044,001,2026-01-17_17h50.12.146,MST_task,2024.2.0,59.93385699587797,2026-01-17 17h50.54.713540 +0530,
,Objects\249a.jpg,142,0,143,,,,,,,f,None,,,2.1816925999883097,0.14420670000254177,,,,143,0,142,1259.2557834000036,,,,,,,,,,,,,,,,,,,,,,,1259.239929400006,1259.2557834000036,1259.7560536999954,1259.740217700004,,,,,,,,,,,,,,,,,,,,,,,,,,1259.7487613999983,1259.7560536999954,1259.7560536999954,1259.7560536999954,1262.740938700008,indoor,f,1262.7411190999992,,,1262.7411751000036,None,,,1262.7561329000018,1262.7561329000018,1262.7561329000018,2.1816925999883097,0.14420670000254177,,,,,,,,,,00044,001,2026-01-17_17h50.12.146,MST_task,2024.2.0,59.93385699587797,2026-01-17 17h50.54.713540 +0530,
,Objects\374a.jpg,143,0,144,,,,,,,f,None,,,1.3223812000069302,0.16741690000344533,,,,144,0,143,1262.7561329000018,,,,,,,,,,,,,,,,,,,,,,,1262.7413730999979,1262.7561329000018,1263.2806932999956,1263.2402031999954,,,,,,,,,,,,,,,,,,,,,,,,,,1263.2768738000013,1263.2806932999956,1263.2806932999956,1263.2806932999956,1266.2560757000028,indoor,f,1266.2562428999954,,,1266.256283900002,None,,,,,,1.3223812000069302,0.16741690000344533,,,,,,,,,,00044,001,2026-01-17_17h50.12.146,MST_task,2024.2.0,59.93385699587797,2026-01-17 17h50.54.713540 +0530,
,Objects\086a.jpg,144,0,145,,,,,,,None,j,0.6368056000064826,None,,,,,,145,0,144,1266.2727381000004,,,,,,,,,,,,,,,,,,,,,,,1266.2564786000003,1266.2727381000004,1266.7733117000025,1266.7566903999978,,,,,,,,,,,,,,,,,,,,,,,,,,1266.7622239000048,1266.7733117000025,1266.7733117000025,1266.7733117000025,1269.7564640000055,indoor,None,1269.7565533000015,1269.7727022000036,1269.7727022000036,1270.4242471000034,j,0.6368056000064826,None,,,,,,,,,,,,,,,00044,001,2026-01-17_17h50.12.146,MST_task,2024.2.0,59.93385699587797,2026-01-17 17h50.54.713540 +0530,
,Objects\006a.jpg,145,0,146,,,,,,,None,f,2.262202599988086,None,,,,,,146,0,145,1270.4390868000046,,,,,,,,,,,,,,,,,,,,,,,1270.4246236000035,1270.4390868000046,1270.9397869999957,1270.923611300008,,,,,,,,,,,,,,,,,,,,,,,,,,1270.9291832000017,1270.9397869999957,1270.9397869999957,1270.9397869999957,1273.9242386999977,indoor,None,1273.9243959000014,1273.9391353999963,1273.9391353999963,1276.2077247999987,f,2.262202599988086,None,1273.9391353999963,1273.9391353999963,1273.9391353999963,,,,,,,,,,,,00044,001,2026-01-17_17h50.12.146,MST_task,2024.2.0,59.93385699587797,2026-01-17 17h50.54.713540 +0530,
,Objects\042a.jpg,146,0,147,,,,,,,j,None,,,1.2065594000014244,0.18411299999570474,,,,147,0,146,1276.2224438999983,,,,,,,,,,,,,,,,,,,,,,,1276.2080711000017,1276.2224438999983,1276.7230082000024,1276.7067839999945,,,,,,,,,,,,,,,,,,,,,,,,,,1276.712989199994,1276.7230082000024,1276.7230082000024,1276.7230082000024,1279.7075636000081,indoor,j,1279.7077544000058,,,1279.707820800002,None,,,1279.722536500005,1279.722536500005,1279.722536500005,1.2065594000014244,0.18411299999570474,,,,,,,,,,00044,001,2026-01-17_17h50.12.146,MST_task,2024.2.0,59.93385699587797,2026-01-17 17h50.54.713540 +0530,
,Objects\028a.jpg,147,0,148,,,,,,,j,None,,,1.8252970000030473,0.11223359999712557,,,,148,0,147,1279.722536500005,,,,,,,,,,,,,,,,,,,,,,,1279.708129999999,1279.722536500005,1280.2564887000044,1280.2070301000058,,,,,,,,,,,,,,,,,,,,,,,,,,1280.2532623000006,1280.2564887000044,1280.2564887000044,1280.2564887000044,1283.2228359,shoe,j,1283.228776799995,,,1283.228832199995,None,,,,,,1.8252970000030473,0.11223359999712557,,,,,,,,,,00044,001,2026-01-17_17h50.12.146,MST_task,2024.2.0,59.93385699587797,2026-01-17 17h50.54.713540 +0530,
,Objects\144a.jpg,148,0,149,,,,,,,None,j,0.7823517000069842,None,,,,,,149,0,148,1283.2392171999963,,,,,,,,,,,,,,,,,,,,,,,1283.2290897000057,1283.2392171999963,1283.7760191999987,1283.7238278000004,,,,,,,,,,,,,,,,,,,,,,,,,,1283.773319,1283.7760191999987,1283.7760191999987,1283.7760191999987,1286.7398171999957,shoe,None,1286.7399622999947,1286.7556377,1286.7556377,1287.5405941000063,j,0.7823517000069842,None,,,,,,,,,,,,,,,00044,001,2026-01-17_17h50.12.146,MST_task,2024.2.0,59.93385699587797,2026-01-17 17h50.54.713540 +0530,
,Objects\102a.jpg,149,0,150,,,,,,,f,None,,,2.6264632000093115,0.18454829999245703,,,,150,0,149,1287.5560538999998,,,,,,,,,,,,,,,,,,,,,,,1287.5409166000027,1287.5560538999998,1288.056109199999,1288.040036300008,,,,,,,,,,,,,,,,,,,,,,,,,,1288.0459239000047,1288.056109199999,1288.056109199999,1288.056109199999,1291.041161999994,shoe,f,1291.0413071999938,,,1291.0413522000017,None,,,1291.0559266000055,1291.0559266000055,1291.0559266000055,2.6264632000093115,0.18454829999245703,,,,,,,,,,00044,001,2026-01-17_17h50.12.146,MST_task,2024.2.0,59.93385699587797,2026-01-17 17h50.54.713540 +0530,
,Objects\062a.jpg,150,0,151,,,,,,,None,j,0.2135724000108894,None,,,,,,151,0,150,1291.0559266000055,,,,,,,,,,,,,,,,,,,,,,,1291.0415856000036,1291.0559266000055,1291.5833414999943,1291.540175400005,,,,,,,,,,,,,,,,,,,,,,,,,,1291.5802635,1291.5833414999943,1291.5833414999943,1291.5833414999943,1294.5562306000065,shoe,None,1294.5563856999943,1294.5723628999986,1294.5723628999986,1294.7905444000062,j,0.2135724000108894,None,,,,,,,,,,,,,,,00044,001,2026-01-17_17h50.12.146,MST_task,2024.2.0,59.93385699587797,2026-01-17 17h50.54.713540 +0530,
,Objects\075a.jpg,151,0,152,,,,,,,f,None,,,1.2314933000016026,0.1908446999877924,,,,152,0,151,1294.8058791000076,,,,,,,,,,,,,,,,,,,,,,,1294.7907788000011,1294.8058791000076,1295.3068996999937,1295.2907187999954,,,,,,,,,,,,,,,,,,,,,,,,,,1295.2965388000011,1295.3068996999937,1295.3068996999937,1295.3068996999937,1298.3062226000038,shoe,f,1298.3063772000023,,,1298.3064283999993,None,,,,,,1.2314933000016026,0.1908446999877924,,,,,,,,,,00044,001,2026-01-17_17h50.12.146,MST_task,2024.2.0,59.93385699587797,2026-01-17 17h50.54.713540 +0530,
,Objects\099a.jpg,152,0,153,,,,,,,j,None,,,1.6509810999996262,0.16772040000068955,,,,153,0,152,1298.3223684999975,,,,,,,,,,,,,,,,,,,,,,,1298.3067581000068,1298.3223684999975,1298.822620699997,1298.8070155000023,,,,,,,,,,,,,,,,,,,,,,,,,,1298.8137583000062,1298.822620699997,1298.822620699997,1298.822620699997,1301.8075779000064,shoe,j,1301.807771599997,,,1301.8078307999967,None,,,1301.8223029000073,1301.8223029000073,1301.8223029000073,1.6509810999996262,0.16772040000068955,,,,,,,,,,00044,001,2026-01-17_17h50.12.146,MST_task,2024.2.0,59.93385699587797,2026-01-17 17h50.54.713540 +0530,
,Objects\254a.jpg,153,0,154,,,,,,,j,None,,,1.6238903000048595,0.1759474999998929,,,,154,0,153,1301.8223029000073,,,,,,,,,,,,,,,,,,,,,,,1301.8080581999966,1301.8223029000073,1302.3226728000009,1302.306869699998,,,,,,,,,,,,,,,,,,,,,,,,,,1302.316989400002,1302.3226728000009,1302.3226728000009,1302.3226728000009,1305.3077345000056,shoe,j,1305.3078967000038,,,1305.3079299999954,None,,,1305.322723899997,1305.322723899997,1305.322723899997,1.6238903000048595,0.1759474999998929,,,,,,,,,,00044,001,2026-01-17_17h50.12.146,MST_task,2024.2.0,59.93385699587797,2026-01-17 17h50.54.713540 +0530,
,Objects\037a.jpg,154,0,155,,,,,,,None,f,0.19529940000211354,None,,,,,,155,0,154,1305.322723899997,,,,,,,,,,,,,,,,,,,,,,,1305.3081620000012,1305.322723899997,1305.8228700000036,1305.8069245000079,,,,,,,,,,,,,,,,,,,,,,,,,,1305.8181806000066,1305.8228700000036,1305.8228700000036,1305.8228700000036,1308.8073182999942,indoor,None,1308.8104515000014,1308.8225059999968,1308.8225059999968,1309.0240119999944,f,0.19529940000211354,None,1308.8225059999968,1308.8225059999968,1308.8225059999968,,,,,,,,,,,,00044,001,2026-01-17_17h50.12.146,MST_task,2024.2.0,59.93385699587797,2026-01-17 17h50.54.713540 +0530,
,Objects\353a.jpg,155,0,156,,,,,,,f,None,,,1.326576000006753,0.17512810000334866,,,,156,0,155,1309.0395033999957,,,,,,,,,,,,,,,,,,,,,,,1309.024330900007,1309.0395033999957,1309.5402085999958,1309.5235052000062,,,,,,,,,,,,,,,,,,,,,,,,,,1309.5293134999956,1309.5402085999958,1309.5402085999958,1309.5402085999958,1312.5241322999937,indoor,f,1312.5243173000054,,,1312.5243790999957,None,,,1312.539266199994,1312.539266199994,1312.539266199994,1.326576000006753,0.17512810000334866,,,,,,,,,,00044,001,2026-01-17_17h50.12.146,MST_task,2024.2.0,59.93385699587797,2026-01-17 17h50.54.713540 +0530,
,Objects\080a.jpg,156,0,157,,,,,,,f,None,,,1.2340442000131588,0.1435773999983212,,,,157,0,156,1312.539266199994,,,,,,,,,,,,,,,,,,,,,,,1312.5245703999972,1312.539266199994,1313.0400594999956,1313.0236398999987,,,,,,,,,,,,,,,,,,,,,,,,,,1313.0299415000045,1313.0400594999956,1313.0400594999956,1313.0400594999956,1316.0244375000038,indoor,f,1316.0245827000035,,,1316.0246356999996,None,,,1316.0398264999967,1316.0398264999967,1316.0398264999967,1.2340442000131588,0.1435773999983212,,,,,,,,,,00044,001,2026-01-17_17h50.12.146,MST_task,2024.2.0,59.93385699587797,2026-01-17 17h50.54.713540 +0530,
,Objects\088a.jpg,157,0,158,,,,,,,f,None,,,1.3909474999964004,0.19095760000345763,,,,158,0,157,1316.0398264999967,,,,,,,,,,,,,,,,,,,,,,,1316.0248415999959,1316.0398264999967,1316.539992799997,1316.523449500004,,,,,,,,,,,,,,,,,,,,,,,,,,1316.529469400004,1316.539992799997,1316.539992799997,1316.539992799997,1319.5242056999996,indoor,f,1319.5243819000025,,,1319.5244542,None,,,1319.539087600002,1319.539087600002,1319.539087600002,1.3909474999964004,0.19095760000345763,,,,,,,,,,00044,001,2026-01-17_17h50.12.146,MST_task,2024.2.0,59.93385699587797,2026-01-17 17h50.54.713540 +0530,
,Objects\336a.jpg,158,0,159,,,,,,,f,None,,,2.065553299995372,0.17637410000315867,,,,159,0,158,1319.539087600002,,,,,,,,,,,,,,,,,,,,,,,1319.5247077999957,1319.539087600002,1320.0402332999947,1320.0240792999975,,,,,,,,,,,,,,,,,,,,,,,,,,1320.032059300007,1320.0402332999947,1320.0402332999947,1320.0402332999947,1323.0245116000006,indoor,f,1323.024687600002,,,1323.0247538999974,None,,,1323.039003400001,1323.039003400001,1323.039003400001,2.065553299995372,0.17637410000315867,,,,,,,,,,00044,001,2026-01-17_17h50.12.146,MST_task,2024.2.0,59.93385699587797,2026-01-17 17h50.54.713540 +0530,
,Objects\202a.jpg,159,0,160,,,,,,,j,None,,,1.1581479000014951,0.12015839999367017,,,,160,0,159,1323.039003400001,,,,,,,,,,,,,,,,,,,,,,,1323.0250308999966,1323.039003400001,1323.5403007999994,1323.523884299997,,,,,,,,,,,,,,,,,,,,,,,,,,1323.5299592999945,1323.5403007999994,1323.5403007999994,1323.5403007999994,1326.5395137000014,indoor,j,1326.5396991000016,,,1326.5397668000078,None,,,,,,1.1581479000014951,0.12015839999367017,,,,,,,,,,00044,001,2026-01-17_17h50.12.146,MST_task,2024.2.0,59.93385699587797,2026-01-17 17h50.54.713540 +0530,
,Objects\059a.jpg,160,0,161,,,,,,,None,f,2.114135100011481,None,,,,,,161,0,160,1326.5557542000024,,,,,,,,,,,,,,,,,,,,,,,1326.5401730000012,1326.5557542000024,1327.0562965999998,1327.0402081000066,,,,,,,,,,,,,,,,,,,,,,,,,,1327.047831200005,1327.0562965999998,1327.0562965999998,1327.0562965999998,1330.0409561999986,indoor,None,1330.0411050999974,1330.0559625000024,1330.0559625000024,1332.1739404999971,f,2.114135100011481,None,1330.0559625000024,1330.0559625000024,1330.0559625000024,,,,,,,,,,,,00044,001,2026-01-17_17h50.12.146,MST_task,2024.2.0,59.93385699587797,2026-01-17 17h50.54.713540 +0530,
,Objects\030a.jpg,161,0,162,,,,,,,f,None,,,1.5522350999963237,0.18384230000083335,,,,162,0,161,1332.1890659000055,,,,,,,,,,,,,,,,,,,,,,,1332.1741735999967,1332.1890659000055,1332.6895392000006,1332.6731988999964,,,,,,,,,,,,,,,,,,,,,,,,,,1332.6832733000047,1332.6895392000006,1332.6895392000006,1332.6895392000006,1335.6742672999972,shoe,f,1335.6783982000052,,,1335.6784264000016,None,,,1335.6890393000067,1335.6890393000067,1335.6890393000067,1.5522350999963237,0.18384230000083335,,,,,,,,,,00044,001,2026-01-17_17h50.12.146,MST_task,2024.2.0,59.93385699587797,2026-01-17 17h50.54.713540 +0530,
