thisN,thisTrialN,thisRepN,key_resp_3.keys,key_resp_3.rt,key_resp_3.duration,trials.thisRepN,trials.thisTrialN,trials.thisN,thisRow.t,notes,intro_page.started,text.started,key_resp.started,intro_page.stopped,key_resp.keys,key_resp.rt,key_resp.duration,instructions.started,text_2.started,key_resp_2.started,instructions.stopped,key_resp_2.keys,key_resp_2.rt,key_resp_2.duration,demo1.started,image_1.started,image_2.started,text_7.started,key_resp_6.started,text_9.started,demo1.stopped,key_resp_6.keys,key_resp_6.rt,key_resp_6.duration,demo3.started,image_5.started,image_6.started,text_11.started,text_12.started,key_resp_8.started,demo3.stopped,key_resp_8.keys,key_resp_8.rt,key_resp_8.duration,demo_conclusion.started,text_13.started,key_resp_9.started,demo_conclusion.stopped,key_resp_9.keys,key_resp_9.rt,key_resp_9.duration,start_test.started,text_6.started,key_resp_5.started,start_test.stopped,key_resp_5.keys,key_resp_5.rt,key_resp_5.duration,ISI.started,text_4.started,text_4.stopped,ISI.stopped,routine_1.started,image.started,text_3.started,key_resp_3.started,routine_1.stopped,image_path,position_of_stimuli,trials.key_resp_3.keys,trials.key_resp_3.rt,trials.key_resp_3.duration,End_page.started,text_5.started,key_resp_4.started,End_page.stopped,key_resp_4.keys,key_resp_4.rt,key_resp_4.duration,participant,session,date,expName,psychopyVersion,frameRate,expStart,
,,,,,,,,,,,0.0012805000296793878,0.003015000023879111,0.003015000023879111,4.451072500029113,space,4.430613499949686,None,,,,,,,,,,,,,,,,,,,,,,,,,,,,,,,,,,,,,,,,,,,,,,,,,,,,,,,,,,,,,,,00046,001,2026-01-18_11h48.54.013,MST_test,2024.2.0,59.976920879665514,2026-01-18 11h49.04.893250 +0530,
,,,,,,,,,,,,,,,,,,4.451106399996206,4.46557689999463,4.46557689999463,27.232399100030307,space,22.7603369000135,None,,,,,,,,,,,,,,,,,,,,,,,,,,,,,,,,,,,,,,,,,,,,,,,,,,,,,,,,00046,001,2026-01-18_11h48.54.013,MST_test,2024.2.0,59.976920879665514,2026-01-18 11h49.04.893250 +0530,
,,,,,,,,,,,,,,,,,,,,,,,,,27.232426100003067,27.249360000016168,27.249360000016168,27.249360000016168,27.249360000016168,27.249360000016168,37.56613130000187,space,10.313109899987467,None,,,,,,,,,,,,,,,,,,,,,,,,,,,,,,,,,,,,,,,,,,,,,,00046,001,2026-01-18_11h48.54.013,MST_test,2024.2.0,59.976920879665514,2026-01-18 11h49.04.893250 +0530,
,,,,,,,,,,,,,,,,,,,,,,,,,,,,,,,,,,,37.56616079999367,37.582501100027,37.582501100027,37.582501100027,37.582501100027,37.582501100027,42.24946020002244,space,4.659310000017285,None,,,,,,,,,,,,,,,,,,,,,,,,,,,,,,,,,,,,00046,001,2026-01-18_11h48.54.013,MST_test,2024.2.0,59.976920879665514,2026-01-18 11h49.04.893250 +0530,
,,,,,,,,,,,,,,,,,,,,,,,,,,,,,,,,,,,,,,,,,,,,,42.24949070002185,42.2655347000109,42.2655347000109,162.03256339998916,space,119.76000750000821,None,,,,,,,,,,,,,,,,,,,,,,,,,,,,,00046,001,2026-01-18_11h48.54.013,MST_test,2024.2.0,59.976920879665514,2026-01-18 11h49.04.893250 +0530,
,,,,,,,,,,,,,,,,,,,,,,,,,,,,,,,,,,,,,,,,,,,,,,,,,,,,162.03259740001522,162.05597009998746,162.05597009998746,188.632694000029,space,26.5701895999955,None,,,,,,,,,,,,,,,,,,,,,,00046,001,2026-01-18_11h48.54.013,MST_test,2024.2.0,59.976920879665514,2026-01-18 11h49.04.893250 +0530,
0,0,1,o,7.06046799995238,None,1,0,0,188.64880169997923,,,,,,,,,,,,,,,,,,,,,,,,,,,,,,,,,,,,,,,,,,,,,,,,,,188.63646310003242,188.64880169997923,189.14892499998678,189.13252759998431,189.14307649998227,189.14892499998678,189.14892499998678,189.14892499998678,196.2163048000075,Objects\108a.jpg,mid,o,7.06046799995238,None,,,,,,,,00046,001,2026-01-18_11h48.54.013,MST_test,2024.2.0,59.976920879665514,2026-01-18 11h49.04.893250 +0530,
1,0,2,o,1.9255076000117697,None,2,0,1,196.23222230002284,,,,,,,,,,,,,,,,,,,,,,,,,,,,,,,,,,,,,,,,,,,,,,,,,,196.21639710001182,196.23222230002284,196.7325673000305,196.71582270000363,196.71959029999562,196.7325673000305,196.7325673000305,196.7325673000305,198.6661542999791,Objects\260a.jpg,mid,o,1.9255076000117697,None,,,,,,,,00046,001,2026-01-18_11h48.54.013,MST_test,2024.2.0,59.976920879665514,2026-01-18 11h49.04.893250 +0530,
2,0,3,n,2.4993549999780953,None,3,0,2,198.68231920001563,,,,,,,,,,,,,,,,,,,,,,,,,,,,,,,,,,,,,,,,,,,,,,,,,,198.66624390002107,198.68231920001563,199.1827462000074,199.16584089997923,199.17232980002882,199.1827462000074,199.1827462000074,199.1827462000074,201.68283449998125,Foils\066a.jpg,none,n,2.4993549999780953,None,,,,,,,,00046,001,2026-01-18_11h48.54.013,MST_test,2024.2.0,59.976920879665514,2026-01-18 11h49.04.893250 +0530,
3,0,4,s,5.146513700019568,None,4,0,3,201.6989558999776,,,,,,,,,,,,,,,,,,,,,,,,,,,,,,,,,,,,,,,,,,,,,,,,,,201.6829291000031,201.6989558999776,202.19914909999352,202.1824524999829,202.19328419998055,202.19914909999352,202.19914909999352,202.19914909999352,207.3495278999908,Objects\275b.jpg,mid,s,5.146513700019568,None,,,,,,,,00046,001,2026-01-18_11h48.54.013,MST_test,2024.2.0,59.976920879665514,2026-01-18 11h49.04.893250 +0530,
4,0,5,s,1.6557005000067875,None,5,0,4,207.36564949998865,,,,,,,,,,,,,,,,,,,,,,,,,,,,,,,,,,,,,,,,,,,,,,,,,,207.34963310003513,207.36564949998865,207.86612900003092,207.84922450000886,207.85908439999912,207.86612900003092,207.86612900003092,207.86612900003092,209.53282090002904,Objects\193b.jpg,mid,s,1.6557005000067875,None,,,,,,,,00046,001,2026-01-18_11h48.54.013,MST_test,2024.2.0,59.976920879665514,2026-01-18 11h49.04.893250 +0530,
5,0,6,s,5.111928700003773,None,6,0,5,209.54901499999687,,,,,,,,,,,,,,,,,,,,,,,,,,,,,,,,,,,,,,,,,,,,,,,,,,209.532918300014,209.54901499999687,210.04937890003202,210.03246620000573,210.04321700002765,210.04937890003202,210.04937890003202,210.04937890003202,215.16633059998276,Objects\374b.jpg,post,s,5.111928700003773,None,,,,,,,,00046,001,2026-01-18_11h48.54.013,MST_test,2024.2.0,59.976920879665514,2026-01-18 11h49.04.893250 +0530,
6,0,7,s,1.7273086000350304,None,7,0,6,215.18219620001037,,,,,,,,,,,,,,,,,,,,,,,,,,,,,,,,,,,,,,,,,,,,,,,,,,215.1664238999947,215.18219620001037,215.68269099999452,215.6658569999854,215.669017600012,215.68269099999452,215.68269099999452,215.68269099999452,217.4162335000001,Objects\064a.jpg,mid,s,1.7273086000350304,None,,,,,,,,00046,001,2026-01-18_11h48.54.013,MST_test,2024.2.0,59.976920879665514,2026-01-18 11h49.04.893250 +0530,
7,0,8,s,3.15695669996785,None,8,0,7,217.43231780000497,,,,,,,,,,,,,,,,,,,,,,,,,,,,,,,,,,,,,,,,,,,,,,,,,,217.41632459999528,217.43231780000497,217.9324352000258,217.91599529999075,217.9185594000155,217.9324352000258,217.9324352000258,217.9324352000258,221.0995294000022,Foils\049a.jpg,none,s,3.15695669996785,None,,,,,,,,00046,001,2026-01-18_11h48.54.013,MST_test,2024.2.0,59.976920879665514,2026-01-18 11h49.04.893250 +0530,
8,0,9,s,1.6416888000094332,None,9,0,8,221.1156040999922,,,,,,,,,,,,,,,,,,,,,,,,,,,,,,,,,,,,,,,,,,,,,,,,,,221.09962160000578,221.1156040999922,221.6158204000094,221.59903689997736,221.60985379997874,221.6158204000094,221.6158204000094,221.6158204000094,223.2661642000312,Objects\369b.jpg,mid,s,1.6416888000094332,None,,,,,,,,00046,001,2026-01-18_11h48.54.013,MST_test,2024.2.0,59.976920879665514,2026-01-18 11h49.04.893250 +0530,
9,0,10,s,2.147868699976243,None,10,0,9,223.2823294000118,,,,,,,,,,,,,,,,,,,,,,,,,,,,,,,,,,,,,,,,,,,,,,,,,,223.26625490002334,223.2823294000118,223.78230309998617,223.76581270003226,223.77554030000465,223.78230309998617,223.78230309998617,223.78230309998617,225.93278440000722,Objects\129b.jpg,pre,s,2.147868699976243,None,,,,,,,,00046,001,2026-01-18_11h48.54.013,MST_test,2024.2.0,59.976920879665514,2026-01-18 11h49.04.893250 +0530,
10,0,11,o,3.20194309996441,None,11,0,10,225.94898029998876,,,,,,,,,,,,,,,,,,,,,,,,,,,,,,,,,,,,,,,,,,,,,,,,,,225.93287459999556,225.94898029998876,226.44917779997922,226.43260240001837,226.4350071999943,226.44917779997922,226.44917779997922,226.44917779997922,229.66620769997826,Objects\065a.jpg,post,o,3.20194309996441,None,,,,,,,,00046,001,2026-01-18_11h48.54.013,MST_test,2024.2.0,59.976920879665514,2026-01-18 11h49.04.893250 +0530,
11,0,12,o,2.6749057000270113,None,12,0,11,229.68222220003372,,,,,,,,,,,,,,,,,,,,,,,,,,,,,,,,,,,,,,,,,,,,,,,,,,229.66629810002632,229.68222220003372,230.182415999996,230.16584969998803,230.17553760000737,230.182415999996,230.182415999996,230.182415999996,232.8662009999971,Objects\153b.jpg,post,o,2.6749057000270113,None,,,,,,,,00046,001,2026-01-18_11h48.54.013,MST_test,2024.2.0,59.976920879665514,2026-01-18 11h49.04.893250 +0530,
12,0,13,s,3.0196699999505654,None,13,0,12,232.88233160000527,,,,,,,,,,,,,,,,,,,,,,,,,,,,,,,,,,,,,,,,,,,,,,,,,,232.86640450003324,232.88233160000527,233.38238179998007,233.36573180003325,233.3687355000293,233.38238179998007,233.38238179998007,233.38238179998007,236.4161405999912,Foils\009a.jpg,none,s,3.0196699999505654,None,,,,,,,,00046,001,2026-01-18_11h48.54.013,MST_test,2024.2.0,59.976920879665514,2026-01-18 11h49.04.893250 +0530,
13,0,14,s,4.957412899995688,None,14,0,13,236.4322140000295,,,,,,,,,,,,,,,,,,,,,,,,,,,,,,,,,,,,,,,,,,,,,,,,,,236.41623750003055,236.4322140000295,236.93239390000235,236.91589760000352,236.92533460003324,236.93239390000235,236.93239390000235,236.93239390000235,241.8995750999893,Objects\121b.jpg,post,s,4.957412899995688,None,,,,,,,,00046,001,2026-01-18_11h48.54.013,MST_test,2024.2.0,59.976920879665514,2026-01-18 11h49.04.893250 +0530,
14,0,15,o,6.435113699990325,None,15,0,14,241.91563930001575,,,,,,,,,,,,,,,,,,,,,,,,,,,,,,,,,,,,,,,,,,,,,,,,,,241.89966679998906,241.91563930001575,242.41601179999998,242.39919999998529,242.40213850000873,242.41601179999998,242.41601179999998,242.41601179999998,248.86622299999,Objects\321a.jpg,post,o,6.435113699990325,None,,,,,,,,00046,001,2026-01-18_11h48.54.013,MST_test,2024.2.0,59.976920879665514,2026-01-18 11h49.04.893250 +0530,
15,0,16,s,5.02727139997296,None,16,0,15,248.8822327000089,,,,,,,,,,,,,,,,,,,,,,,,,,,,,,,,,,,,,,,,,,,,,,,,,,248.86631339997984,248.8822327000089,249.38285400002496,249.36609810002847,249.37615919997916,249.38285400002496,249.38285400002496,249.38285400002496,254.416126600001,Objects\076b.jpg,post,s,5.02727139997296,None,,,,,,,,00046,001,2026-01-18_11h48.54.013,MST_test,2024.2.0,59.976920879665514,2026-01-18 11h49.04.893250 +0530,
16,0,17,o,3.301871699979529,None,17,0,16,254.43202529998962,,,,,,,,,,,,,,,,,,,,,,,,,,,,,,,,,,,,,,,,,,,,,,,,,,254.4162143000285,254.43202529998962,254.93219449999742,254.91578189999564,254.92552089999663,254.93219449999742,254.93219449999742,254.93219449999742,258.24936210003216,Objects\049b.jpg,post,o,3.301871699979529,None,,,,,,,,00046,001,2026-01-18_11h48.54.013,MST_test,2024.2.0,59.976920879665514,2026-01-18 11h49.04.893250 +0530,
17,0,18,o,4.2602238999679685,None,18,0,17,258.2655162999872,,,,,,,,,,,,,,,,,,,,,,,,,,,,,,,,,,,,,,,,,,,,,,,,,,258.24945140001364,258.2655162999872,258.7657251000055,258.74919160001446,258.7594679000322,258.7657251000055,258.7657251000055,258.7657251000055,263.03281439997954,Objects\124b.jpg,mid,o,4.2602238999679685,None,,,,,,,,00046,001,2026-01-18_11h48.54.013,MST_test,2024.2.0,59.976920879665514,2026-01-18 11h49.04.893250 +0530,
18,0,19,n,2.5325314000365324,None,19,0,18,263.0488788000075,,,,,,,,,,,,,,,,,,,,,,,,,,,,,,,,,,,,,,,,,,,,,,,,,,263.03290829999605,263.0488788000075,263.5490320000099,263.5323575999937,263.5353471999988,263.5490320000099,263.5490320000099,263.5490320000099,266.08279770001536,Foils\057a.jpg,none,n,2.5325314000365324,None,,,,,,,,00046,001,2026-01-18_11h48.54.013,MST_test,2024.2.0,59.976920879665514,2026-01-18 11h49.04.893250 +0530,
19,0,20,o,3.5785935999592766,None,20,0,19,266.09883380000247,,,,,,,,,,,,,,,,,,,,,,,,,,,,,,,,,,,,,,,,,,,,,,,,,,266.0828879000037,266.09883380000247,266.5993458000012,266.5824025000329,266.5930676999851,266.5993458000012,266.5993458000012,266.5993458000012,270.1826516999863,Objects\288b.jpg,post,o,3.5785935999592766,None,,,,,,,,00046,001,2026-01-18_11h48.54.013,MST_test,2024.2.0,59.976920879665514,2026-01-18 11h49.04.893250 +0530,
20,0,21,n,5.606676800001878,None,21,0,20,270.1988708000281,,,,,,,,,,,,,,,,,,,,,,,,,,,,,,,,,,,,,,,,,,,,,,,,,,270.1827408000245,270.1988708000281,270.6993103999994,270.6826479000156,270.686175299983,270.6993103999994,270.6993103999994,270.6993103999994,276.31610809999984,Foils\086a.jpg,none,n,5.606676800001878,None,,,,,,,,00046,001,2026-01-18_11h48.54.013,MST_test,2024.2.0,59.976920879665514,2026-01-18 11h49.04.893250 +0530,
21,0,22,s,4.289962199982256,None,22,0,21,276.3320539999986,,,,,,,,,,,,,,,,,,,,,,,,,,,,,,,,,,,,,,,,,,,,,,,,,,276.31619990000036,276.3320539999986,276.8322810999816,276.81587829999626,276.8276360000018,276.8322810999816,276.8322810999816,276.8322810999816,281.1325996000087,Objects\159b.jpg,mid,s,4.289962199982256,None,,,,,,,,00046,001,2026-01-18_11h48.54.013,MST_test,2024.2.0,59.976920879665514,2026-01-18 11h49.04.893250 +0530,
22,0,23,o,2.048182700003963,None,23,0,22,281.14887149998685,,,,,,,,,,,,,,,,,,,,,,,,,,,,,,,,,,,,,,,,,,,,,,,,,,281.13268789998256,281.14887149998685,281.649399499991,281.63242249999894,281.64263720001327,281.649399499991,281.649399499991,281.649399499991,283.69953300000634,Objects\200b.jpg,pre,o,2.048182700003963,None,,,,,,,,00046,001,2026-01-18_11h48.54.013,MST_test,2024.2.0,59.976920879665514,2026-01-18 11h49.04.893250 +0530,
23,0,24,o,2.3541265999665484,None,24,0,23,283.7155472000013,,,,,,,,,,,,,,,,,,,,,,,,,,,,,,,,,,,,,,,,,,,,,,,,,,283.69962720002513,283.7155472000013,284.2159186999779,284.1991536000278,284.20262170000933,284.2159186999779,284.2159186999779,284.2159186999779,286.58278840000276,Objects\098a.jpg,post,o,2.3541265999665484,None,,,,,,,,00046,001,2026-01-18_11h48.54.013,MST_test,2024.2.0,59.976920879665514,2026-01-18 11h49.04.893250 +0530,
24,0,25,o,1.7344785999739543,None,25,0,24,286.59889229998225,,,,,,,,,,,,,,,,,,,,,,,,,,,,,,,,,,,,,,,,,,,,,,,,,,286.5828827000223,286.59889229998225,287.09910110000055,287.0823683000053,287.0918676999863,287.09910110000055,287.09910110000055,287.09910110000055,288.8494872000301,Objects\112b.jpg,post,o,1.7344785999739543,None,,,,,,,,00046,001,2026-01-18_11h48.54.013,MST_test,2024.2.0,59.976920879665514,2026-01-18 11h49.04.893250 +0530,
25,0,26,s,4.7968996000126936,None,26,0,25,288.86561380000785,,,,,,,,,,,,,,,,,,,,,,,,,,,,,,,,,,,,,,,,,,,,,,,,,,288.8495891999919,288.86561380000785,289.36576080002123,289.3491607999895,289.35861759999534,289.36576080002123,289.36576080002123,289.36576080002123,294.1662000999786,Objects\037b.jpg,pre,s,4.7968996000126936,None,,,,,,,,00046,001,2026-01-18_11h48.54.013,MST_test,2024.2.0,59.976920879665514,2026-01-18 11h49.04.893250 +0530,
26,0,27,s,3.4556597999762744,None,27,0,26,294.18218200001866,,,,,,,,,,,,,,,,,,,,,,,,,,,,,,,,,,,,,,,,,,,,,,,,,,294.1662941999966,294.18218200001866,294.68225579999853,294.6657766000135,294.6759132000152,294.68225579999853,294.68225579999853,294.68225579999853,298.1497340000351,Foils\042a.jpg,none,s,3.4556597999762744,None,,,,,,,,00046,001,2026-01-18_11h48.54.013,MST_test,2024.2.0,59.976920879665514,2026-01-18 11h49.04.893250 +0530,
27,0,28,n,16.576901499996893,None,28,0,27,298.1655521999928,,,,,,,,,,,,,,,,,,,,,,,,,,,,,,,,,,,,,,,,,,,,,,,,,,298.149826799985,298.1655521999928,298.6657412999775,298.64916570001515,298.65169500000775,298.6657412999775,298.6657412999775,298.6657412999775,315.2497005999903,Foils\018a.jpg,none,n,16.576901499996893,None,,,,,,,,00046,001,2026-01-18_11h48.54.013,MST_test,2024.2.0,59.976920879665514,2026-01-18 11h49.04.893250 +0530,
28,0,29,s,2.1235714000067674,None,29,0,28,315.2656032000086,,,,,,,,,,,,,,,,,,,,,,,,,,,,,,,,,,,,,,,,,,,,,,,,,,315.24979760003043,315.2656032000086,315.766012099979,315.74931300000753,315.7525067999959,315.766012099979,315.766012099979,315.766012099979,317.8996563000255,Objects\293a.jpg,post,s,2.1235714000067674,None,,,,,,,,00046,001,2026-01-18_11h48.54.013,MST_test,2024.2.0,59.976920879665514,2026-01-18 11h49.04.893250 +0530,
29,0,30,s,2.354021899984218,None,30,0,29,317.9156194999814,,,,,,,,,,,,,,,,,,,,,,,,,,,,,,,,,,,,,,,,,,,,,,,,,,317.89974840002833,317.9156194999814,318.41611360001843,318.3992507000221,318.41037549998146,318.41611360001843,318.41611360001843,318.41611360001843,320.78272070002276,Objects\105b.jpg,pre,s,2.354021899984218,None,,,,,,,,00046,001,2026-01-18_11h48.54.013,MST_test,2024.2.0,59.976920879665514,2026-01-18 11h49.04.893250 +0530,
30,0,31,o,1.6859518999699503,None,31,0,30,320.7989923999994,,,,,,,,,,,,,,,,,,,,,,,,,,,,,,,,,,,,,,,,,,,,,,,,,,320.7828106000088,320.7989923999994,321.29940369998803,321.2824403999839,321.2850640999968,321.29940369998803,321.29940369998803,321.29940369998803,322.99963089998346,Objects\277a.jpg,pre,o,1.6859518999699503,None,,,,,,,,00046,001,2026-01-18_11h48.54.013,MST_test,2024.2.0,59.976920879665514,2026-01-18 11h49.04.893250 +0530,
31,0,32,o,3.9265186000266112,None,32,0,31,323.0156481000013,,,,,,,,,,,,,,,,,,,,,,,,,,,,,,,,,,,,,,,,,,,,,,,,,,322.9997208000277,323.0156481000013,323.5160010000109,323.4991698000231,323.5022952000145,323.5160010000109,323.5160010000109,323.5160010000109,327.44972030003555,Objects\135a.jpg,post,o,3.9265186000266112,None,,,,,,,,00046,001,2026-01-18_11h48.54.013,MST_test,2024.2.0,59.976920879665514,2026-01-18 11h49.04.893250 +0530,
32,0,33,o,1.5801364000071771,None,33,0,32,327.4658644000301,,,,,,,,,,,,,,,,,,,,,,,,,,,,,,,,,,,,,,,,,,,,,,,,,,327.4498151000007,327.4658644000301,327.96588530001463,327.94927219999954,327.9590659000096,327.96588530001463,327.96588530001463,327.96588530001463,329.54951979999896,Objects\103b.jpg,mid,o,1.5801364000071771,None,,,,,,,,00046,001,2026-01-18_11h48.54.013,MST_test,2024.2.0,59.976920879665514,2026-01-18 11h49.04.893250 +0530,
33,0,34,n,4.999568699975498,None,34,0,33,329.56569540000055,,,,,,,,,,,,,,,,,,,,,,,,,,,,,,,,,,,,,,,,,,,,,,,,,,329.5496104999911,329.56569540000055,330.0659592000302,330.04916250001406,330.05165410001064,330.0659592000302,330.0659592000302,330.0659592000302,335.0662311000051,Foils\074a.jpg,none,n,4.999568699975498,None,,,,,,,,00046,001,2026-01-18_11h48.54.013,MST_test,2024.2.0,59.976920879665514,2026-01-18 11h49.04.893250 +0530,
34,0,35,o,1.4756674999953248,None,35,0,34,335.0823710000259,,,,,,,,,,,,,,,,,,,,,,,,,,,,,,,,,,,,,,,,,,,,,,,,,,335.0663207999896,335.0823710000259,335.58250050002243,335.5659253000049,335.56887230003485,335.58250050002243,335.58250050002243,335.58250050002243,337.0663050999865,Objects\127a.jpg,pre,o,1.4756674999953248,None,,,,,,,,00046,001,2026-01-18_11h48.54.013,MST_test,2024.2.0,59.976920879665514,2026-01-18 11h49.04.893250 +0530,
35,0,36,s,4.714561100001447,None,36,0,35,337.08232320001116,,,,,,,,,,,,,,,,,,,,,,,,,,,,,,,,,,,,,,,,,,,,,,,,,,337.06640200002585,337.08232320001116,337.5829926999868,337.5661173000117,337.5795025000116,337.5829926999868,337.5829926999868,337.5829926999868,342.2995801999932,Objects\296b.jpg,post,s,4.714561100001447,None,,,,,,,,00046,001,2026-01-18_11h48.54.013,MST_test,2024.2.0,59.976920879665514,2026-01-18 11h49.04.893250 +0530,
36,0,37,s,3.2501778000150807,None,37,0,36,342.3156296000234,,,,,,,,,,,,,,,,,,,,,,,,,,,,,,,,,,,,,,,,,,,,,,,,,,342.2996785999858,342.3156296000234,342.81595960003324,342.7991934000165,342.8092626000289,342.81595960003324,342.81595960003324,342.81595960003324,346.08277390000876,Objects\236b.jpg,pre,s,3.2501778000150807,None,,,,,,,,00046,001,2026-01-18_11h48.54.013,MST_test,2024.2.0,59.976920879665514,2026-01-18 11h49.04.893250 +0530,
37,0,38,o,1.9222137999604456,None,38,0,37,346.09900280000875,,,,,,,,,,,,,,,,,,,,,,,,,,,,,,,,,,,,,,,,,,,,,,,,,,346.082863299991,346.09900280000875,346.59920689999126,346.58243140002014,346.58575650001876,346.59920689999126,346.59920689999126,346.59920689999126,348.53284410003107,Objects\256a.jpg,mid,o,1.9222137999604456,None,,,,,,,,00046,001,2026-01-18_11h48.54.013,MST_test,2024.2.0,59.976920879665514,2026-01-18 11h49.04.893250 +0530,
38,0,39,n,2.6401310000219382,None,39,0,38,348.5490044000326,,,,,,,,,,,,,,,,,,,,,,,,,,,,,,,,,,,,,,,,,,,,,,,,,,348.5329381999909,348.5490044000326,349.04921580001246,349.0324849000317,349.0365035000141,349.04921580001246,349.04921580001246,349.04921580001246,351.699594900012,Foils\105a.jpg,none,n,2.6401310000219382,None,,,,,,,,00046,001,2026-01-18_11h48.54.013,MST_test,2024.2.0,59.976920879665514,2026-01-18 11h49.04.893250 +0530,
39,0,40,o,1.450673499959521,None,40,0,39,351.7156459999969,,,,,,,,,,,,,,,,,,,,,,,,,,,,,,,,,,,,,,,,,,,,,,,,,,351.6996846999973,351.7156459999969,,352.19999270001426,352.20942800003104,352.2158473000163,352.2158473000163,352.2158473000163,353.6826977999881,Objects\181b.jpg,pre,o,1.450673499959521,None,,,,,,,,00046,001,2026-01-18_11h48.54.013,MST_test,2024.2.0,59.976920879665514,2026-01-18 11h49.04.893250 +0530,
40,0,41,s,3.7707688999944367,None,41,0,40,353.6988816999947,,,,,,,,,,,,,,,,,,,,,,,,,,,,,,,,,,,,,,,,,,,,,,,,,,353.6827986999997,353.6988816999947,354.19922070001485,354.18239309999626,354.1844008000335,354.19922070001485,354.19922070001485,354.19922070001485,357.9831825000001,Foils\f7.jpg,none,s,3.7707688999944367,None,,,,,,,,00046,001,2026-01-18_11h48.54.013,MST_test,2024.2.0,59.976920879665514,2026-01-18 11h49.04.893250 +0530,
41,0,42,s,6.950596500013489,None,42,0,41,357.9990860000253,,,,,,,,,,,,,,,,,,,,,,,,,,,,,,,,,,,,,,,,,,,,,,,,,,357.9832834000117,357.9990860000253,358.4991990000126,358.4825229999842,358.48614980001,358.4991990000126,358.4991990000126,358.4991990000126,365.4662228000234,Foils\093b.jpg,none,s,6.950596500013489,None,,,,,,,,00046,001,2026-01-18_11h48.54.013,MST_test,2024.2.0,59.976920879665514,2026-01-18 11h49.04.893250 +0530,
42,0,43,s,1.491784900019411,None,43,0,42,365.48236999998335,,,,,,,,,,,,,,,,,,,,,,,,,,,,,,,,,,,,,,,,,,,,,,,,,,365.4663178999908,365.48236999998335,365.98271980002755,365.96591610001633,365.97596650000196,365.98271980002755,365.98271980002755,365.98271980002755,367.48295809997944,Objects\336b.jpg,post,s,1.491784900019411,None,,,,,,,,00046,001,2026-01-18_11h48.54.013,MST_test,2024.2.0,59.976920879665514,2026-01-18 11h49.04.893250 +0530,
43,0,44,s,2.994222999957856,None,44,0,43,367.49902190000284,,,,,,,,,,,,,,,,,,,,,,,,,,,,,,,,,,,,,,,,,,,,,,,,,,367.48304810002446,367.49902190000284,367.99930800002767,367.9827125000302,367.9874299999792,367.99930800002767,367.99930800002767,367.99930800002767,370.9995455000317,Objects\243a.jpg,pre,s,2.994222999957856,None,,,,,,,,00046,001,2026-01-18_11h48.54.013,MST_test,2024.2.0,59.976920879665514,2026-01-18 11h49.04.893250 +0530,
44,0,45,n,5.486780000035651,None,45,0,44,371.01560570002766,,,,,,,,,,,,,,,,,,,,,,,,,,,,,,,,,,,,,,,,,,,,,,,,,,370.9996473999927,371.01560570002766,371.5160711000208,371.49950129998615,371.5028688000166,371.5160711000208,371.5160711000208,371.5160711000208,377.01615480001783,Foils\050a.jpg,none,n,5.486780000035651,None,,,,,,,,00046,001,2026-01-18_11h48.54.013,MST_test,2024.2.0,59.976920879665514,2026-01-18 11h49.04.893250 +0530,
45,0,46,o,1.3730313000269234,None,46,0,45,377.03209310001694,,,,,,,,,,,,,,,,,,,,,,,,,,,,,,,,,,,,,,,,,,,,,,,,,,377.01624710002216,377.03209310001694,377.5323767000227,377.5158928000019,377.51870529999724,377.5323767000227,377.5323767000227,377.5323767000227,378.9160469000344,Objects\241a.jpg,mid,o,1.3730313000269234,None,,,,,,,,00046,001,2026-01-18_11h48.54.013,MST_test,2024.2.0,59.976920879665514,2026-01-18 11h49.04.893250 +0530,
46,0,47,s,2.47306099999696,None,47,0,46,378.9321476999903,,,,,,,,,,,,,,,,,,,,,,,,,,,,,,,,,,,,,,,,,,,,,,,,,,378.9161394999828,378.9321476999903,379.4323683999828,379.41583260003245,379.4184114999953,379.4323683999828,379.4323683999828,379.4323683999828,381.9160549999797,Objects\035b.jpg,pre,s,2.47306099999696,None,,,,,,,,00046,001,2026-01-18_11h48.54.013,MST_test,2024.2.0,59.976920879665514,2026-01-18 11h49.04.893250 +0530,
47,0,48,s,3.857983599998988,None,48,0,47,381.9321276000119,,,,,,,,,,,,,,,,,,,,,,,,,,,,,,,,,,,,,,,,,,,,,,,,,,381.9161435000133,381.9321276000119,382.4322711999994,382.4158256999799,382.4183765000198,382.4322711999994,382.4322711999994,382.4322711999994,386.29948440002045,Objects\140a.jpg,mid,s,3.857983599998988,None,,,,,,,,00046,001,2026-01-18_11h48.54.013,MST_test,2024.2.0,59.976920879665514,2026-01-18 11h49.04.893250 +0530,
48,0,49,s,2.362397399963811,None,49,0,48,386.31551759998547,,,,,,,,,,,,,,,,,,,,,,,,,,,,,,,,,,,,,,,,,,,,,,,,,,386.2995756000164,386.31551759998547,386.8157965000137,386.7991547000129,386.8094352000044,386.8157965000137,386.8157965000137,386.8157965000137,389.18266759999096,Objects\089b.jpg,pre,s,2.362397399963811,None,,,,,,,,00046,001,2026-01-18_11h48.54.013,MST_test,2024.2.0,59.976920879665514,2026-01-18 11h49.04.893250 +0530,
49,0,50,n,1.551534099970013,None,50,0,49,389.19891720003216,,,,,,,,,,,,,,,,,,,,,,,,,,,,,,,,,,,,,,,,,,,,,,,,,,389.18275740003446,389.19891720003216,389.6993060000241,389.6824376999866,389.6931307000341,389.6993060000241,389.6993060000241,389.6993060000241,391.2661235000123,Objects\366b.jpg,mid,n,1.551534099970013,None,,,,,,,,00046,001,2026-01-18_11h48.54.013,MST_test,2024.2.0,59.976920879665514,2026-01-18 11h49.04.893250 +0530,
50,0,51,s,1.6112585000228137,None,51,0,50,391.28211119998014,,,,,,,,,,,,,,,,,,,,,,,,,,,,,,,,,,,,,,,,,,,,,,,,,,391.26621500001056,391.28211119998014,391.78262549999636,391.7659104000195,391.7771463000099,391.78262549999636,391.78262549999636,391.78262549999636,393.39968760003103,Objects\304b.jpg,pre,s,1.6112585000228137,None,,,,,,,,00046,001,2026-01-18_11h48.54.013,MST_test,2024.2.0,59.976920879665514,2026-01-18 11h49.04.893250 +0530,
51,0,52,s,2.2539711000281386,None,52,0,51,393.41559400002006,,,,,,,,,,,,,,,,,,,,,,,,,,,,,,,,,,,,,,,,,,,,,,,,,,393.3997812999878,393.41559400002006,393.91595500003314,393.89909969997825,393.9027563999989,393.91595500003314,393.91595500003314,393.91595500003314,396.1826667999849,Objects\298a.jpg,pre,s,2.2539711000281386,None,,,,,,,,00046,001,2026-01-18_11h48.54.013,MST_test,2024.2.0,59.976920879665514,2026-01-18 11h49.04.893250 +0530,
52,0,53,s,2.2543770999764092,None,53,0,52,396.1988339999807,,,,,,,,,,,,,,,,,,,,,,,,,,,,,,,,,,,,,,,,,,,,,,,,,,396.1827568000299,396.1988339999807,396.69904839998344,396.68245140003273,396.6848046000232,396.69904839998344,396.69904839998344,396.69904839998344,398.9660998000181,Objects\307a.jpg,pre,s,2.2543770999764092,None,,,,,,,,00046,001,2026-01-18_11h48.54.013,MST_test,2024.2.0,59.976920879665514,2026-01-18 11h49.04.893250 +0530,
53,0,54,s,5.527244099997915,None,54,0,53,398.982159200008,,,,,,,,,,,,,,,,,,,,,,,,,,,,,,,,,,,,,,,,,,,,,,,,,,398.966190200008,398.982159200008,399.4825665000244,399.46592739998596,399.4790694999974,399.4825665000244,399.4825665000244,399.4825665000244,405.0161212999956,Objects\324b.jpg,pre,s,5.527244099997915,None,,,,,,,,00046,001,2026-01-18_11h48.54.013,MST_test,2024.2.0,59.976920879665514,2026-01-18 11h49.04.893250 +0530,
54,0,55,s,3.229215600003954,None,55,0,54,405.03210260003107,,,,,,,,,,,,,,,,,,,,,,,,,,,,,,,,,,,,,,,,,,,,,,,,,,405.01620960002765,405.03210260003107,405.5325645999983,405.51579000003403,405.5191772999824,405.5325645999983,405.5325645999983,405.5325645999983,408.7661150000058,Foils\082a.jpg,none,s,3.229215600003954,None,,,,,,,,00046,001,2026-01-18_11h48.54.013,MST_test,2024.2.0,59.976920879665514,2026-01-18 11h49.04.893250 +0530,
55,0,56,s,6.895559000025969,None,56,0,55,408.78212950000307,,,,,,,,,,,,,,,,,,,,,,,,,,,,,,,,,,,,,,,,,,,,,,,,,,408.7662042999873,408.78212950000307,409.2823648999911,409.2659201999777,409.26844680000795,409.2823648999911,409.2823648999911,409.2823648999911,416.1826703000115,Objects\075a.jpg,post,s,6.895559000025969,None,,,,,,,,00046,001,2026-01-18_11h48.54.013,MST_test,2024.2.0,59.976920879665514,2026-01-18 11h49.04.893250 +0530,
56,0,57,o,1.8150197999784723,None,57,0,56,416.19898809998995,,,,,,,,,,,,,,,,,,,,,,,,,,,,,,,,,,,,,,,,,,,,,,,,,,416.18276390002575,416.19898809998995,416.6991265999968,416.6824396000011,416.68541560001904,416.6991265999968,416.6991265999968,416.6991265999968,418.5162813999923,Objects\137a.jpg,post,o,1.8150197999784723,None,,,,,,,,00046,001,2026-01-18_11h48.54.013,MST_test,2024.2.0,59.976920879665514,2026-01-18 11h49.04.893250 +0530,
57,0,58,n,1.6092704000184312,None,58,0,57,418.5321591999964,,,,,,,,,,,,,,,,,,,,,,,,,,,,,,,,,,,,,,,,,,,,,,,,,,418.5163804999902,418.5321591999964,419.03239549999125,419.0159532999969,419.01859170000535,419.03239549999125,419.03239549999125,419.03239549999125,420.6494351000292,Foils\121a.jpg,none,n,1.6092704000184312,None,,,,,,,,00046,001,2026-01-18_11h48.54.013,MST_test,2024.2.0,59.976920879665514,2026-01-18 11h49.04.893250 +0530,
58,0,59,s,2.7315068999887444,None,59,0,58,420.6655311000068,,,,,,,,,,,,,,,,,,,,,,,,,,,,,,,,,,,,,,,,,,,,,,,,,,420.64952450001147,420.6655311000068,421.1660626999801,421.1494540999993,421.1519908999908,421.1660626999801,421.1660626999801,421.1660626999801,423.89946990000317,Foils\f6.jpg,none,s,2.7315068999887444,None,,,,,,,,00046,001,2026-01-18_11h48.54.013,MST_test,2024.2.0,59.976920879665514,2026-01-18 11h49.04.893250 +0530,
59,0,60,o,1.4179696000064723,None,60,0,59,423.9155851000105,,,,,,,,,,,,,,,,,,,,,,,,,,,,,,,,,,,,,,,,,,,,,,,,,,423.89956260001054,423.9155851000105,424.41589860001113,424.39918950002175,424.40322169999126,424.41589860001113,424.41589860001113,424.41589860001113,425.8495765000116,Objects\213a.jpg,mid,o,1.4179696000064723,None,,,,,,,,00046,001,2026-01-18_11h48.54.013,MST_test,2024.2.0,59.976920879665514,2026-01-18 11h49.04.893250 +0530,
60,0,61,s,7.707798300019931,None,61,0,60,425.8656483999803,,,,,,,,,,,,,,,,,,,,,,,,,,,,,,,,,,,,,,,,,,,,,,,,,,425.8496709000319,425.8656483999803,426.3660386999836,426.34922939998796,426.3593338999781,426.3660386999836,426.3660386999836,426.3660386999836,434.0827393999789,Objects\258b.jpg,mid,s,7.707798300019931,None,,,,,,,,00046,001,2026-01-18_11h48.54.013,MST_test,2024.2.0,59.976920879665514,2026-01-18 11h49.04.893250 +0530,
61,0,62,s,1.9305220000096597,None,62,0,61,434.09898389998125,,,,,,,,,,,,,,,,,,,,,,,,,,,,,,,,,,,,,,,,,,,,,,,,,,434.08284220000496,434.09898389998125,434.59930240001995,434.5825381000177,434.5848017000244,434.59930240001995,434.59930240001995,434.59930240001995,436.53298050002195,Objects\270a.jpg,pre,s,1.9305220000096597,None,,,,,,,,00046,001,2026-01-18_11h48.54.013,MST_test,2024.2.0,59.976920879665514,2026-01-18 11h49.04.893250 +0530,
62,0,63,s,5.305271600023843,None,63,0,62,436.54894670000067,,,,,,,,,,,,,,,,,,,,,,,,,,,,,,,,,,,,,,,,,,,,,,,,,,436.5330696000019,436.54894670000067,437.0493073000107,437.03247000003466,437.0436983000254,437.0493073000107,437.0493073000107,437.0493073000107,442.3661766999867,Objects\068b.jpg,mid,s,5.305271600023843,None,,,,,,,,00046,001,2026-01-18_11h48.54.013,MST_test,2024.2.0,59.976920879665514,2026-01-18 11h49.04.893250 +0530,
63,0,64,s,1.5270656000357121,None,64,0,63,442.38234070001636,,,,,,,,,,,,,,,,,,,,,,,,,,,,,,,,,,,,,,,,,,,,,,,,,,442.366268999991,442.38234070001636,442.88268889999017,442.86593309999444,442.8756535000284,442.88268889999017,442.88268889999017,442.88268889999017,444.41628639999544,Objects\272b.jpg,pre,s,1.5270656000357121,None,,,,,,,,00046,001,2026-01-18_11h48.54.013,MST_test,2024.2.0,59.976920879665514,2026-01-18 11h49.04.893250 +0530,
64,0,65,s,1.3973926999606192,None,65,0,64,444.43235590000404,,,,,,,,,,,,,,,,,,,,,,,,,,,,,,,,,,,,,,,,,,,,,,,,,,444.41638000000967,444.43235590000404,444.93251660000533,444.9159626000328,444.9262909999816,444.93251660000533,444.93251660000533,444.93251660000533,446.3329993999796,Objects\154b.jpg,pre,s,1.3973926999606192,None,,,,,,,,00046,001,2026-01-18_11h48.54.013,MST_test,2024.2.0,59.976920879665514,2026-01-18 11h49.04.893250 +0530,
65,0,66,s,7.249018599977717,None,66,0,65,446.349002700008,,,,,,,,,,,,,,,,,,,,,,,,,,,,,,,,,,,,,,,,,,,,,,,,,,446.3330892000231,446.349002700008,446.8493859000155,446.83256200002506,446.8356257000123,446.8493859000155,446.8493859000155,446.8493859000155,454.09979160001967,Objects\222a.jpg,post,s,7.249018599977717,None,,,,,,,,00046,001,2026-01-18_11h48.54.013,MST_test,2024.2.0,59.976920879665514,2026-01-18 11h49.04.893250 +0530,
66,0,67,n,2.5455914000049233,None,67,0,66,454.11560219997773,,,,,,,,,,,,,,,,,,,,,,,,,,,,,,,,,,,,,,,,,,,,,,,,,,454.0998924000305,454.11560219997773,454.61608680000063,454.5992662999779,454.61187750002136,454.61608680000063,454.61608680000063,454.61608680000063,457.1663529999787,Foils\081a.jpg,none,n,2.5455914000049233,None,,,,,,,,00046,001,2026-01-18_11h48.54.013,MST_test,2024.2.0,59.976920879665514,2026-01-18 11h49.04.893250 +0530,
67,0,68,s,1.7365337999654002,None,68,0,67,457.1821842000354,,,,,,,,,,,,,,,,,,,,,,,,,,,,,,,,,,,,,,,,,,,,,,,,,,457.16644860000815,457.1821842000354,457.68249199999264,457.66593269997975,457.67571440001484,457.68249199999264,457.68249199999264,457.68249199999264,459.43258409999544,Objects\077b.jpg,post,s,1.7365337999654002,None,,,,,,,,00046,001,2026-01-18_11h48.54.013,MST_test,2024.2.0,59.976920879665514,2026-01-18 11h49.04.893250 +0530,
68,0,69,s,3.7729388999869116,None,69,0,68,459.448934199987,,,,,,,,,,,,,,,,,,,,,,,,,,,,,,,,,,,,,,,,,,,,,,,,,,459.43267539999215,459.448934199987,459.9491888000048,459.9324712000089,459.93509729998186,459.9491888000048,459.9491888000048,459.9491888000048,463.7326694999938,Objects\119a.jpg,post,s,3.7729388999869116,None,,,,,,,,00046,001,2026-01-18_11h48.54.013,MST_test,2024.2.0,59.976920879665514,2026-01-18 11h49.04.893250 +0530,
69,0,70,s,1.8967892000218853,None,70,0,69,463.74892769998405,,,,,,,,,,,,,,,,,,,,,,,,,,,,,,,,,,,,,,,,,,,,,,,,,,463.73276460001944,463.74892769998405,464.2491715999786,464.23245619999943,464.2421507000108,464.2491715999786,464.2491715999786,464.2491715999786,466.14961770002265,Objects\033b.jpg,mid,s,1.8967892000218853,None,,,,,,,,00046,001,2026-01-18_11h48.54.013,MST_test,2024.2.0,59.976920879665514,2026-01-18 11h49.04.893250 +0530,
70,0,71,n,1.9200703000533395,None,71,0,70,466.16559270001017,,,,,,,,,,,,,,,,,,,,,,,,,,,,,,,,,,,,,,,,,,,,,,,,,,466.14970880001783,466.16559270001017,466.6658967999974,466.6491546999896,466.65131029998884,466.6658967999974,466.6658967999974,466.6658967999974,468.59942119999323,Foils\f5.jpg,none,n,1.9200703000533395,None,,,,,,,,00046,001,2026-01-18_11h48.54.013,MST_test,2024.2.0,59.976920879665514,2026-01-18 11h49.04.893250 +0530,
71,0,72,n,1.9900976000353694,None,72,0,71,468.61553900002036,,,,,,,,,,,,,,,,,,,,,,,,,,,,,,,,,,,,,,,,,,,,,,,,,,468.5995122999884,468.61553900002036,469.1159034000011,469.099171400012,469.1024758000276,469.1159034000011,469.1159034000011,469.1159034000011,471.1161601000349,Objects\175a.jpg,mid,n,1.9900976000353694,None,,,,,,,,00046,001,2026-01-18_11h48.54.013,MST_test,2024.2.0,59.976920879665514,2026-01-18 11h49.04.893250 +0530,
72,0,73,n,1.0093635000521317,None,73,0,72,471.1321434000274,,,,,,,,,,,,,,,,,,,,,,,,,,,,,,,,,,,,,,,,,,,,,,,,,,471.1162476000027,471.1321434000274,471.63235309999436,471.61599409999326,471.6189243000117,471.63235309999436,471.63235309999436,471.63235309999436,472.64959029998863,Foils\090a.jpg,none,n,1.0093635000521317,None,,,,,,,,00046,001,2026-01-18_11h48.54.013,MST_test,2024.2.0,59.976920879665514,2026-01-18 11h49.04.893250 +0530,
73,0,74,s,1.6198865000042133,None,74,0,73,472.66558700002497,,,,,,,,,,,,,,,,,,,,,,,,,,,,,,,,,,,,,,,,,,,,,,,,,,472.6496921000071,472.66558700002497,473.1659895000048,473.1492835999816,473.1596631000284,473.1659895000048,473.1659895000048,473.1659895000048,474.7996576000005,Objects\381b.jpg,post,s,1.6198865000042133,None,,,,,,,,00046,001,2026-01-18_11h48.54.013,MST_test,2024.2.0,59.976920879665514,2026-01-18 11h49.04.893250 +0530,
74,0,75,n,9.077732799982186,None,75,0,74,474.8156293000211,,,,,,,,,,,,,,,,,,,,,,,,,,,,,,,,,,,,,,,,,,,,,,,,,,474.79975529998774,474.8156293000211,475.3160233999952,475.2995309000253,475.310475700011,475.3160233999952,475.3160233999952,475.3160233999952,484.39942440000596,Objects\372b.jpg,mid,n,9.077732799982186,None,,,,,,,,00046,001,2026-01-18_11h48.54.013,MST_test,2024.2.0,59.976920879665514,2026-01-18 11h49.04.893250 +0530,
75,0,76,o,3.765482000017073,None,76,0,75,484.41552470001625,,,,,,,,,,,,,,,,,,,,,,,,,,,,,,,,,,,,,,,,,,,,,,,,,,484.39951650000876,484.41552470001625,484.91598960000556,484.89930180000374,484.90233300003456,484.91598960000556,484.91598960000556,484.91598960000556,488.68276719999267,Objects\269a.jpg,pre,o,3.765482000017073,None,,,,,,,,00046,001,2026-01-18_11h48.54.013,MST_test,2024.2.0,59.976920879665514,2026-01-18 11h49.04.893250 +0530,
76,0,77,o,1.4102387000457384,None,77,0,76,488.69891540001845,,,,,,,,,,,,,,,,,,,,,,,,,,,,,,,,,,,,,,,,,,,,,,,,,,488.68286400003126,488.69891540001845,489.1997779000085,489.18263140000636,489.18621499999426,489.1997779000085,489.1997779000085,489.1997779000085,490.6161774999928,Objects\044a.jpg,post,o,1.4102387000457384,None,,,,,,,,00046,001,2026-01-18_11h48.54.013,MST_test,2024.2.0,59.976920879665514,2026-01-18 11h49.04.893250 +0530,
77,0,78,n,4.3256263000075705,None,78,0,77,490.63212620001286,,,,,,,,,,,,,,,,,,,,,,,,,,,,,,,,,,,,,,,,,,,,,,,,,,490.61627380002756,490.63212620001286,491.1324525999953,491.1160745000234,491.1275072999997,491.1324525999953,491.1324525999953,491.1324525999953,495.46626509999624,Objects\184b.jpg,mid,n,4.3256263000075705,None,,,,,,,,00046,001,2026-01-18_11h48.54.013,MST_test,2024.2.0,59.976920879665514,2026-01-18 11h49.04.893250 +0530,
78,0,79,s,1.8912256000330672,None,79,0,78,495.4821164000314,,,,,,,,,,,,,,,,,,,,,,,,,,,,,,,,,,,,,,,,,,,,,,,,,,495.4663549999823,495.4821164000314,495.9823328999919,495.9659187999787,495.9758093000273,495.9823328999919,495.9823328999919,495.9823328999919,497.8827833000105,Objects\148b.jpg,post,s,1.8912256000330672,None,,,,,,,,00046,001,2026-01-18_11h48.54.013,MST_test,2024.2.0,59.976920879665514,2026-01-18 11h49.04.893250 +0530,
79,0,80,o,1.5312960000010207,None,80,0,79,497.89885810000123,,,,,,,,,,,,,,,,,,,,,,,,,,,,,,,,,,,,,,,,,,,,,,,,,,497.88287420000415,497.89885810000123,498.3991643000045,498.3826421999838,498.385589100013,498.3991643000045,498.3991643000045,498.3991643000045,499.93288259999827,Objects\088a.jpg,pre,o,1.5312960000010207,None,,,,,,,,00046,001,2026-01-18_11h48.54.013,MST_test,2024.2.0,59.976920879665514,2026-01-18 11h49.04.893250 +0530,
80,0,81,s,7.280572499963455,None,81,0,80,499.94894979998935,,,,,,,,,,,,,,,,,,,,,,,,,,,,,,,,,,,,,,,,,,,,,,,,,,499.9329725999851,499.94894979998935,500.4491694000317,500.43243709998205,500.4419557999936,500.4491694000317,500.4491694000317,500.4491694000317,507.73270190000767,Objects\206b.jpg,post,s,7.280572499963455,None,,,,,,,,00046,001,2026-01-18_11h48.54.013,MST_test,2024.2.0,59.976920879665514,2026-01-18 11h49.04.893250 +0530,
81,0,82,n,1.8249441999942064,None,82,0,81,507.7489491000306,,,,,,,,,,,,,,,,,,,,,,,,,,,,,,,,,,,,,,,,,,,,,,,,,,507.7327958000242,507.7489491000306,508.2492027999833,508.2324193000095,508.23508850001963,508.2492027999833,508.2492027999833,508.2492027999833,510.08264300000155,Foils\058a.jpg,none,n,1.8249441999942064,None,,,,,,,,00046,001,2026-01-18_11h48.54.013,MST_test,2024.2.0,59.976920879665514,2026-01-18 11h49.04.893250 +0530,
82,0,83,n,3.842493399977684,None,83,0,82,510.09894490003353,,,,,,,,,,,,,,,,,,,,,,,,,,,,,,,,,,,,,,,,,,,,,,,,,,510.0827320999815,510.09894490003353,510.5991206000326,510.5824457000126,510.58512649999466,510.5991206000326,510.5991206000326,510.5991206000326,514.4494192000129,Objects\028a.jpg,mid,n,3.842493399977684,None,,,,,,,,00046,001,2026-01-18_11h48.54.013,MST_test,2024.2.0,59.976920879665514,2026-01-18 11h49.04.893250 +0530,
83,0,84,s,1.3635634999955073,None,84,0,83,514.4656015000073,,,,,,,,,,,,,,,,,,,,,,,,,,,,,,,,,,,,,,,,,,,,,,,,,,514.4495135000325,514.4656015000073,514.9658312000101,514.9491879999987,514.9605396999978,514.9658312000101,514.9658312000101,514.9658312000101,516.3327239000355,Objects\216b.jpg,post,s,1.3635634999955073,None,,,,,,,,00046,001,2026-01-18_11h48.54.013,MST_test,2024.2.0,59.976920879665514,2026-01-18 11h49.04.893250 +0530,
84,0,85,s,6.040853799961042,None,85,0,84,516.3489494000096,,,,,,,,,,,,,,,,,,,,,,,,,,,,,,,,,,,,,,,,,,,,,,,,,,516.3328122000094,516.3489494000096,516.8491682999884,516.8325286000036,516.8353323999909,516.8491682999884,516.8491682999884,516.8491682999884,522.8995870000217,Objects\189a.jpg,post,s,6.040853799961042,None,,,,,,,,00046,001,2026-01-18_11h48.54.013,MST_test,2024.2.0,59.976920879665514,2026-01-18 11h49.04.893250 +0530,
85,0,86,o,2.674319199984893,None,86,0,85,522.9156165000168,,,,,,,,,,,,,,,,,,,,,,,,,,,,,,,,,,,,,,,,,,,,,,,,,,522.899682999996,522.9156165000168,523.416024599981,523.3992649000138,523.4034129999927,523.416024599981,523.416024599981,523.416024599981,526.0995817999938,Objects\267a.jpg,pre,o,2.674319199984893,None,,,,,,,,00046,001,2026-01-18_11h48.54.013,MST_test,2024.2.0,59.976920879665514,2026-01-18 11h49.04.893250 +0530,
86,0,87,o,3.8657037999946624,None,87,0,86,526.1155368000036,,,,,,,,,,,,,,,,,,,,,,,,,,,,,,,,,,,,,,,,,,,,,,,,,,526.0996717999806,526.1155368000036,526.6160128000192,526.5991752999835,526.6060973000131,526.6160128000192,526.6160128000192,526.6160128000192,530.4826952000149,Objects\062a.jpg,mid,o,3.8657037999946624,None,,,,,,,,00046,001,2026-01-18_11h48.54.013,MST_test,2024.2.0,59.976920879665514,2026-01-18 11h49.04.893250 +0530,
87,0,88,o,1.722836799977813,None,88,0,87,530.4988782000146,,,,,,,,,,,,,,,,,,,,,,,,,,,,,,,,,,,,,,,,,,,,,,,,,,530.4827903999831,530.4988782000146,530.9991850000224,530.9824288000236,530.9852829999872,530.9991850000224,530.9991850000224,530.9991850000224,532.7326665000292,Objects\142a.jpg,post,o,1.722836799977813,None,,,,,,,,00046,001,2026-01-18_11h48.54.013,MST_test,2024.2.0,59.976920879665514,2026-01-18 11h49.04.893250 +0530,
88,0,89,s,1.3142017999780364,None,89,0,88,532.7489532000036,,,,,,,,,,,,,,,,,,,,,,,,,,,,,,,,,,,,,,,,,,,,,,,,,,532.7327550000045,532.7489532000036,533.2491316000232,533.23265239998,533.2353866000194,533.2491316000232,533.2491316000232,533.2491316000232,534.5662439999869,Objects\190a.jpg,post,s,1.3142017999780364,None,,,,,,,,00046,001,2026-01-18_11h48.54.013,MST_test,2024.2.0,59.976920879665514,2026-01-18 11h49.04.893250 +0530,
89,0,90,s,1.4951726999715902,None,90,0,89,534.5821209999849,,,,,,,,,,,,,,,,,,,,,,,,,,,,,,,,,,,,,,,,,,,,,,,,,,534.5663418000331,534.5821209999849,535.08274480002,535.0658675000304,535.0692225000239,535.08274480002,535.08274480002,535.08274480002,536.5828169999877,Objects\203a.jpg,mid,s,1.4951726999715902,None,,,,,,,,00046,001,2026-01-18_11h48.54.013,MST_test,2024.2.0,59.976920879665514,2026-01-18 11h49.04.893250 +0530,
90,0,91,s,1.279050900018774,None,91,0,90,536.5989558000001,,,,,,,,,,,,,,,,,,,,,,,,,,,,,,,,,,,,,,,,,,,,,,,,,,536.5829081999836,536.5989558000001,537.0993527999963,537.0825110999867,537.085700399999,537.0993527999963,537.0993527999963,537.0993527999963,538.3827161000227,Objects\101b.jpg,pre,s,1.279050900018774,None,,,,,,,,00046,001,2026-01-18_11h48.54.013,MST_test,2024.2.0,59.976920879665514,2026-01-18 11h49.04.893250 +0530,
91,0,92,s,1.374923299998045,None,92,0,91,538.3989528000238,,,,,,,,,,,,,,,,,,,,,,,,,,,,,,,,,,,,,,,,,,,,,,,,,,538.3828039999935,538.3989528000238,538.8992978000315,538.8825542000122,538.8854134000139,538.8992978000315,538.8992978000315,538.8992978000315,540.2830663999775,Objects\325b.jpg,pre,s,1.374923299998045,None,,,,,,,,00046,001,2026-01-18_11h48.54.013,MST_test,2024.2.0,59.976920879665514,2026-01-18 11h49.04.893250 +0530,
92,0,93,o,1.2422811000142246,None,93,0,92,540.2989335000166,,,,,,,,,,,,,,,,,,,,,,,,,,,,,,,,,,,,,,,,,,,,,,,,,,540.2831635000184,540.2989335000166,540.7992783000227,540.7823818000033,540.785097200016,540.7992783000227,540.7992783000227,540.7992783000227,542.0495997000253,Objects\001a.jpg,pre,o,1.2422811000142246,None,,,,,,,,00046,001,2026-01-18_11h48.54.013,MST_test,2024.2.0,59.976920879665514,2026-01-18 11h49.04.893250 +0530,
93,0,94,s,1.5637160999467596,None,94,0,93,542.0660624000011,,,,,,,,,,,,,,,,,,,,,,,,,,,,,,,,,,,,,,,,,,,,,,,,,,542.0496905000182,542.0660624000011,542.5658173999982,542.5491669999901,542.5517215,542.5658173999982,542.5658173999982,542.5658173999982,544.1329272000003,Objects\146a.jpg,mid,s,1.5637160999467596,None,,,,,,,,00046,001,2026-01-18_11h48.54.013,MST_test,2024.2.0,59.976920879665514,2026-01-18 11h49.04.893250 +0530,
94,0,95,o,9.36910579999676,None,95,0,94,544.148922900029,,,,,,,,,,,,,,,,,,,,,,,,,,,,,,,,,,,,,,,,,,,,,,,,,,544.1330241999822,544.148922900029,544.6491694999859,544.6325428999844,544.6424606000073,544.6491694999859,544.6491694999859,544.6491694999859,554.0330409000162,Objects\008b.jpg,post,o,9.36910579999676,None,,,,,,,,00046,001,2026-01-18_11h48.54.013,MST_test,2024.2.0,59.976920879665514,2026-01-18 11h49.04.893250 +0530,
95,0,96,s,2.908564799989108,None,96,0,95,554.049070500012,,,,,,,,,,,,,,,,,,,,,,,,,,,,,,,,,,,,,,,,,,,,,,,,,,554.0331401000149,554.049070500012,554.5493745999993,554.5326185000013,554.5428972999798,554.5493745999993,554.5493745999993,554.5493745999993,557.4663564999937,Objects\005b.jpg,pre,s,2.908564799989108,None,,,,,,,,00046,001,2026-01-18_11h48.54.013,MST_test,2024.2.0,59.976920879665514,2026-01-18 11h49.04.893250 +0530,
96,0,97,n,2.5470909999567084,None,97,0,96,557.4824051000178,,,,,,,,,,,,,,,,,,,,,,,,,,,,,,,,,,,,,,,,,,,,,,,,,,557.4664463999798,557.4824051000178,557.9826217999798,557.9660300000105,557.9691475,557.9826217999798,557.9826217999798,557.9826217999798,560.5328339000116,Foils\002a.jpg,none,n,2.5470909999567084,None,,,,,,,,00046,001,2026-01-18_11h48.54.013,MST_test,2024.2.0,59.976920879665514,2026-01-18 11h49.04.893250 +0530,
97,0,98,s,1.8969717000145465,None,98,0,97,560.549072200025,,,,,,,,,,,,,,,,,,,,,,,,,,,,,,,,,,,,,,,,,,,,,,,,,,560.532922399987,560.549072200025,561.0492273999844,561.0326817000168,561.0351982000284,561.0492273999844,561.0492273999844,561.0492273999844,562.9496126000304,Objects\091b.jpg,pre,s,1.8969717000145465,None,,,,,,,,00046,001,2026-01-18_11h48.54.013,MST_test,2024.2.0,59.976920879665514,2026-01-18 11h49.04.893250 +0530,
98,0,99,n,3.536458699963987,None,99,0,98,562.9657421000302,,,,,,,,,,,,,,,,,,,,,,,,,,,,,,,,,,,,,,,,,,,,,,,,,,562.9497016000096,562.9657421000302,563.4661269999924,563.4493356000166,563.452449799981,563.4661269999924,563.4661269999924,563.4661269999924,567.016170900024,Objects\359a.jpg,pre,n,3.536458699963987,None,,,,,,,,00046,001,2026-01-18_11h48.54.013,MST_test,2024.2.0,59.976920879665514,2026-01-18 11h49.04.893250 +0530,
99,0,100,o,2.3575416000094265,None,100,0,99,567.0323685000185,,,,,,,,,,,,,,,,,,,,,,,,,,,,,,,,,,,,,,,,,,,,,,,,,,567.0162595000002,567.0323685000185,567.5327762999805,567.5159380999976,567.5198126999894,567.5327762999805,567.5327762999805,567.5327762999805,569.8998880999861,Objects\282a.jpg,mid,o,2.3575416000094265,None,,,,,,,,00046,001,2026-01-18_11h48.54.013,MST_test,2024.2.0,59.976920879665514,2026-01-18 11h49.04.893250 +0530,
100,0,101,s,1.8178098000353202,None,101,0,100,569.9158012000262,,,,,,,,,,,,,,,,,,,,,,,,,,,,,,,,,,,,,,,,,,,,,,,,,,569.8999901000061,569.9158012000262,570.4158781000297,570.39928469999,570.4018637000117,570.4158781000297,570.4158781000297,570.4158781000297,572.2496773999883,Objects\052a.jpg,post,s,1.8178098000353202,None,,,,,,,,00046,001,2026-01-18_11h48.54.013,MST_test,2024.2.0,59.976920879665514,2026-01-18 11h49.04.893250 +0530,
101,0,102,o,1.2039668000070378,None,102,0,101,572.2657197000226,,,,,,,,,,,,,,,,,,,,,,,,,,,,,,,,,,,,,,,,,,,,,,,,,,572.2497668000287,572.2657197000226,572.7660669999896,572.7492151000188,572.7522160999943,572.7660669999896,572.7660669999896,572.7660669999896,573.983117500029,Objects\352a.jpg,pre,o,1.2039668000070378,None,,,,,,,,00046,001,2026-01-18_11h48.54.013,MST_test,2024.2.0,59.976920879665514,2026-01-18 11h49.04.893250 +0530,
102,0,103,s,4.6070154999615625,None,103,0,102,573.9990384000121,,,,,,,,,,,,,,,,,,,,,,,,,,,,,,,,,,,,,,,,,,,,,,,,,,573.9832088000257,573.9990384000121,574.499370399979,574.4825578000164,574.4856941000326,574.499370399979,574.499370399979,574.499370399979,579.1164837999968,Objects\198a.jpg,mid,s,4.6070154999615625,None,,,,,,,,00046,001,2026-01-18_11h48.54.013,MST_test,2024.2.0,59.976920879665514,2026-01-18 11h49.04.893250 +0530,
103,0,104,s,9.00891249999404,None,104,0,103,579.1323853000067,,,,,,,,,,,,,,,,,,,,,,,,,,,,,,,,,,,,,,,,,,,,,,,,,,579.116572900035,579.1323853000067,579.632887899992,579.6159863999928,579.6275241000112,579.632887899992,579.632887899992,579.632887899992,588.6496133999899,Objects\202b.jpg,pre,s,9.00891249999404,None,,,,,,,,00046,001,2026-01-18_11h48.54.013,MST_test,2024.2.0,59.976920879665514,2026-01-18 11h49.04.893250 +0530,
104,0,105,s,1.3634422000031918,None,105,0,104,588.6657509999932,,,,,,,,,,,,,,,,,,,,,,,,,,,,,,,,,,,,,,,,,,,,,,,,,,588.6497013000189,588.6657509999932,589.1659725999925,589.1495384000009,589.1597517000046,589.1659725999925,589.1659725999925,589.1659725999925,590.5328754999791,Objects\164b.jpg,post,s,1.3634422000031918,None,,,,,,,,00046,001,2026-01-18_11h48.54.013,MST_test,2024.2.0,59.976920879665514,2026-01-18 11h49.04.893250 +0530,
105,0,106,o,2.1525538000278175,None,106,0,105,590.5490619000047,,,,,,,,,,,,,,,,,,,,,,,,,,,,,,,,,,,,,,,,,,,,,,,,,,590.5329636000097,590.5490619000047,591.049536400009,591.0326230000355,591.0361365000135,591.049536400009,591.049536400009,591.049536400009,593.2165172999958,Objects\212a.jpg,pre,o,2.1525538000278175,None,,,,,,,,00046,001,2026-01-18_11h48.54.013,MST_test,2024.2.0,59.976920879665514,2026-01-18 11h49.04.893250 +0530,
106,0,107,o,2.453009699995164,None,107,0,106,593.2324332999997,,,,,,,,,,,,,,,,,,,,,,,,,,,,,,,,,,,,,,,,,,,,,,,,,,593.2166054000263,593.2324332999997,593.7327691999963,593.7159293000004,593.7191403000033,593.7327691999963,593.7327691999963,593.7327691999963,596.1995557000046,Objects\073a.jpg,pre,o,2.453009699995164,None,,,,,,,,00046,001,2026-01-18_11h48.54.013,MST_test,2024.2.0,59.976920879665514,2026-01-18 11h49.04.893250 +0530,
107,0,108,o,1.1735883000073954,None,108,0,107,596.215798899997,,,,,,,,,,,,,,,,,,,,,,,,,,,,,,,,,,,,,,,,,,,,,,,,,,596.1996435000328,596.215798899997,596.7158332000254,596.6992001000326,596.7017477999907,596.7158332000254,596.7158332000254,596.7158332000254,597.8996662999853,Objects\149b.jpg,post,o,1.1735883000073954,None,,,,,,,,00046,001,2026-01-18_11h48.54.013,MST_test,2024.2.0,59.976920879665514,2026-01-18 11h49.04.893250 +0530,
108,0,109,s,1.386177200009115,None,109,0,108,597.9157740999945,,,,,,,,,,,,,,,,,,,,,,,,,,,,,,,,,,,,,,,,,,,,,,,,,,597.8997570999782,597.9157740999945,598.4160355000058,598.3994105000165,598.4092340000207,598.4160355000058,598.4160355000058,598.4160355000058,599.8162649000296,Objects\178b.jpg,pre,s,1.386177200009115,None,,,,,,,,00046,001,2026-01-18_11h48.54.013,MST_test,2024.2.0,59.976920879665514,2026-01-18 11h49.04.893250 +0530,
109,0,110,s,1.9895018999814056,None,110,0,109,599.8321139999898,,,,,,,,,,,,,,,,,,,,,,,,,,,,,,,,,,,,,,,,,,,,,,,,,,599.8163573000347,599.8321139999898,600.332567400008,600.316011500021,600.3257452999824,600.332567400008,600.332567400008,600.332567400008,602.3330378999817,Objects\223b.jpg,post,s,1.9895018999814056,None,,,,,,,,00046,001,2026-01-18_11h48.54.013,MST_test,2024.2.0,59.976920879665514,2026-01-18 11h49.04.893250 +0530,
110,0,111,s,2.8963838999625295,None,111,0,110,602.3490394999972,,,,,,,,,,,,,,,,,,,,,,,,,,,,,,,,,,,,,,,,,,,,,,,,,,602.3331252000062,602.3490394999972,602.8494267999777,602.8326418999932,602.8358319000108,602.8494267999777,602.8494267999777,602.8494267999777,605.7495399999898,Objects\218a.jpg,mid,s,2.8963838999625295,None,,,,,,,,00046,001,2026-01-18_11h48.54.013,MST_test,2024.2.0,59.976920879665514,2026-01-18 11h49.04.893250 +0530,
111,0,112,s,1.3202717999811284,None,112,0,111,605.7657260000124,,,,,,,,,,,,,,,,,,,,,,,,,,,,,,,,,,,,,,,,,,,,,,,,,,605.7496318999911,605.7657260000124,606.2659908999922,606.2493633999838,606.2518836000236,606.2659908999922,606.2659908999922,606.2659908999922,607.5996432999964,Objects\323b.jpg,post,s,1.3202717999811284,None,,,,,,,,00046,001,2026-01-18_11h48.54.013,MST_test,2024.2.0,59.976920879665514,2026-01-18 11h49.04.893250 +0530,
112,0,113,o,1.3506307000061497,None,113,0,112,607.6157630999805,,,,,,,,,,,,,,,,,,,,,,,,,,,,,,,,,,,,,,,,,,,,,,,,,,607.5997320000315,607.6157630999805,608.1161412000074,608.0992256000172,608.1019756000023,608.1161412000074,608.1161412000074,608.1161412000074,609.4829724000301,Objects\344a.jpg,post,o,1.3506307000061497,None,,,,,,,,00046,001,2026-01-18_11h48.54.013,MST_test,2024.2.0,59.976920879665514,2026-01-18 11h49.04.893250 +0530,
113,0,114,s,1.6587276000063866,None,114,0,113,609.4989094000193,,,,,,,,,,,,,,,,,,,,,,,,,,,,,,,,,,,,,,,,,,,,,,,,,,609.4830654999823,609.4989094000193,609.9993012000341,609.9823877000017,609.9937986999867,609.9993012000341,609.9993012000341,609.9993012000341,611.666191700031,Objects\058b.jpg,post,s,1.6587276000063866,None,,,,,,,,00046,001,2026-01-18_11h48.54.013,MST_test,2024.2.0,59.976920879665514,2026-01-18 11h49.04.893250 +0530,
114,0,115,o,2.098965000011958,None,115,0,114,611.6821355000138,,,,,,,,,,,,,,,,,,,,,,,,,,,,,,,,,,,,,,,,,,,,,,,,,,611.6662832000293,611.6821355000138,612.1826002000016,612.1658883999917,612.1686174999923,612.1826002000016,612.1826002000016,612.1826002000016,614.2828129000263,Objects\331a.jpg,post,o,2.098965000011958,None,,,,,,,,00046,001,2026-01-18_11h48.54.013,MST_test,2024.2.0,59.976920879665514,2026-01-18 11h49.04.893250 +0530,
115,0,116,o,6.819912100036163,None,116,0,115,614.2989622000023,,,,,,,,,,,,,,,,,,,,,,,,,,,,,,,,,,,,,,,,,,,,,,,,,,614.2829015000025,614.2989622000023,614.7992810999858,614.7824985000188,614.7852820000262,614.7992810999858,614.7992810999858,614.7992810999858,621.6327197999926,Objects\251b.jpg,mid,o,6.819912100036163,None,,,,,,,,00046,001,2026-01-18_11h48.54.013,MST_test,2024.2.0,59.976920879665514,2026-01-18 11h49.04.893250 +0530,
116,0,117,o,3.1890465999604203,None,117,0,116,621.6489666000125,,,,,,,,,,,,,,,,,,,,,,,,,,,,,,,,,,,,,,,,,,,,,,,,,,621.632810799987,621.6489666000125,622.1493518999778,622.1324749999912,622.1355379000306,622.1493518999778,622.1493518999778,622.1493518999778,625.3496658999939,Objects\226a.jpg,pre,o,3.1890465999604203,None,,,,,,,,00046,001,2026-01-18_11h48.54.013,MST_test,2024.2.0,59.976920879665514,2026-01-18 11h49.04.893250 +0530,
117,0,118,o,0.9276944000157528,None,118,0,117,625.3655689000152,,,,,,,,,,,,,,,,,,,,,,,,,,,,,,,,,,,,,,,,,,,,,,,,,,625.349756599986,625.3655689000152,625.8659845999791,625.8493197000353,625.852766200027,625.8659845999791,625.8659845999791,625.8659845999791,626.7995301000192,Objects\167a.jpg,pre,o,0.9276944000157528,None,,,,,,,,00046,001,2026-01-18_11h48.54.013,MST_test,2024.2.0,59.976920879665514,2026-01-18 11h49.04.893250 +0530,
118,0,119,o,1.3741394999669865,None,119,0,118,626.8156450000242,,,,,,,,,,,,,,,,,,,,,,,,,,,,,,,,,,,,,,,,,,,,,,,,,,626.7996210000128,626.8156450000242,627.316005700035,627.2992076000082,627.3018131999997,627.316005700035,627.316005700035,627.316005700035,628.6995871000108,Objects\292a.jpg,mid,o,1.3741394999669865,None,,,,,,,,00046,001,2026-01-18_11h48.54.013,MST_test,2024.2.0,59.976920879665514,2026-01-18 11h49.04.893250 +0530,
119,0,120,s,1.4419928000424989,None,120,0,119,628.7156353000319,,,,,,,,,,,,,,,,,,,,,,,,,,,,,,,,,,,,,,,,,,,,,,,,,,628.6996752999839,628.7156353000319,629.2159284999943,629.1991691000294,629.2020794000127,629.2159284999943,629.2159284999943,629.2159284999943,630.6664476000005,Objects\104a.jpg,post,s,1.4419928000424989,None,,,,,,,,00046,001,2026-01-18_11h48.54.013,MST_test,2024.2.0,59.976920879665514,2026-01-18 11h49.04.893250 +0530,
120,0,121,o,1.6917237000307068,None,121,0,120,630.6821547999862,,,,,,,,,,,,,,,,,,,,,,,,,,,,,,,,,,,,,,,,,,,,,,,,,,630.66654320003,630.6821547999862,631.1825784000102,631.1658199999947,631.1690965000307,631.1825784000102,631.1825784000102,631.1825784000102,632.8828511000029,Objects\329a.jpg,mid,o,1.6917237000307068,None,,,,,,,,00046,001,2026-01-18_11h48.54.013,MST_test,2024.2.0,59.976920879665514,2026-01-18 11h49.04.893250 +0530,
121,0,122,n,3.026991299993824,None,122,0,121,632.8989070000243,,,,,,,,,,,,,,,,,,,,,,,,,,,,,,,,,,,,,,,,,,,,,,,,,,632.8829407999874,632.8989070000243,633.3993860000046,633.3824410000234,633.3858329000068,633.3993860000046,633.3993860000046,633.3993860000046,636.4327513999888,Foils\101b.jpg,none,n,3.026991299993824,None,,,,,,,,00046,001,2026-01-18_11h48.54.013,MST_test,2024.2.0,59.976920879665514,2026-01-18 11h49.04.893250 +0530,
122,0,123,n,24.013437399989925,None,123,0,122,636.4489806999918,,,,,,,,,,,,,,,,,,,,,,,,,,,,,,,,,,,,,,,,,,,,,,,,,,636.4328406000277,636.4489806999918,636.9493962000124,636.9323226999841,636.9355552000343,636.9493962000124,636.9493962000124,636.9493962000124,660.9662264999934,Objects\355a.jpg,pre,n,24.013437399989925,None,,,,,,,,00046,001,2026-01-18_11h48.54.013,MST_test,2024.2.0,59.976920879665514,2026-01-18 11h49.04.893250 +0530,
123,0,124,s,1.6545048000407405,None,124,0,123,660.9822502000025,,,,,,,,,,,,,,,,,,,,,,,,,,,,,,,,,,,,,,,,,,,,,,,,,,660.9663170999847,660.9822502000025,661.4831080000149,661.4660450000083,661.4784293000121,661.4831080000149,661.4831080000149,661.4831080000149,663.1495657000341,Objects\173b.jpg,mid,s,1.6545048000407405,None,,,,,,,,00046,001,2026-01-18_11h48.54.013,MST_test,2024.2.0,59.976920879665514,2026-01-18 11h49.04.893250 +0530,
124,0,125,n,1.7203188000130467,None,125,0,124,663.1656463000108,,,,,,,,,,,,,,,,,,,,,,,,,,,,,,,,,,,,,,,,,,,,,,,,,,663.1496632000199,663.1656463000108,663.6658012000262,663.6492717000074,663.6519191000261,663.6658012000262,663.6658012000262,663.6658012000262,665.3995839999989,Foils\098a.jpg,none,n,1.7203188000130467,None,,,,,,,,00046,001,2026-01-18_11h48.54.013,MST_test,2024.2.0,59.976920879665514,2026-01-18 11h49.04.893250 +0530,
125,0,126,s,2.453695299976971,None,126,0,125,665.4156468000147,,,,,,,,,,,,,,,,,,,,,,,,,,,,,,,,,,,,,,,,,,,,,,,,,,665.399676800007,665.4156468000147,665.9158153000171,665.8991742000217,665.9088091999874,665.9158153000171,665.9158153000171,665.9158153000171,668.3828569999896,Objects\279b.jpg,mid,s,2.453695299976971,None,,,,,,,,00046,001,2026-01-18_11h48.54.013,MST_test,2024.2.0,59.976920879665514,2026-01-18 11h49.04.893250 +0530,
126,0,127,o,1.478783900034614,None,127,0,126,668.3989727000007,,,,,,,,,,,,,,,,,,,,,,,,,,,,,,,,,,,,,,,,,,,,,,,,,,668.3829493999947,668.3989727000007,668.8992077999865,668.8824731999775,668.8920675999834,668.8992077999865,668.8992077999865,668.8992077999865,670.3830078000319,Objects\192b.jpg,mid,o,1.478783900034614,None,,,,,,,,00046,001,2026-01-18_11h48.54.013,MST_test,2024.2.0,59.976920879665514,2026-01-18 11h49.04.893250 +0530,
127,0,128,o,3.3987636000383645,None,128,0,127,670.3990316999843,,,,,,,,,,,,,,,,,,,,,,,,,,,,,,,,,,,,,,,,,,,,,,,,,,670.3830955000012,670.3990316999843,670.8994619000005,670.882562600018,670.8847531999927,670.8994619000005,670.8994619000005,670.8994619000005,674.2996838000254,Objects\343a.jpg,pre,o,3.3987636000383645,None,,,,,,,,00046,001,2026-01-18_11h48.54.013,MST_test,2024.2.0,59.976920879665514,2026-01-18 11h49.04.893250 +0530,
128,0,129,n,1.6178476000204682,None,129,0,128,674.3157667000196,,,,,,,,,,,,,,,,,,,,,,,,,,,,,,,,,,,,,,,,,,,,,,,,,,674.2997769999783,674.3157667000196,674.816028500034,674.7993471000227,674.8024744000286,674.816028500034,674.816028500034,674.816028500034,676.4497765999986,Objects\157b.jpg,mid,n,1.6178476000204682,None,,,,,,,,00046,001,2026-01-18_11h48.54.013,MST_test,2024.2.0,59.976920879665514,2026-01-18 11h49.04.893250 +0530,
129,0,130,n,1.4601502000004984,None,130,0,129,676.4657819999848,,,,,,,,,,,,,,,,,,,,,,,,,,,,,,,,,,,,,,,,,,,,,,,,,,676.4498730000341,676.4657819999848,676.9660054999986,676.9492689000326,676.9518275000155,676.9660054999986,676.9660054999986,676.9660054999986,678.4328953999793,Foils\106a.jpg,none,n,1.4601502000004984,None,,,,,,,,00046,001,2026-01-18_11h48.54.013,MST_test,2024.2.0,59.976920879665514,2026-01-18 11h49.04.893250 +0530,
130,0,131,s,1.651835500029847,None,131,0,130,678.4490858000354,,,,,,,,,,,,,,,,,,,,,,,,,,,,,,,,,,,,,,,,,,,,,,,,,,678.4329902000027,678.4490858000354,678.9495395999984,678.9327907999977,678.9354307000176,678.9495395999984,678.9495395999984,678.9495395999984,680.6163589000353,Objects\337a.jpg,pre,s,1.651835500029847,None,,,,,,,,00046,001,2026-01-18_11h48.54.013,MST_test,2024.2.0,59.976920879665514,2026-01-18 11h49.04.893250 +0530,
131,0,132,n,2.2054142000270076,None,132,0,131,680.6322955000214,,,,,,,,,,,,,,,,,,,,,,,,,,,,,,,,,,,,,,,,,,,,,,,,,,680.6164453999954,680.6322955000214,681.1325868000276,681.1160302999779,681.1261589999776,681.1325868000276,681.1325868000276,681.1325868000276,683.349535699992,Foils\073a.jpg,none,n,2.2054142000270076,None,,,,,,,,00046,001,2026-01-18_11h48.54.013,MST_test,2024.2.0,59.976920879665514,2026-01-18 11h49.04.893250 +0530,
132,0,133,n,3.1275788000202738,None,133,0,132,683.3656617000233,,,,,,,,,,,,,,,,,,,,,,,,,,,,,,,,,,,,,,,,,,,,,,,,,,683.349631900026,683.3656617000233,683.8658694000333,683.8493600999936,683.8518683000002,683.8658694000333,683.8658694000333,683.8658694000333,686.9996808000142,Foils\113a.jpg,none,n,3.1275788000202738,None,,,,,,,,00046,001,2026-01-18_11h48.54.013,MST_test,2024.2.0,59.976920879665514,2026-01-18 11h49.04.893250 +0530,
133,0,134,o,1.3977822000160813,None,134,0,133,687.015672700014,,,,,,,,,,,,,,,,,,,,,,,,,,,,,,,,,,,,,,,,,,,,,,,,,,686.9997715000063,687.015672700014,687.5162427999894,687.499333499989,687.5093611000339,687.5162427999894,687.5162427999894,687.5162427999894,688.9164108000114,Objects\310b.jpg,pre,o,1.3977822000160813,None,,,,,,,,00046,001,2026-01-18_11h48.54.013,MST_test,2024.2.0,59.976920879665514,2026-01-18 11h49.04.893250 +0530,
134,0,135,n,5.968701799982227,None,135,0,134,688.9324989999877,,,,,,,,,,,,,,,,,,,,,,,,,,,,,,,,,,,,,,,,,,,,,,,,,,688.9165057000355,688.9324989999877,689.432734699978,689.4160036999965,689.4193692000117,689.432734699978,689.432734699978,689.432734699978,695.4163902000291,Foils\034a.jpg,none,n,5.968701799982227,None,,,,,,,,00046,001,2026-01-18_11h48.54.013,MST_test,2024.2.0,59.976920879665514,2026-01-18 11h49.04.893250 +0530,
135,0,136,n,1.1808257999946363,None,136,0,135,695.4323913999833,,,,,,,,,,,,,,,,,,,,,,,,,,,,,,,,,,,,,,,,,,,,,,,,,,695.4164805000182,695.4323913999833,695.932634900033,695.9159623000305,695.9189191000187,695.932634900033,695.932634900033,695.932634900033,697.1162659000256,Foils\033a.jpg,none,n,1.1808257999946363,None,,,,,,,,00046,001,2026-01-18_11h48.54.013,MST_test,2024.2.0,59.976920879665514,2026-01-18 11h49.04.893250 +0530,
136,0,137,o,1.3050741999759339,None,137,0,136,697.1324040000327,,,,,,,,,,,,,,,,,,,,,,,,,,,,,,,,,,,,,,,,,,,,,,,,,,697.1163638000144,697.1324040000327,697.6327456000145,697.6159122000099,697.6188023000141,697.6327456000145,697.6327456000145,697.6327456000145,698.949574200029,Objects\314a.jpg,pre,o,1.3050741999759339,None,,,,,,,,00046,001,2026-01-18_11h48.54.013,MST_test,2024.2.0,59.976920879665514,2026-01-18 11h49.04.893250 +0530,
137,0,138,s,1.4636552999727428,None,138,0,137,698.9657826999901,,,,,,,,,,,,,,,,,,,,,,,,,,,,,,,,,,,,,,,,,,,,,,,,,,698.9496657000273,698.9657826999901,699.4661122999969,699.4493299000314,699.4609764000052,699.4661122999969,699.4661122999969,699.4661122999969,700.9330144000123,Objects\020b.jpg,pre,s,1.4636552999727428,None,,,,,,,,00046,001,2026-01-18_11h48.54.013,MST_test,2024.2.0,59.976920879665514,2026-01-18 11h49.04.893250 +0530,
138,0,139,o,1.656672700017225,None,139,0,138,700.9490231000236,,,,,,,,,,,,,,,,,,,,,,,,,,,,,,,,,,,,,,,,,,,,,,,,,,700.9331129000057,700.9490231000236,701.449484199984,701.4326170000131,701.4355303000193,701.449484199984,701.449484199984,701.449484199984,703.1163190000225,Objects\362a.jpg,post,o,1.656672700017225,None,,,,,,,,00046,001,2026-01-18_11h48.54.013,MST_test,2024.2.0,59.976920879665514,2026-01-18 11h49.04.893250 +0530,
139,0,140,s,3.7780642000143416,None,140,0,139,703.1324470000109,,,,,,,,,,,,,,,,,,,,,,,,,,,,,,,,,,,,,,,,,,,,,,,,,,703.1164132999838,703.1324470000109,703.6327963999938,703.6160353000159,703.619385100028,703.6327963999938,703.6327963999938,703.6327963999938,707.4163507000194,Objects\069a.jpg,mid,s,3.7780642000143416,None,,,,,,,,00046,001,2026-01-18_11h48.54.013,MST_test,2024.2.0,59.976920879665514,2026-01-18 11h49.04.893250 +0530,
140,0,141,n,2.990209000010509,None,141,0,140,707.432430099987,,,,,,,,,,,,,,,,,,,,,,,,,,,,,,,,,,,,,,,,,,,,,,,,,,707.4164411000093,707.432430099987,707.9325341000222,707.9159544000286,707.9188516000286,707.9325341000222,707.9325341000222,707.9325341000222,710.9329351999913,Foils\017a.jpg,none,n,2.990209000010509,None,,,,,,,,00046,001,2026-01-18_11h48.54.013,MST_test,2024.2.0,59.976920879665514,2026-01-18 11h49.04.893250 +0530,
141,0,142,s,1.521502599993255,None,142,0,141,710.9489614000195,,,,,,,,,,,,,,,,,,,,,,,,,,,,,,,,,,,,,,,,,,,,,,,,,,710.933026099985,710.9489614000195,711.4491937999846,711.432674199983,711.442471700022,711.4491937999846,711.4491937999846,711.4491937999846,712.9829583999817,Objects\016b.jpg,mid,s,1.521502599993255,None,,,,,,,,00046,001,2026-01-18_11h48.54.013,MST_test,2024.2.0,59.976920879665514,2026-01-18 11h49.04.893250 +0530,
142,0,143,n,1.7591603000182658,None,143,0,142,712.9991778000258,,,,,,,,,,,,,,,,,,,,,,,,,,,,,,,,,,,,,,,,,,,,,,,,,,712.9830486000283,712.9991778000258,713.4993406999856,713.4825635000016,713.4852859000093,713.4993406999856,713.4993406999856,713.4993406999856,715.266757800011,Foils\010a.jpg,none,n,1.7591603000182658,None,,,,,,,,00046,001,2026-01-18_11h48.54.013,MST_test,2024.2.0,59.976920879665514,2026-01-18 11h49.04.893250 +0530,
143,0,144,s,6.66692690004129,None,144,0,143,715.282435400004,,,,,,,,,,,,,,,,,,,,,,,,,,,,,,,,,,,,,,,,,,,,,,,,,,715.2668579000165,715.282435400004,715.7824783999822,715.7659958000295,715.7688112999895,715.7824783999822,715.7824783999822,715.7824783999822,722.4500150000094,Objects\186a.jpg,mid,s,6.66692690004129,None,,,,,,,,00046,001,2026-01-18_11h48.54.013,MST_test,2024.2.0,59.976920879665514,2026-01-18 11h49.04.893250 +0530,
144,0,145,n,3.332065299968235,None,145,0,144,722.4658088000142,,,,,,,,,,,,,,,,,,,,,,,,,,,,,,,,,,,,,,,,,,,,,,,,,,722.4501056000008,722.4658088000142,722.9660565999802,722.9494007999892,722.9523648000322,722.9660565999802,722.9660565999802,722.9660565999802,726.2998484999989,Foils\020b.jpg,none,n,3.332065299968235,None,,,,,,,,00046,001,2026-01-18_11h48.54.013,MST_test,2024.2.0,59.976920879665514,2026-01-18 11h49.04.893250 +0530,
145,0,146,o,1.8338229000219144,None,146,0,145,726.3157787999953,,,,,,,,,,,,,,,,,,,,,,,,,,,,,,,,,,,,,,,,,,,,,,,,,,726.2999461999862,726.3157787999953,726.8160082999966,726.7993155000149,726.8092647999874,726.8160082999966,726.8160082999966,726.8160082999966,728.6665273000253,Objects\297b.jpg,mid,o,1.8338229000219144,None,,,,,,,,00046,001,2026-01-18_11h48.54.013,MST_test,2024.2.0,59.976920879665514,2026-01-18 11h49.04.893250 +0530,
146,0,147,o,2.251859699958004,None,147,0,146,728.6823355000233,,,,,,,,,,,,,,,,,,,,,,,,,,,,,,,,,,,,,,,,,,,,,,,,,,728.6666231999989,728.6823355000233,729.1826073999982,729.1658370000077,729.169315600011,729.1826073999982,729.1826073999982,729.1826073999982,731.4495543999947,Objects\162a.jpg,post,o,2.251859699958004,None,,,,,,,,00046,001,2026-01-18_11h48.54.013,MST_test,2024.2.0,59.976920879665514,2026-01-18 11h49.04.893250 +0530,
147,0,148,o,1.2278207000344992,None,148,0,147,731.4656733000302,,,,,,,,,,,,,,,,,,,,,,,,,,,,,,,,,,,,,,,,,,,,,,,,,,731.4496436000336,731.4656733000302,731.9660900000017,731.9493223000318,731.951692200033,731.9660900000017,731.9660900000017,731.9660900000017,733.1995343000162,Objects\231a.jpg,mid,o,1.2278207000344992,None,,,,,,,,00046,001,2026-01-18_11h48.54.013,MST_test,2024.2.0,59.976920879665514,2026-01-18 11h49.04.893250 +0530,
148,0,149,s,4.005535300006159,None,149,0,148,733.2156202000333,,,,,,,,,,,,,,,,,,,,,,,,,,,,,,,,,,,,,,,,,,,,,,,,,,733.1996250000084,733.2156202000333,733.7160394000239,733.6993169999914,733.709846200014,733.7160394000239,733.7160394000239,733.7160394000239,737.7329084000085,Objects\072b.jpg,mid,s,4.005535300006159,None,,,,,,,,00046,001,2026-01-18_11h48.54.013,MST_test,2024.2.0,59.976920879665514,2026-01-18 11h49.04.893250 +0530,
149,0,150,n,2.8895794000127353,None,150,0,149,737.7489615000086,,,,,,,,,,,,,,,,,,,,,,,,,,,,,,,,,,,,,,,,,,,,,,,,,,737.7329994000029,737.7489615000086,738.2492028999841,738.2325449000346,738.2352958000265,738.2492028999841,738.2492028999841,738.2492028999841,741.1495118000312,Objects\106a.jpg,post,n,2.8895794000127353,None,,,,,,,,00046,001,2026-01-18_11h48.54.013,MST_test,2024.2.0,59.976920879665514,2026-01-18 11h49.04.893250 +0530,
,,,,,,,,,,,,,,,,,,,,,,,,,,,,,,,,,,,,,,,,,,,,,,,,,,,,,,,,,,,,,,,,,,,,,,,,,741.1495748999878,741.1657025000313,741.1657025000313,743.3326286000083,space,2.1645772999618202,None,00046,001,2026-01-18_11h48.54.013,MST_test,2024.2.0,59.976920879665514,2026-01-18 11h49.04.893250 +0530,
