thisN,thisTrialN,thisRepN,key_resp_3.keys,key_resp_3.rt,key_resp_3.duration,trials.thisRepN,trials.thisTrialN,trials.thisN,thisRow.t,notes,intro_page.started,text.started,key_resp.started,intro_page.stopped,key_resp.keys,key_resp.rt,key_resp.duration,instructions.started,text_2.started,key_resp_2.started,instructions.stopped,key_resp_2.keys,key_resp_2.rt,key_resp_2.duration,demo1.started,image_1.started,image_2.started,text_7.started,key_resp_6.started,text_9.started,demo1.stopped,key_resp_6.keys,key_resp_6.rt,key_resp_6.duration,demo3.started,image_5.started,image_6.started,text_11.started,text_12.started,key_resp_8.started,demo3.stopped,key_resp_8.keys,key_resp_8.rt,key_resp_8.duration,demo_conclusion.started,text_13.started,key_resp_9.started,demo_conclusion.stopped,key_resp_9.keys,key_resp_9.rt,key_resp_9.duration,start_test.started,text_6.started,key_resp_5.started,start_test.stopped,key_resp_5.keys,key_resp_5.rt,key_resp_5.duration,ISI.started,text_4.started,ISI.stopped,routine_1.started,image.started,text_3.started,key_resp_3.started,routine_1.stopped,image_path,position_of_stimuli,trials.key_resp_3.keys,trials.key_resp_3.rt,trials.key_resp_3.duration,text_4.stopped,End_page.started,text_5.started,key_resp_4.started,End_page.stopped,key_resp_4.keys,key_resp_4.rt,key_resp_4.duration,participant,session,date,expName,psychopyVersion,frameRate,expStart,
,,,,,,,,,,,0.0063115000375546515,0.02255009999498725,0.02255009999498725,3.0874990000156686,space,3.04700610000873,None,,,,,,,,,,,,,,,,,,,,,,,,,,,,,,,,,,,,,,,,,,,,,,,,,,,,,,,,,,,,,,,00048,001,2026-01-18_13h09.21.414,MST_test,2024.2.0,59.74818530746415,2026-01-18 13h09.34.729595 +0530,
,,,,,,,,,,,,,,,,,,3.087533100042492,3.1017836999963038,3.1017836999963038,14.710006200009957,space,11.593356499972288,None,,,,,,,,,,,,,,,,,,,,,,,,,,,,,,,,,,,,,,,,,,,,,,,,,,,,,,,,00048,001,2026-01-18_13h09.21.414,MST_test,2024.2.0,59.74818530746415,2026-01-18 13h09.34.729595 +0530,
,,,,,,,,,,,,,,,,,,,,,,,,,14.710033600043971,14.725831900024787,14.725831900024787,14.725831900024787,14.725831900024787,14.725831900024787,18.974951100011822,space,4.232362199982163,None,,,,,,,,,,,,,,,,,,,,,,,,,,,,,,,,,,,,,,,,,,,,,,00048,001,2026-01-18_13h09.21.414,MST_test,2024.2.0,59.74818530746415,2026-01-18 13h09.34.729595 +0530,
,,,,,,,,,,,,,,,,,,,,,,,,,,,,,,,,,,,18.974980200000573,18.991022200032603,18.991022200032603,18.991022200032603,18.991022200032603,18.991022200032603,25.815851200022735,space,6.822591400006786,None,,,,,,,,,,,,,,,,,,,,,,,,,,,,,,,,,,,,00048,001,2026-01-18_13h09.21.414,MST_test,2024.2.0,59.74818530746415,2026-01-18 13h09.34.729595 +0530,
,,,,,,,,,,,,,,,,,,,,,,,,,,,,,,,,,,,,,,,,,,,,,25.815881000016816,25.831558800011408,25.831558800011408,59.14888970000902,space,33.30246509995777,None,,,,,,,,,,,,,,,,,,,,,,,,,,,,,00048,001,2026-01-18_13h09.21.414,MST_test,2024.2.0,59.74818530746415,2026-01-18 13h09.34.729595 +0530,
,,,,,,,,,,,,,,,,,,,,,,,,,,,,,,,,,,,,,,,,,,,,,,,,,,,,59.14893329999177,59.18151040002704,59.18151040002704,132.4387532999972,space,73.24802370002726,None,,,,,,,,,,,,,,,,,,,,,,00048,001,2026-01-18_13h09.21.414,MST_test,2024.2.0,59.74818530746415,2026-01-18 13h09.34.729595 +0530,
0,0,1,s,4.816250100033358,None,1,0,0,132.45478279999224,,,,,,,,,,,,,,,,,,,,,,,,,,,,,,,,,,,,,,,,,,,,,,,,,,132.44162350002443,132.45478279999224,132.93996500002686,132.96111900004325,132.97325070004445,132.97325070004445,132.97325070004445,137.79072550003184,Objects\384b.jpg,post,s,4.816250100033358,None,,,,,,,,,00048,001,2026-01-18_13h09.21.414,MST_test,2024.2.0,59.74818530746415,2026-01-18 13h09.34.729595 +0530,
1,0,2,o,6.032070800021756,None,2,0,1,137.8071345000062,,,,,,,,,,,,,,,,,,,,,,,,,,,,,,,,,,,,,,,,,,,,,,,,,,137.79082180000842,137.8071345000062,138.2919786000275,138.29968330002157,138.32658160000574,138.32658160000574,138.32658160000574,144.36431060003815,Objects\172a.jpg,mid,o,6.032070800021756,None,,,,,,,,,00048,001,2026-01-18_13h09.21.414,MST_test,2024.2.0,59.74818530746415,2026-01-18 13h09.34.729595 +0530,
2,0,3,s,2.5972632999764755,None,3,0,2,144.37986410001758,,,,,,,,,,,,,,,,,,,,,,,,,,,,,,,,,,,,,,,,,,,,,,,,,,144.36442860000534,144.37986410001758,144.86522830004105,144.86812420003116,144.88160389999393,144.88160389999393,144.88160389999393,147.4914499000297,Objects\047a.jpg,mid,s,2.5972632999764755,None,,,,,,,,,00048,001,2026-01-18_13h09.21.414,MST_test,2024.2.0,59.74818530746415,2026-01-18 13h09.34.729595 +0530,
3,0,4,s,3.52318669995293,None,4,0,3,147.50761520001106,,,,,,,,,,,,,,,,,,,,,,,,,,,,,,,,,,,,,,,,,,,,,,,,,,147.49164490000112,147.50761520001106,147.99258070002543,148.0097434000345,148.0270615000045,148.0270615000045,148.0270615000045,151.55561179999495,Objects\303b.jpg,mid,s,3.52318669995293,None,,,,,,,,,00048,001,2026-01-18_13h09.21.414,MST_test,2024.2.0,59.74818530746415,2026-01-18 13h09.34.729595 +0530,
4,0,5,n,4.947075299976859,None,5,0,4,151.57184240000788,,,,,,,,,,,,,,,,,,,,,,,,,,,,,,,,,,,,,,,,,,,,,,,,,,151.55570440000156,151.57184240000788,152.05679830000736,152.0653318000259,152.0903161999886,152.0903161999886,152.0903161999886,157.04149830003735,Foils\049a.jpg,none,n,4.947075299976859,None,,,,,,,,,00048,001,2026-01-18_13h09.21.414,MST_test,2024.2.0,59.74818530746415,2026-01-18 13h09.34.729595 +0530,
5,0,6,s,5.7188864999916404,None,6,0,5,157.0576093000127,,,,,,,,,,,,,,,,,,,,,,,,,,,,,,,,,,,,,,,,,,,,,,,,,,157.0416053000372,157.0576093000127,157.54279350000434,157.5455951000331,157.55933660001028,157.55933660001028,157.55933660001028,163.280262699991,Objects\116a.jpg,post,s,5.7188864999916404,None,,,,,,,,,00048,001,2026-01-18_13h09.21.414,MST_test,2024.2.0,59.74818530746415,2026-01-18 13h09.34.729595 +0530,
6,0,7,s,4.543227099988144,None,7,0,6,163.2962349000154,,,,,,,,,,,,,,,,,,,,,,,,,,,,,,,,,,,,,,,,,,,,,,,,,,163.28035590000218,163.2962349000154,163.78119660000084,163.79058130003978,163.81458060001023,163.81458060001023,163.81458060001023,168.36441360000754,Objects\009b.jpg,post,s,4.543227099988144,None,,,,,,,,,00048,001,2026-01-18_13h09.21.414,MST_test,2024.2.0,59.74818530746415,2026-01-18 13h09.34.729595 +0530,
7,0,8,o,3.802727300033439,None,8,0,7,168.3809375000419,,,,,,,,,,,,,,,,,,,,,,,,,,,,,,,,,,,,,,,,,,,,,,,,,,168.36450620001415,168.3809375000419,168.8656706000329,168.87389019998955,168.8993094000034,168.8993094000034,168.8993094000034,172.71307970001362,Objects\304a.jpg,mid,o,3.802727300033439,None,,,,,,,,,00048,001,2026-01-18_13h09.21.414,MST_test,2024.2.0,59.74818530746415,2026-01-18 13h09.34.729595 +0530,
8,0,9,s,6.013179399946239,None,9,0,8,172.72915200004354,,,,,,,,,,,,,,,,,,,,,,,,,,,,,,,,,,,,,,,,,,,,,,,,,,172.71317460003775,172.72915200004354,173.21437810000498,173.22247380000772,173.24863670003833,173.24863670003833,173.24863670003833,179.26927300001262,Objects\199a.jpg,pre,s,6.013179399946239,None,,,,,,,,,00048,001,2026-01-18_13h09.21.414,MST_test,2024.2.0,59.74818530746415,2026-01-18 13h09.34.729595 +0530,
9,0,10,s,1.8338293000124395,None,10,0,9,179.28555180004332,,,,,,,,,,,,,,,,,,,,,,,,,,,,,,,,,,,,,,,,,,,,,,,,,,179.26936560001923,179.28555180004332,179.7705188000109,179.786642400024,179.80403790000128,179.80403790000128,179.80403790000128,181.64442810002947,Objects\016b.jpg,post,s,1.8338293000124395,None,,,,,,,,,00048,001,2026-01-18_13h09.21.414,MST_test,2024.2.0,59.74818530746415,2026-01-18 13h09.34.729595 +0530,
10,0,11,o,3.5785175999626517,None,11,0,10,181.6604165000026,,,,,,,,,,,,,,,,,,,,,,,,,,,,,,,,,,,,,,,,,,,,,,,,,,181.6445204000338,181.6604165000026,182.14563580002869,182.15528559999075,182.17888409999432,182.17888409999432,182.17888409999432,185.75885169999674,Objects\327a.jpg,pre,o,3.5785175999626517,None,,,,,,,,,00048,001,2026-01-18_13h09.21.414,MST_test,2024.2.0,59.74818530746415,2026-01-18 13h09.34.729595 +0530,
11,0,12,s,6.280564900022,None,12,0,11,185.77494339999976,,,,,,,,,,,,,,,,,,,,,,,,,,,,,,,,,,,,,,,,,,,,,,,,,,185.75894510000944,185.77494339999976,186.2599121000385,186.2681590000284,186.29342090000864,186.29342090000864,186.29342090000864,192.58269200002542,Objects\147a.jpg,post,s,6.280564900022,None,,,,,,,,,00048,001,2026-01-18_13h09.21.414,MST_test,2024.2.0,59.74818530746415,2026-01-18 13h09.34.729595 +0530,
12,0,13,o,4.584731499955524,None,13,0,12,192.5992513000383,,,,,,,,,,,,,,,,,,,,,,,,,,,,,,,,,,,,,,,,,,,,,,,,,,192.5827864999883,192.5992513000383,193.08413450000808,193.0991922999965,193.1172069000313,193.1172069000313,193.1172069000313,197.71751570003107,Objects\368b.jpg,post,o,4.584731499955524,None,,,,,,,,,00048,001,2026-01-18_13h09.21.414,MST_test,2024.2.0,59.74818530746415,2026-01-18 13h09.34.729595 +0530,
13,0,14,o,7.809839699999429,None,14,0,13,197.73348350002198,,,,,,,,,,,,,,,,,,,,,,,,,,,,,,,,,,,,,,,,,,,,,,,,,,197.7176137000206,197.73348350002198,198.2187469000346,198.23588550003478,198.25201560003916,198.25201560003916,198.25201560003916,206.06330030004028,Objects\197b.jpg,pre,o,7.809839699999429,None,,,,,,,,,00048,001,2026-01-18_13h09.21.414,MST_test,2024.2.0,59.74818530746415,2026-01-18 13h09.34.729595 +0530,
14,0,15,s,4.367988499987405,None,15,0,14,206.07986890000757,,,,,,,,,,,,,,,,,,,,,,,,,,,,,,,,,,,,,,,,,,,,,,,,,,206.0633970000199,206.07986890000757,206.5646168999956,206.57959100004518,206.5977387999883,206.5977387999883,206.5977387999883,210.98042850004276,Objects\184b.jpg,mid,s,4.367988499987405,None,,,,,,,,,00048,001,2026-01-18_13h09.21.414,MST_test,2024.2.0,59.74818530746415,2026-01-18 13h09.34.729595 +0530,
15,0,16,s,3.338679200038314,None,16,0,15,210.99660380004207,,,,,,,,,,,,,,,,,,,,,,,,,,,,,,,,,,,,,,,,,,,,,,,,,,210.98052780004218,210.99660380004207,211.48157540004468,211.49085589998867,211.51508820004528,211.51508820004528,211.51508820004528,214.86084090004442,Objects\150b.jpg,pre,s,3.338679200038314,None,,,,,,,,,00048,001,2026-01-18_13h09.21.414,MST_test,2024.2.0,59.74818530746415,2026-01-18 13h09.34.729595 +0530,
16,0,17,n,8.251101500005461,None,17,0,16,214.87674929999048,,,,,,,,,,,,,,,,,,,,,,,,,,,,,,,,,,,,,,,,,,,,,,,,,,214.86094069998944,214.87674929999048,215.36210279999068,215.37182910001138,215.39522970002145,215.39522970002145,215.39522970002145,223.65816650004126,Objects\337b.jpg,pre,n,8.251101500005461,None,,,,,,,,,00048,001,2026-01-18_13h09.21.414,MST_test,2024.2.0,59.74818530746415,2026-01-18 13h09.34.729595 +0530,
17,0,18,n,7.364804499957245,None,18,0,17,223.67432079999708,,,,,,,,,,,,,,,,,,,,,,,,,,,,,,,,,,,,,,,,,,,,,,,,,,223.65826759999618,223.67432079999708,224.15929620002862,224.16894140001386,224.19282960001146,224.19282960001146,224.19282960001146,231.56936860003043,Objects\034b.jpg,post,n,7.364804499957245,None,,,,,,,,,00048,001,2026-01-18_13h09.21.414,MST_test,2024.2.0,59.74818530746415,2026-01-18 13h09.34.729595 +0530,
18,0,19,s,6.216069300018717,None,19,0,18,231.58537909999723,,,,,,,,,,,,,,,,,,,,,,,,,,,,,,,,,,,,,,,,,,,,,,,,,,231.56946760002756,231.58537909999723,232.07061920000706,232.07318920001853,232.08717700000852,232.08717700000852,232.08717700000852,238.3094897000119,Foils\042a.jpg,none,s,6.216069300018717,None,,,,,,,,,00048,001,2026-01-18_13h09.21.414,MST_test,2024.2.0,59.74818530746415,2026-01-18 13h09.34.729595 +0530,
19,0,20,s,2.0741121000028215,None,20,0,19,238.3256464000442,,,,,,,,,,,,,,,,,,,,,,,,,,,,,,,,,,,,,,,,,,,,,,,,,,238.30958550004289,238.3256464000442,238.81076429999666,238.82013460004237,238.84412680001697,238.84412680001697,238.84412680001697,240.91876180004328,Objects\002b.jpg,pre,s,2.0741121000028215,None,,,,,,,,,00048,001,2026-01-18_13h09.21.414,MST_test,2024.2.0,59.74818530746415,2026-01-18 13h09.34.729595 +0530,
20,0,21,n,3.121641499979887,None,21,0,20,240.9346579000121,,,,,,,,,,,,,,,,,,,,,,,,,,,,,,,,,,,,,,,,,,,,,,,,,,240.91885650000768,240.9346579000121,241.4198727000039,241.42290520004462,241.43639590003295,241.43639590003295,241.43639590003295,244.56472800002666,Foils\081a.jpg,none,n,3.121641499979887,None,,,,,,,,,00048,001,2026-01-18_13h09.21.414,MST_test,2024.2.0,59.74818530746415,2026-01-18 13h09.34.729595 +0530,
21,0,22,o,4.659182199975476,None,22,0,21,244.58074420003686,,,,,,,,,,,,,,,,,,,,,,,,,,,,,,,,,,,,,,,,,,,,,,,,,,244.5648221000447,244.58074420003686,245.0659677000367,245.0726576000452,245.08249350002734,245.08249350002734,245.08249350002734,249.74961850000545,Objects\375a.jpg,mid,o,4.659182199975476,None,,,,,,,,,00048,001,2026-01-18_13h09.21.414,MST_test,2024.2.0,59.74818530746415,2026-01-18 13h09.34.729595 +0530,
22,0,23,o,5.851293899992015,None,23,0,22,249.76559299998917,,,,,,,,,,,,,,,,,,,,,,,,,,,,,,,,,,,,,,,,,,,,,,,,,,249.74971820000792,249.76559299998917,250.25090020004427,250.25844520004466,250.26659000001382,250.26659000001382,250.26659000001382,256.12229379999917,Objects\146a.jpg,mid,o,5.851293899992015,None,,,,,,,,,00048,001,2026-01-18_13h09.21.414,MST_test,2024.2.0,59.74818530746415,2026-01-18 13h09.34.729595 +0530,
23,0,24,s,3.5968064999906346,None,24,0,23,256.13855430000694,,,,,,,,,,,,,,,,,,,,,,,,,,,,,,,,,,,,,,,,,,,,,,,,,,256.12239420000697,256.13855430000694,256.6229921000195,256.63198559999,256.6564912000322,256.6564912000322,256.6564912000322,260.2697124000406,Objects\345b.jpg,mid,s,3.5968064999906346,None,,,,,,,,,00048,001,2026-01-18_13h09.21.414,MST_test,2024.2.0,59.74818530746415,2026-01-18 13h09.34.729595 +0530,
24,0,25,s,1.4737885000067763,None,25,0,24,260.2857767000096,,,,,,,,,,,,,,,,,,,,,,,,,,,,,,,,,,,,,,,,,,,,,,,,,,260.26980440004263,260.2857767000096,260.77095490001375,260.78476050001336,260.8043700000271,260.8043700000271,260.8043700000271,262.2933353999979,Objects\210b.jpg,mid,s,1.4737885000067763,None,,,,,,,,,00048,001,2026-01-18_13h09.21.414,MST_test,2024.2.0,59.74818530746415,2026-01-18 13h09.34.729595 +0530,
25,0,26,s,11.281741900020279,None,26,0,25,262.3095171999885,,,,,,,,,,,,,,,,,,,,,,,,,,,,,,,,,,,,,,,,,,,,,,,,,,262.29342890001135,262.3095171999885,262.7948396000429,262.81089810002595,262.828116699995,262.828116699995,262.828116699995,274.11861530004535,Objects\236b.jpg,pre,s,11.281741900020279,None,,,,,,,,,00048,001,2026-01-18_13h09.21.414,MST_test,2024.2.0,59.74818530746415,2026-01-18 13h09.34.729595 +0530,
26,0,27,s,1.2741580999572761,None,27,0,26,274.13426459999755,,,,,,,,,,,,,,,,,,,,,,,,,,,,,,,,,,,,,,,,,,,,,,,,,,274.11871050001355,274.13426459999755,274.61947060003877,274.63387240003794,274.65274490002776,274.65274490002776,274.65274490002776,275.9418499000021,Objects\249b.jpg,mid,s,1.2741580999572761,None,,,,,,,,,00048,001,2026-01-18_13h09.21.414,MST_test,2024.2.0,59.74818530746415,2026-01-18 13h09.34.729595 +0530,
27,0,28,s,3.884286999993492,None,28,0,27,275.9573115000385,,,,,,,,,,,,,,,,,,,,,,,,,,,,,,,,,,,,,,,,,,,,,,,,,,275.94195020000916,275.9573115000385,276.4424932000111,276.44962560001295,276.45833670004504,276.45833670004504,276.45833670004504,280.35654720000457,Objects\329a.jpg,mid,s,3.884286999993492,None,,,,,,,,,00048,001,2026-01-18_13h09.21.414,MST_test,2024.2.0,59.74818530746415,2026-01-18 13h09.34.729595 +0530,
28,0,29,n,2.5635000999900512,None,29,0,28,280.37289360002615,,,,,,,,,,,,,,,,,,,,,,,,,,,,,,,,,,,,,,,,,,,,,,,,,,280.3566477000131,280.37289360002615,280.8578600999899,280.86601070000324,280.89137160003884,280.89137160003884,280.89137160003884,283.4676427000086,Foils\057a.jpg,none,n,2.5635000999900512,None,,,,,,,,,00048,001,2026-01-18_13h09.21.414,MST_test,2024.2.0,59.74818530746415,2026-01-18 13h09.34.729595 +0530,
29,0,30,s,1.3318163999938406,None,30,0,29,283.4836591000203,,,,,,,,,,,,,,,,,,,,,,,,,,,,,,,,,,,,,,,,,,,,,,,,,,283.46773770003347,283.4836591000203,283.96885960001964,283.974623600021,283.9856146000093,283.9856146000093,283.9856146000093,285.3241139000165,Objects\231a.jpg,post,s,1.3318163999938406,None,,,,,,,,,00048,001,2026-01-18_13h09.21.414,MST_test,2024.2.0,59.74818530746415,2026-01-18 13h09.34.729595 +0530,
30,0,31,s,2.6196042000083253,None,31,0,30,285.34028060000855,,,,,,,,,,,,,,,,,,,,,,,,,,,,,,,,,,,,,,,,,,,,,,,,,,285.32420570001705,285.34028060000855,285.8252891000011,285.8425462000305,285.8587681000354,285.8587681000354,285.8587681000354,288.48508559999755,Objects\297b.jpg,post,s,2.6196042000083253,None,,,,,,,,,00048,001,2026-01-18_13h09.21.414,MST_test,2024.2.0,59.74818530746415,2026-01-18 13h09.34.729595 +0530,
31,0,32,n,1.804187500034459,None,32,0,31,288.50134940003045,,,,,,,,,,,,,,,,,,,,,,,,,,,,,,,,,,,,,,,,,,,,,,,,,,288.4851844999939,288.50134940003045,288.98631090001436,288.99365509999916,289.0021487000049,289.0021487000049,289.0021487000049,290.8101969000418,Foils\073a.jpg,none,n,1.804187500034459,None,,,,,,,,,00048,001,2026-01-18_13h09.21.414,MST_test,2024.2.0,59.74818530746415,2026-01-18 13h09.34.729595 +0530,
32,0,33,s,1.2054051000159234,None,33,0,32,290.82604439998977,,,,,,,,,,,,,,,,,,,,,,,,,,,,,,,,,,,,,,,,,,,,,,,,,,290.81028860004153,290.82604439998977,291.31133870000485,291.31782810000004,291.32790550001664,291.32790550001664,291.32790550001664,292.54954810003983,Objects\233a.jpg,post,s,1.2054051000159234,None,,,,,,,,,00048,001,2026-01-18_13h09.21.414,MST_test,2024.2.0,59.74818530746415,2026-01-18 13h09.34.729595 +0530,
33,0,34,o,5.833341000019573,None,34,0,33,292.56546880002134,,,,,,,,,,,,,,,,,,,,,,,,,,,,,,,,,,,,,,,,,,,,,,,,,,292.54963860003045,292.56546880002134,293.0506747000036,293.0587417000206,293.0848108000355,293.0848108000355,293.0848108000355,298.92164509999566,Objects\138a.jpg,pre,o,5.833341000019573,None,,,,,,,,,00048,001,2026-01-18_13h09.21.414,MST_test,2024.2.0,59.74818530746415,2026-01-18 13h09.34.729595 +0530,
34,0,35,s,10.485372800030746,None,35,0,34,298.9377880000393,,,,,,,,,,,,,,,,,,,,,,,,,,,,,,,,,,,,,,,,,,,,,,,,,,298.92174290004186,298.9377880000393,299.42300499998964,299.43293960002484,299.45627200003946,299.45627200003946,299.45627200003946,309.94364180002594,Objects\279b.jpg,post,s,10.485372800030746,None,,,,,,,,,00048,001,2026-01-18_13h09.21.414,MST_test,2024.2.0,59.74818530746415,2026-01-18 13h09.34.729595 +0530,
35,0,36,o,2.959391799988225,None,36,0,35,309.95990350004286,,,,,,,,,,,,,,,,,,,,,,,,,,,,,,,,,,,,,,,,,,,,,,,,,,309.94373910001013,309.95990350004286,310.44507750001503,310.4482803000137,310.461972900026,310.461972900026,310.461972900026,313.4225391999935,Objects\095a.jpg,pre,o,2.959391799988225,None,,,,,,,,,00048,001,2026-01-18_13h09.21.414,MST_test,2024.2.0,59.74818530746415,2026-01-18 13h09.34.729595 +0530,
36,0,37,o,3.2563521999982186,None,37,0,36,313.43874280003365,,,,,,,,,,,,,,,,,,,,,,,,,,,,,,,,,,,,,,,,,,,,,,,,,,313.42263760004425,313.43874280003365,313.9238753000391,313.9356238000328,313.9573715000297,313.9573715000297,313.9573715000297,317.2192001999938,Objects\063b.jpg,pre,o,3.2563521999982186,None,,,,,,,,,00048,001,2026-01-18_13h09.21.414,MST_test,2024.2.0,59.74818530746415,2026-01-18 13h09.34.729595 +0530,
37,0,38,o,1.4683138999971561,None,38,0,37,317.235433200025,,,,,,,,,,,,,,,,,,,,,,,,,,,,,,,,,,,,,,,,,,,,,,,,,,317.21947459998773,317.235433200025,317.72030380001524,317.723517800041,317.7370493999915,317.7370493999915,317.7370493999915,319.20985300000757,Objects\066a.jpg,post,o,1.4683138999971561,None,,,,,,,,,00048,001,2026-01-18_13h09.21.414,MST_test,2024.2.0,59.74818530746415,2026-01-18 13h09.34.729595 +0530,
38,0,39,o,2.9181674999999814,None,39,0,38,319.2254859000095,,,,,,,,,,,,,,,,,,,,,,,,,,,,,,,,,,,,,,,,,,,,,,,,,,319.2099484000355,319.2254859000095,319.7106826000381,319.72599940001965,319.7439037000295,319.7439037000295,319.7439037000295,322.6714864000096,Objects\309b.jpg,post,o,2.9181674999999814,None,,,,,,,,,00048,001,2026-01-18_13h09.21.414,MST_test,2024.2.0,59.74818530746415,2026-01-18 13h09.34.729595 +0530,
39,0,40,o,4.92176290001953,None,40,0,39,322.6876130999881,,,,,,,,,,,,,,,,,,,,,,,,,,,,,,,,,,,,,,,,,,,,,,,,,,322.6715803000261,322.6876130999881,323.1728757999954,323.1798800000106,323.18847530003404,323.18847530003404,323.18847530003404,328.12389119999716,Objects\317a.jpg,pre,o,4.92176290001953,None,,,,,,,,,00048,001,2026-01-18_13h09.21.414,MST_test,2024.2.0,59.74818530746415,2026-01-18 13h09.34.729595 +0530,
40,0,41,s,1.1633380000130273,None,41,0,40,328.1400379000115,,,,,,,,,,,,,,,,,,,,,,,,,,,,,,,,,,,,,,,,,,,,,,,,,,328.1239873000304,328.1400379000115,328.6252456000075,328.6353230000241,328.65851989999646,328.65851989999646,328.65851989999646,329.8300562000368,Objects\015b.jpg,post,s,1.1633380000130273,None,,,,,,,,,00048,001,2026-01-18_13h09.21.414,MST_test,2024.2.0,59.74818530746415,2026-01-18 13h09.34.729595 +0530,
41,0,42,o,2.777667800022755,None,42,0,41,329.8461354000028,,,,,,,,,,,,,,,,,,,,,,,,,,,,,,,,,,,,,,,,,,,,,,,,,,329.83014939998975,329.8461354000028,330.33112380001694,330.3339416999952,330.34795700001996,330.34795700001996,330.34795700001996,333.14159590000054,Objects\149b.jpg,pre,o,2.777667800022755,None,,,,,,,,,00048,001,2026-01-18_13h09.21.414,MST_test,2024.2.0,59.74818530746415,2026-01-18 13h09.34.729595 +0530,
42,0,43,s,1.402054300007876,None,43,0,42,333.1578953000135,,,,,,,,,,,,,,,,,,,,,,,,,,,,,,,,,,,,,,,,,,,,,,,,,,333.1416944999946,333.1578953000135,333.64281650003977,333.65043010003865,333.6760792999994,333.6760792999994,333.6760792999994,335.08165360003477,Objects\360b.jpg,mid,s,1.402054300007876,None,,,,,,,,,00048,001,2026-01-18_13h09.21.414,MST_test,2024.2.0,59.74818530746415,2026-01-18 13h09.34.729595 +0530,
43,0,44,s,1.6129662000457756,None,44,0,43,335.0982598999981,,,,,,,,,,,,,,,,,,,,,,,,,,,,,,,,,,,,,,,,,,,,,,,,,,335.0817503000144,335.0982598999981,335.58390530000906,335.59075000003213,335.6163255000138,335.6163255000138,335.6163255000138,337.2392773000174,Objects\264a.jpg,post,s,1.6129662000457756,None,,,,,,,,,00048,001,2026-01-18_13h09.21.414,MST_test,2024.2.0,59.74818530746415,2026-01-18 13h09.34.729595 +0530,
44,0,45,o,5.311999200028367,None,45,0,44,337.2554237000295,,,,,,,,,,,,,,,,,,,,,,,,,,,,,,,,,,,,,,,,,,,,,,,,,,337.23937570001,337.2554237000295,337.74037499999395,337.75528670003405,337.7739079000312,337.7739079000312,337.7739079000312,343.0932754999958,Objects\130b.jpg,pre,o,5.311999200028367,None,,,,,,,,,00048,001,2026-01-18_13h09.21.414,MST_test,2024.2.0,59.74818530746415,2026-01-18 13h09.34.729595 +0530,
45,0,46,s,4.08352859999286,None,46,0,45,343.109135900042,,,,,,,,,,,,,,,,,,,,,,,,,,,,,,,,,,,,,,,,,,,,,,,,,,343.0933766000089,343.109135900042,343.5943302999949,343.60423679999076,343.6275938000181,343.6275938000181,343.6275938000181,347.72577509999974,Objects\100b.jpg,post,s,4.08352859999286,None,,,,,,,,,00048,001,2026-01-18_13h09.21.414,MST_test,2024.2.0,59.74818530746415,2026-01-18 13h09.34.729595 +0530,
46,0,47,s,4.8413913999684155,None,47,0,46,347.7421636999934,,,,,,,,,,,,,,,,,,,,,,,,,,,,,,,,,,,,,,,,,,,,,,,,,,347.72586980002234,347.7421636999934,348.2273979000165,348.2368065000046,348.2605069000274,348.2605069000274,348.2605069000274,353.1114823000389,Objects\169b.jpg,mid,s,4.8413913999684155,None,,,,,,,,,00048,001,2026-01-18_13h09.21.414,MST_test,2024.2.0,59.74818530746415,2026-01-18 13h09.34.729595 +0530,
47,0,48,s,5.103629199962597,None,48,0,47,353.12767459999304,,,,,,,,,,,,,,,,,,,,,,,,,,,,,,,,,,,,,,,,,,,,,,,,,,353.1115739000379,353.12767459999304,353.61263430002145,353.62458000000333,353.6461341000395,353.6461341000395,353.6461341000395,358.7646467000013,Objects\272b.jpg,mid,s,5.103629199962597,None,,,,,,,,,00048,001,2026-01-18_13h09.21.414,MST_test,2024.2.0,59.74818530746415,2026-01-18 13h09.34.729595 +0530,
48,0,49,s,1.55615720001515,None,49,0,48,358.78067140001804,,,,,,,,,,,,,,,,,,,,,,,,,,,,,,,,,,,,,,,,,,,,,,,,,,358.76474080001935,358.78067140001804,359.26586780004436,359.2722945000278,359.28165090002585,359.28165090002585,359.28165090002585,360.8388901000144,Objects\373a.jpg,mid,s,1.55615720001515,None,,,,,,,,,00048,001,2026-01-18_13h09.21.414,MST_test,2024.2.0,59.74818530746415,2026-01-18 13h09.34.729595 +0530,
49,0,50,o,2.592759700026363,None,50,0,49,360.8547216000152,,,,,,,,,,,,,,,,,,,,,,,,,,,,,,,,,,,,,,,,,,,,,,,,,,360.83898310002405,360.8547216000152,361.3398080000188,361.34877069998765,361.3732055000146,361.3732055000146,361.3732055000146,363.9669501000317,Objects\212a.jpg,mid,o,2.592759700026363,None,,,,,,,,,00048,001,2026-01-18_13h09.21.414,MST_test,2024.2.0,59.74818530746415,2026-01-18 13h09.34.729595 +0530,
50,0,51,n,2.713105800037738,None,51,0,50,363.98223810002673,,,,,,,,,,,,,,,,,,,,,,,,,,,,,,,,,,,,,,,,,,,,,,,,,,363.9670466000098,363.98223810002673,364.46754760004114,364.4755095000146,364.5007265000022,364.5007265000022,364.5007265000022,367.22755100001814,Foils\106a.jpg,none,n,2.713105800037738,None,,,,,,,,,00048,001,2026-01-18_13h09.21.414,MST_test,2024.2.0,59.74818530746415,2026-01-18 13h09.34.729595 +0530,
51,0,52,n,4.531477199983783,None,52,0,51,367.2436501000193,,,,,,,,,,,,,,,,,,,,,,,,,,,,,,,,,,,,,,,,,,,,,,,,,,367.2276450000354,367.2436501000193,367.72886319999816,367.7387504000217,367.76215299998876,367.76215299998876,367.76215299998876,372.29550619999645,Objects\137b.jpg,post,n,4.531477199983783,None,,,,,,,,,00048,001,2026-01-18_13h09.21.414,MST_test,2024.2.0,59.74818530746415,2026-01-18 13h09.34.729595 +0530,
52,0,53,o,2.072624899970833,None,53,0,52,372.3113912999979,,,,,,,,,,,,,,,,,,,,,,,,,,,,,,,,,,,,,,,,,,,,,,,,,,372.2956034000381,372.3113912999979,372.7966108000255,372.79914060002193,372.8132482999936,372.8132482999936,372.8132482999936,374.88763630000176,Objects\380a.jpg,pre,o,2.072624899970833,None,,,,,,,,,00048,001,2026-01-18_13h09.21.414,MST_test,2024.2.0,59.74818530746415,2026-01-18 13h09.34.729595 +0530,
53,0,54,o,1.512671299977228,None,54,0,53,374.90391719999025,,,,,,,,,,,,,,,,,,,,,,,,,,,,,,,,,,,,,,,,,,,,,,,,,,374.88773509999737,374.90391719999025,375.38888520002365,375.39182040002197,375.40579089999665,375.40579089999665,375.40579089999665,376.9282882999978,Objects\129b.jpg,post,o,1.512671299977228,None,,,,,,,,,00048,001,2026-01-18_13h09.21.414,MST_test,2024.2.0,59.74818530746415,2026-01-18 13h09.34.729595 +0530,
54,0,55,s,2.9672314999625087,None,55,0,54,376.9444000000367,,,,,,,,,,,,,,,,,,,,,,,,,,,,,,,,,,,,,,,,,,,,,,,,,,376.9283809000044,376.9444000000367,377.4293708000332,377.4456199000124,377.4629295000341,377.4629295000341,377.4629295000341,380.44044239999494,Objects\293b.jpg,post,s,2.9672314999625087,None,,,,,,,,,00048,001,2026-01-18_13h09.21.414,MST_test,2024.2.0,59.74818530746415,2026-01-18 13h09.34.729595 +0530,
55,0,56,n,4.583286200009752,None,56,0,55,380.4566770000383,,,,,,,,,,,,,,,,,,,,,,,,,,,,,,,,,,,,,,,,,,,,,,,,,,380.44053990003886,380.4566770000383,380.9418057000148,380.94973580003716,380.97504420002224,380.97504420002224,380.97504420002224,385.5759116000263,Objects\157a.jpg,post,n,4.583286200009752,None,,,,,,,,,00048,001,2026-01-18_13h09.21.414,MST_test,2024.2.0,59.74818530746415,2026-01-18 13h09.34.729595 +0530,
56,0,57,o,1.8640123999794014,None,57,0,56,385.5915081000421,,,,,,,,,,,,,,,,,,,,,,,,,,,,,,,,,,,,,,,,,,,,,,,,,,385.5760096000158,385.5915081000421,386.07649100001436,386.08430950000184,386.1101748000365,386.1101748000365,386.1101748000365,387.98358890000964,Objects\229a.jpg,pre,o,1.8640123999794014,None,,,,,,,,,00048,001,2026-01-18_13h09.21.414,MST_test,2024.2.0,59.74818530746415,2026-01-18 13h09.34.729595 +0530,
57,0,58,n,4.479466799995862,None,58,0,57,387.99982470000396,,,,,,,,,,,,,,,,,,,,,,,,,,,,,,,,,,,,,,,,,,,,,,,,,,387.9836839000345,387.99982470000396,388.4850568000111,388.5016602000105,388.5183134000399,388.5183134000399,388.5183134000399,393.00149560003774,Foils\009a.jpg,none,n,4.479466799995862,None,,,,,,,,,00048,001,2026-01-18_13h09.21.414,MST_test,2024.2.0,59.74818530746415,2026-01-18 13h09.34.729595 +0530,
58,0,59,o,1.7984820999554358,None,59,0,58,393.01751330000116,,,,,,,,,,,,,,,,,,,,,,,,,,,,,,,,,,,,,,,,,,,,,,,,,,393.0015959000448,393.01751330000116,393.502518000023,393.5050017000176,393.51924890000373,393.51924890000373,393.51924890000373,395.32600100000855,Objects\307a.jpg,post,o,1.7984820999554358,None,,,,,,,,,00048,001,2026-01-18_13h09.21.414,MST_test,2024.2.0,59.74818530746415,2026-01-18 13h09.34.729595 +0530,
59,0,60,o,2.4333030999987386,None,60,0,59,395.3421932000201,,,,,,,,,,,,,,,,,,,,,,,,,,,,,,,,,,,,,,,,,,,,,,,,,,395.32609700004105,395.3421932000201,395.82742139999755,395.83478400000604,395.86067860003095,395.86067860003095,395.86067860003095,398.30309180001495,Objects\265b.jpg,pre,o,2.4333030999987386,None,,,,,,,,,00048,001,2026-01-18_13h09.21.414,MST_test,2024.2.0,59.74818530746415,2026-01-18 13h09.34.729595 +0530,
60,0,61,o,1.343644700013101,None,61,0,60,398.31924410001375,,,,,,,,,,,,,,,,,,,,,,,,,,,,,,,,,,,,,,,,,,,,,,,,,,398.30318789999,398.31924410001375,398.80421130004106,398.81241090002004,398.83772030001273,398.83772030001273,398.83772030001273,400.1930443000165,Objects\350a.jpg,mid,o,1.343644700013101,None,,,,,,,,,00048,001,2026-01-18_13h09.21.414,MST_test,2024.2.0,59.74818530746415,2026-01-18 13h09.34.729595 +0530,
61,0,62,s,3.254841799964197,None,62,0,61,400.2092018999974,,,,,,,,,,,,,,,,,,,,,,,,,,,,,,,,,,,,,,,,,,,,,,,,,,400.19314089999534,400.2092018999974,400.69416000001365,400.69897050003055,400.71110190002946,400.71110190002946,400.71110190002946,403.9731752999942,Foils\f6.jpg,none,s,3.254841799964197,None,,,,,,,,,00048,001,2026-01-18_13h09.21.414,MST_test,2024.2.0,59.74818530746415,2026-01-18 13h09.34.729595 +0530,
62,0,63,s,1.8344096000073478,None,63,0,62,403.9890173000167,,,,,,,,,,,,,,,,,,,,,,,,,,,,,,,,,,,,,,,,,,,,,,,,,,403.9732725000358,403.9890173000167,404.47418419999303,404.4815604999894,404.5074653000338,404.5074653000338,404.5074653000338,406.35110080003506,Objects\369a.jpg,post,s,1.8344096000073478,None,,,,,,,,,00048,001,2026-01-18_13h09.21.414,MST_test,2024.2.0,59.74818530746415,2026-01-18 13h09.34.729595 +0530,
63,0,64,o,1.6847791000036523,None,64,0,63,406.36410980002256,,,,,,,,,,,,,,,,,,,,,,,,,,,,,,,,,,,,,,,,,,,,,,,,,,406.3511988000246,406.36410980002256,406.8493719000253,406.85599390004063,406.865046299994,406.865046299994,406.865046299994,408.5556569999899,Objects\277a.jpg,pre,o,1.6847791000036523,None,406.865046299994,,,,,,,,00048,001,2026-01-18_13h09.21.414,MST_test,2024.2.0,59.74818530746415,2026-01-18 13h09.34.729595 +0530,
64,0,65,n,4.500823699985631,None,65,0,64,408.571822500031,,,,,,,,,,,,,,,,,,,,,,,,,,,,,,,,,,,,,,,,,,,,,,,,,,408.55575639999006,408.571822500031,409.0567638000357,409.063816400012,409.07272890000604,409.07272890000604,409.07272890000604,413.5905167000019,Objects\354a.jpg,pre,n,4.500823699985631,None,,,,,,,,,00048,001,2026-01-18_13h09.21.414,MST_test,2024.2.0,59.74818530746415,2026-01-18 13h09.34.729595 +0530,
65,0,66,s,3.954175499966368,None,66,0,65,413.6060058000148,,,,,,,,,,,,,,,,,,,,,,,,,,,,,,,,,,,,,,,,,,,,,,,,,,413.5906103000161,413.6060058000148,414.09121310000774,414.09826020000037,414.10702440002933,414.10702440002933,414.10702440002933,418.0725244000205,Objects\202a.jpg,post,s,3.954175499966368,None,,,,,,,,,00048,001,2026-01-18_13h09.21.414,MST_test,2024.2.0,59.74818530746415,2026-01-18 13h09.34.729595 +0530,
66,0,67,o,6.12796980002895,None,67,0,66,418.0883669999894,,,,,,,,,,,,,,,,,,,,,,,,,,,,,,,,,,,,,,,,,,,,,,,,,,418.0726178000332,418.0883669999894,418.57344990002457,418.58111890003784,418.60706960002426,418.60706960002426,418.60706960002426,424.74563750001835,Objects\252a.jpg,mid,o,6.12796980002895,None,,,,,,,,,00048,001,2026-01-18_13h09.21.414,MST_test,2024.2.0,59.74818530746415,2026-01-18 13h09.34.729595 +0530,
67,0,68,s,3.3001728000235744,None,68,0,67,424.7617526000249,,,,,,,,,,,,,,,,,,,,,,,,,,,,,,,,,,,,,,,,,,,,,,,,,,424.7457307000295,424.7617526000249,425.2469432000071,425.25653479999164,425.2812076000264,425.2812076000264,425.2812076000264,428.59256780002033,Objects\028b.jpg,mid,s,3.3001728000235744,None,,,,,,,,,00048,001,2026-01-18_13h09.21.414,MST_test,2024.2.0,59.74818530746415,2026-01-18 13h09.34.729595 +0530,
68,0,69,n,1.7428418999770656,None,69,0,68,428.6087333000032,,,,,,,,,,,,,,,,,,,,,,,,,,,,,,,,,,,,,,,,,,,,,,,,,,428.59266090003075,428.6087333000032,429.09360399999423,429.09638470003847,429.1105141000007,429.1105141000007,429.1105141000007,430.8671443000203,Foils\101b.jpg,none,n,1.7428418999770656,None,,,,,,,,,00048,001,2026-01-18_13h09.21.414,MST_test,2024.2.0,59.74818530746415,2026-01-18 13h09.34.729595 +0530,
69,0,70,o,2.3156925999792293,None,70,0,69,430.88326510001207,,,,,,,,,,,,,,,,,,,,,,,,,,,,,,,,,,,,,,,,,,,,,,,,,,430.86723730002996,430.88326510001207,431.3684133000206,431.37819540000055,431.4016677000327,431.4016677000327,431.4016677000327,433.7273095000419,Objects\042b.jpg,mid,o,2.3156925999792293,None,,,,,,,,,00048,001,2026-01-18_13h09.21.414,MST_test,2024.2.0,59.74818530746415,2026-01-18 13h09.34.729595 +0530,
70,0,71,n,3.001150499971118,None,71,0,70,433.74384450004436,,,,,,,,,,,,,,,,,,,,,,,,,,,,,,,,,,,,,,,,,,,,,,,,,,433.7274077000329,433.74384450004436,434.22880630003056,434.2317246000166,434.24543750000885,434.24543750000885,434.24543750000885,437.2561596999876,Foils\074a.jpg,none,n,3.001150499971118,None,,,,,,,,,00048,001,2026-01-18_13h09.21.414,MST_test,2024.2.0,59.74818530746415,2026-01-18 13h09.34.729595 +0530,
71,0,72,o,1.3210464000003412,None,72,0,71,437.27232560003176,,,,,,,,,,,,,,,,,,,,,,,,,,,,,,,,,,,,,,,,,,,,,,,,,,437.25625720003154,437.27232560003176,437.75728250003885,437.7600174000254,437.7740696000401,437.7740696000401,437.7740696000401,439.09582869999576,Objects\135a.jpg,pre,o,1.3210464000003412,None,,,,,,,,,00048,001,2026-01-18_13h09.21.414,MST_test,2024.2.0,59.74818530746415,2026-01-18 13h09.34.729595 +0530,
72,0,73,o,3.663994200003799,None,73,0,72,439.1120939000393,,,,,,,,,,,,,,,,,,,,,,,,,,,,,,,,,,,,,,,,,,,,,,,,,,439.0959257000359,439.1120939000393,439.59706669999287,439.599873500003,439.6138692999957,439.6138692999957,439.6138692999957,443.29392020002706,Objects\125a.jpg,pre,o,3.663994200003799,None,,,,,,,,,00048,001,2026-01-18_13h09.21.414,MST_test,2024.2.0,59.74818530746415,2026-01-18 13h09.34.729595 +0530,
73,0,74,o,1.2087719999835826,None,74,0,73,443.3101497000316,,,,,,,,,,,,,,,,,,,,,,,,,,,,,,,,,,,,,,,,,,,,,,,,,,443.2940132000367,443.3101497000316,443.7952154999948,443.806264200015,443.82856940000784,443.82856940000784,443.82856940000784,445.0501199000282,Objects\295b.jpg,pre,o,1.2087719999835826,None,,,,,,,,,00048,001,2026-01-18_13h09.21.414,MST_test,2024.2.0,59.74818530746415,2026-01-18 13h09.34.729595 +0530,
74,0,75,o,1.5166193000040948,None,75,0,74,445.06629690004047,,,,,,,,,,,,,,,,,,,,,,,,,,,,,,,,,,,,,,,,,,,,,,,,,,445.05021120002493,445.06629690004047,445.5514941000147,445.56277520000003,445.58465100004105,445.58465100004105,445.58465100004105,447.1073955000029,Objects\001b.jpg,pre,o,1.5166193000040948,None,,,,,,,,,00048,001,2026-01-18_13h09.21.414,MST_test,2024.2.0,59.74818530746415,2026-01-18 13h09.34.729595 +0530,
75,0,76,s,4.901047500025015,None,76,0,75,447.1233659000136,,,,,,,,,,,,,,,,,,,,,,,,,,,,,,,,,,,,,,,,,,,,,,,,,,447.1074874000042,447.1233659000136,447.60857700003544,447.6186094000004,447.6418674000306,447.6418674000306,447.6418674000306,452.5596871000016,Objects\060b.jpg,mid,s,4.901047500025015,None,,,,,,,,,00048,001,2026-01-18_13h09.21.414,MST_test,2024.2.0,59.74818530746415,2026-01-18 13h09.34.729595 +0530,
76,0,77,n,2.950834199960809,None,77,0,76,452.5760469000088,,,,,,,,,,,,,,,,,,,,,,,,,,,,,,,,,,,,,,,,,,,,,,,,,,452.5597865000018,452.5760469000088,453.06088800000725,453.0735341000254,453.09439000004204,453.09439000004204,453.09439000004204,456.05550620000577,Foils\f5.jpg,none,n,2.950834199960809,None,,,,,,,,,00048,001,2026-01-18_13h09.21.414,MST_test,2024.2.0,59.74818530746415,2026-01-18 13h09.34.729595 +0530,
77,0,78,s,2.6958802999579348,None,78,0,77,456.07161350001115,,,,,,,,,,,,,,,,,,,,,,,,,,,,,,,,,,,,,,,,,,,,,,,,,,456.05559980002,456.07161350001115,456.55656830000225,456.57133120001527,456.5899556000368,456.5899556000368,456.5899556000368,459.2998811000143,Objects\142b.jpg,pre,s,2.6958802999579348,None,,,,,,,,,00048,001,2026-01-18_13h09.21.414,MST_test,2024.2.0,59.74818530746415,2026-01-18 13h09.34.729595 +0530,
78,0,79,n,1.364227399986703,None,79,0,78,459.3162062999909,,,,,,,,,,,,,,,,,,,,,,,,,,,,,,,,,,,,,,,,,,,,,,,,,,459.29997440002626,459.3162062999909,459.80144270003075,459.804231600021,459.8178290000069,459.8178290000069,459.8178290000069,461.1898757000454,Foils\098a.jpg,none,n,1.364227399986703,None,,,,,,,,,00048,001,2026-01-18_13h09.21.414,MST_test,2024.2.0,59.74818530746415,2026-01-18 13h09.34.729595 +0530,
79,0,80,n,8.890032700030133,None,80,0,79,461.2061373000033,,,,,,,,,,,,,,,,,,,,,,,,,,,,,,,,,,,,,,,,,,,,,,,,,,461.1899788000155,461.2061373000033,461.6912513000425,461.6944641000009,461.7078720999998,461.7078720999998,461.7078720999998,470.6064565000124,Foils\105a.jpg,none,n,8.890032700030133,None,,,,,,,,,00048,001,2026-01-18_13h09.21.414,MST_test,2024.2.0,59.74818530746415,2026-01-18 13h09.34.729595 +0530,
80,0,81,o,3.5216209000209346,None,81,0,80,470.6225606999942,,,,,,,,,,,,,,,,,,,,,,,,,,,,,,,,,,,,,,,,,,,,,,,,,,470.60655419999966,470.6225606999942,471.1074222000316,471.1133819000097,471.12413060001563,471.12413060001563,471.12413060001563,474.6537023000419,Objects\227a.jpg,pre,o,3.5216209000209346,None,,,,,,,,,00048,001,2026-01-18_13h09.21.414,MST_test,2024.2.0,59.74818530746415,2026-01-18 13h09.34.729595 +0530,
81,0,82,o,1.1460593999945559,None,82,0,81,474.66995900002075,,,,,,,,,,,,,,,,,,,,,,,,,,,,,,,,,,,,,,,,,,,,,,,,,,474.6538026999915,474.66995900002075,475.15503080002964,475.1580218000454,475.1719754000078,475.1719754000078,475.1719754000078,476.32635670003947,Objects\023a.jpg,pre,o,1.1460593999945559,None,,,,,,,,,00048,001,2026-01-18_13h09.21.414,MST_test,2024.2.0,59.74818530746415,2026-01-18 13h09.34.729595 +0530,
82,0,83,o,1.4882535999640822,None,83,0,82,476.3424889000016,,,,,,,,,,,,,,,,,,,,,,,,,,,,,,,,,,,,,,,,,,,,,,,,,,476.3264541000244,476.3424889000016,476.8274445999996,476.8351073000231,476.8609548000386,476.8609548000386,476.8609548000386,478.35010650003096,Objects\290a.jpg,mid,o,1.4882535999640822,None,,,,,,,,,00048,001,2026-01-18_13h09.21.414,MST_test,2024.2.0,59.74818530746415,2026-01-18 13h09.34.729595 +0530,
83,0,84,o,1.0188572999904864,None,84,0,83,478.36614440003177,,,,,,,,,,,,,,,,,,,,,,,,,,,,,,,,,,,,,,,,,,,,,,,,,,478.3502037000144,478.36614440003177,478.851218900003,478.8582424999913,478.86717570002656,478.86717570002656,478.86717570002656,479.8886533000041,Objects\025a.jpg,pre,o,1.0188572999904864,None,,,,,,,,,00048,001,2026-01-18_13h09.21.414,MST_test,2024.2.0,59.74818530746415,2026-01-18 13h09.34.729595 +0530,
84,0,85,o,2.5667341999942437,None,85,0,84,479.904952700017,,,,,,,,,,,,,,,,,,,,,,,,,,,,,,,,,,,,,,,,,,,,,,,,,,479.8887435999932,479.904952700017,480.3899327000254,480.40554770000745,480.4234380000271,480.4234380000271,480.4234380000271,482.99954500002787,Objects\289b.jpg,post,o,2.5667341999942437,None,,,,,,,,,00048,001,2026-01-18_13h09.21.414,MST_test,2024.2.0,59.74818530746415,2026-01-18 13h09.34.729595 +0530,
85,0,86,n,1.0961163999745622,None,86,0,85,483.0157329000067,,,,,,,,,,,,,,,,,,,,,,,,,,,,,,,,,,,,,,,,,,,,,,,,,,482.99963660002686,483.0157329000067,483.50093179999385,483.50923200004036,483.5342046000296,483.5342046000296,483.5342046000296,484.6385999000049,Foils\020b.jpg,none,n,1.0961163999745622,None,,,,,,,,,00048,001,2026-01-18_13h09.21.414,MST_test,2024.2.0,59.74818530746415,2026-01-18 13h09.34.729595 +0530,
86,0,87,s,6.704540999955498,None,87,0,86,484.65504189999774,,,,,,,,,,,,,,,,,,,,,,,,,,,,,,,,,,,,,,,,,,,,,,,,,,484.63869120000163,484.65504189999774,485.1398744999897,485.15039980004076,485.1733992000227,485.1733992000227,485.1733992000227,491.8809103000094,Objects\383b.jpg,pre,s,6.704540999955498,None,,,,,,,,,00048,001,2026-01-18_13h09.21.414,MST_test,2024.2.0,59.74818530746415,2026-01-18 13h09.34.729595 +0530,
87,0,88,n,1.7514266000362113,None,88,0,87,491.8969449000433,,,,,,,,,,,,,,,,,,,,,,,,,,,,,,,,,,,,,,,,,,,,,,,,,,491.8810051000328,491.8969449000433,492.381898200023,492.3844700999907,492.3988410999882,492.3988410999882,492.3988410999882,494.15575390000595,Objects\064a.jpg,post,n,1.7514266000362113,None,,,,,,,,,00048,001,2026-01-18_13h09.21.414,MST_test,2024.2.0,59.74818530746415,2026-01-18 13h09.34.729595 +0530,
88,0,89,n,2.4522177999606356,None,89,0,88,494.1715849000029,,,,,,,,,,,,,,,,,,,,,,,,,,,,,,,,,,,,,,,,,,,,,,,,,,494.1558509999886,494.1715849000029,494.65665120002814,494.65927470003953,494.67331929999636,494.67331929999636,494.67331929999636,497.1324030000251,Foils\050a.jpg,none,n,2.4522177999606356,None,,,,,,,,,00048,001,2026-01-18_13h09.21.414,MST_test,2024.2.0,59.74818530746415,2026-01-18 13h09.34.729595 +0530,
89,0,90,n,0.9080187000217848,None,90,0,89,497.1486631000298,,,,,,,,,,,,,,,,,,,,,,,,,,,,,,,,,,,,,,,,,,,,,,,,,,497.13250780000817,497.1486631000298,497.6336404000176,497.6380985000287,497.6505029000109,497.6505029000109,497.6505029000109,498.57103420002386,Foils\f7.jpg,none,n,0.9080187000217848,None,,,,,,,,,00048,001,2026-01-18_13h09.21.414,MST_test,2024.2.0,59.74818530746415,2026-01-18 13h09.34.729595 +0530,
90,0,91,s,2.084259999974165,None,91,0,90,498.5871411000262,,,,,,,,,,,,,,,,,,,,,,,,,,,,,,,,,,,,,,,,,,,,,,,,,,498.5711265000282,498.5871411000262,499.07215710001765,499.0868138000369,499.10566270002164,499.10566270002164,499.10566270002164,501.1968214000226,Objects\152b.jpg,post,s,2.084259999974165,None,,,,,,,,,00048,001,2026-01-18_13h09.21.414,MST_test,2024.2.0,59.74818530746415,2026-01-18 13h09.34.729595 +0530,
91,0,92,o,1.514921099995263,None,92,0,91,501.2129004000453,,,,,,,,,,,,,,,,,,,,,,,,,,,,,,,,,,,,,,,,,,,,,,,,,,501.19691729999613,501.2129004000453,501.69787319999887,501.7006805000128,501.7146508000442,501.7146508000442,501.7146508000442,503.2371840000269,Objects\305a.jpg,pre,o,1.514921099995263,None,,,,,,,,,00048,001,2026-01-18_13h09.21.414,MST_test,2024.2.0,59.74818530746415,2026-01-18 13h09.34.729595 +0530,
92,0,93,s,2.8990863999933936,None,93,0,92,503.25340079999296,,,,,,,,,,,,,,,,,,,,,,,,,,,,,,,,,,,,,,,,,,,,,,,,,,503.23728040000424,503.25340079999296,503.73833180003567,503.7410224000341,503.7552703000256,503.7552703000256,503.7552703000256,506.6657591999974,Foils\026a.jpg,none,s,2.8990863999933936,None,,,,,,,,,00048,001,2026-01-18_13h09.21.414,MST_test,2024.2.0,59.74818530746415,2026-01-18 13h09.34.729595 +0530,
93,0,94,s,1.6367743999580853,None,94,0,93,506.6819317000336,,,,,,,,,,,,,,,,,,,,,,,,,,,,,,,,,,,,,,,,,,,,,,,,,,506.6658537000185,506.6819317000336,507.16713270003675,507.1784371000249,507.2004205000121,507.2004205000121,507.2004205000121,508.84023720002733,Objects\071b.jpg,pre,s,1.6367743999580853,None,,,,,,,,,00048,001,2026-01-18_13h09.21.414,MST_test,2024.2.0,59.74818530746415,2026-01-18 13h09.34.729595 +0530,
94,0,95,o,1.6555927000008523,None,95,0,94,508.8563327000011,,,,,,,,,,,,,,,,,,,,,,,,,,,,,,,,,,,,,,,,,,,,,,,,,,508.8403312000446,508.8563327000011,509.34146510000573,509.3473266999936,509.35808999999426,509.35808999999426,509.35808999999426,511.01452560001053,Objects\286a.jpg,post,o,1.6555927000008523,None,,,,,,,,,00048,001,2026-01-18_13h09.21.414,MST_test,2024.2.0,59.74818530746415,2026-01-18 13h09.34.729595 +0530,
95,0,96,s,1.7783692000084557,None,96,0,95,511.03062380000483,,,,,,,,,,,,,,,,,,,,,,,,,,,,,,,,,,,,,,,,,,,,,,,,,,511.0146175000118,511.03062380000483,511.5155738000176,511.52312249998795,511.5316393999965,511.5316393999965,511.5316393999965,513.3225621000165,Objects\348a.jpg,post,s,1.7783692000084557,None,,,,,,,,,00048,001,2026-01-18_13h09.21.414,MST_test,2024.2.0,59.74818530746415,2026-01-18 13h09.34.729595 +0530,
96,0,97,o,3.037111099984031,None,97,0,96,513.3386914000148,,,,,,,,,,,,,,,,,,,,,,,,,,,,,,,,,,,,,,,,,,,,,,,,,,513.3226586999954,513.3386914000148,513.8236675999942,513.8397585999919,513.8571683000191,513.8571683000191,513.8571683000191,516.9017440000316,Objects\200b.jpg,pre,o,3.037111099984031,None,,,,,,,,,00048,001,2026-01-18_13h09.21.414,MST_test,2024.2.0,59.74818530746415,2026-01-18 13h09.34.729595 +0530,
97,0,98,s,1.9221008999738842,None,98,0,97,516.9179148999974,,,,,,,,,,,,,,,,,,,,,,,,,,,,,,,,,,,,,,,,,,,,,,,,,,516.9018380999914,516.9179148999974,517.4030019000056,517.4177145000431,517.4362583000329,517.4362583000329,517.4362583000329,519.360331200005,Objects\340b.jpg,mid,s,1.9221008999738842,None,,,,,,,,,00048,001,2026-01-18_13h09.21.414,MST_test,2024.2.0,59.74818530746415,2026-01-18 13h09.34.729595 +0530,
98,0,99,s,4.663057999976445,None,99,0,98,519.3763874000288,,,,,,,,,,,,,,,,,,,,,,,,,,,,,,,,,,,,,,,,,,,,,,,,,,519.3604231000063,519.3763874000288,519.8615968000377,519.8693704000325,519.8948696000152,519.8948696000152,519.8948696000152,524.5618892000057,Objects\376a.jpg,post,s,4.663057999976445,None,,,,,,,,,00048,001,2026-01-18_13h09.21.414,MST_test,2024.2.0,59.74818530746415,2026-01-18 13h09.34.729595 +0530,
99,0,100,s,3.3327585000079125,None,100,0,99,524.5779476999887,,,,,,,,,,,,,,,,,,,,,,,,,,,,,,,,,,,,,,,,,,,,,,,,,,524.5619837000268,524.5779476999887,525.0631394000375,525.0723755999934,525.0964194000117,525.0964194000117,525.0964194000117,528.4420803000103,Objects\154b.jpg,post,s,3.3327585000079125,None,,,,,,,,,00048,001,2026-01-18_13h09.21.414,MST_test,2024.2.0,59.74818530746415,2026-01-18 13h09.34.729595 +0530,
100,0,101,n,1.6775106000131927,None,101,0,100,528.4583659000346,,,,,,,,,,,,,,,,,,,,,,,,,,,,,,,,,,,,,,,,,,,,,,,,,,528.4421827000333,528.4583659000346,528.9434709000052,528.9461490000249,528.9602417999995,528.9602417999995,528.9602417999995,530.6498379000113,Foils\097a.jpg,none,n,1.6775106000131927,None,,,,,,,,,00048,001,2026-01-18_13h09.21.414,MST_test,2024.2.0,59.74818530746415,2026-01-18 13h09.34.729595 +0530,
101,0,102,s,5.197516699961852,None,102,0,101,530.6660451000207,,,,,,,,,,,,,,,,,,,,,,,,,,,,,,,,,,,,,,,,,,,,,,,,,,530.6499363000039,530.6660451000207,531.1510002000141,531.1602780999965,531.1845213000197,531.1845213000197,531.1845213000197,536.3865722999908,Objects\005b.jpg,mid,s,5.197516699961852,None,,,,,,,,,00048,001,2026-01-18_13h09.21.414,MST_test,2024.2.0,59.74818530746415,2026-01-18 13h09.34.729595 +0530,
102,0,103,n,3.9408532999805175,None,103,0,102,536.402808999992,,,,,,,,,,,,,,,,,,,,,,,,,,,,,,,,,,,,,,,,,,,,,,,,,,536.3866663000081,536.402808999992,536.8877615000238,536.8910637000226,536.9046728000394,536.9046728000394,536.9046728000394,540.8530732000363,Foils\093b.jpg,none,n,3.9408532999805175,None,,,,,,,,,00048,001,2026-01-18_13h09.21.414,MST_test,2024.2.0,59.74818530746415,2026-01-18 13h09.34.729595 +0530,
103,0,104,n,1.2758619000087492,None,104,0,103,540.8683186999988,,,,,,,,,,,,,,,,,,,,,,,,,,,,,,,,,,,,,,,,,,,,,,,,,,540.8531711000251,540.8683186999988,541.3535324000404,541.3566213000449,541.370057400025,541.370057400025,541.370057400025,542.6584245000267,Foils\033a.jpg,none,n,1.2758619000087492,None,,,,,,,,,00048,001,2026-01-18_13h09.21.414,MST_test,2024.2.0,59.74818530746415,2026-01-18 13h09.34.729595 +0530,
104,0,105,s,3.9655022000079043,None,105,0,104,542.6747939999914,,,,,,,,,,,,,,,,,,,,,,,,,,,,,,,,,,,,,,,,,,,,,,,,,,542.6585166000295,542.6747939999914,543.1600039000041,543.1626681000344,543.1765840000007,543.1765840000007,543.1765840000007,547.1575948999962,Foils\066a.jpg,none,s,3.9655022000079043,None,,,,,,,,,00048,001,2026-01-18_13h09.21.414,MST_test,2024.2.0,59.74818530746415,2026-01-18 13h09.34.729595 +0530,
105,0,106,s,1.602044900006149,None,106,0,105,547.173849200015,,,,,,,,,,,,,,,,,,,,,,,,,,,,,,,,,,,,,,,,,,,,,,,,,,547.1576913000317,547.173849200015,547.6588521000231,547.6620730000432,547.6755878000404,547.6755878000404,547.6755878000404,549.281835700036,Foils\090a.jpg,none,s,1.602044900006149,None,,,,,,,,,00048,001,2026-01-18_13h09.21.414,MST_test,2024.2.0,59.74818530746415,2026-01-18 13h09.34.729595 +0530,
106,0,107,s,2.0928113000118174,None,107,0,106,549.2978475000127,,,,,,,,,,,,,,,,,,,,,,,,,,,,,,,,,,,,,,,,,,,,,,,,,,549.2819287999882,549.2978475000127,549.7833211999969,549.7928218999878,549.8164353999891,549.8164353999891,549.8164353999891,551.9243806999875,Objects\111b.jpg,pre,s,2.0928113000118174,None,,,,,,,,,00048,001,2026-01-18_13h09.21.414,MST_test,2024.2.0,59.74818530746415,2026-01-18 13h09.34.729595 +0530,
107,0,108,s,2.363974900043104,None,108,0,107,551.9405367000145,,,,,,,,,,,,,,,,,,,,,,,,,,,,,,,,,,,,,,,,,,,,,,,,,,551.9244818000006,551.9405367000145,552.4254895999911,552.4330840000184,552.4415537000168,552.4415537000168,552.4415537000168,554.817784200015,Objects\235a.jpg,pre,s,2.363974900043104,None,,,,,,,,,00048,001,2026-01-18_13h09.21.414,MST_test,2024.2.0,59.74818530746415,2026-01-18 13h09.34.729595 +0530,
108,0,109,o,1.5331142999930307,None,109,0,108,554.8341699999874,,,,,,,,,,,,,,,,,,,,,,,,,,,,,,,,,,,,,,,,,,,,,,,,,,554.817883700016,554.8341699999874,555.3199508000398,555.3273221999989,555.352619000012,555.352619000012,555.352619000012,556.8923137999955,Objects\124a.jpg,post,o,1.5331142999930307,None,,,,,,,,,00048,001,2026-01-18_13h09.21.414,MST_test,2024.2.0,59.74818530746415,2026-01-18 13h09.34.729595 +0530,
109,0,110,s,5.947408200008795,None,110,0,109,556.9080052000354,,,,,,,,,,,,,,,,,,,,,,,,,,,,,,,,,,,,,,,,,,,,,,,,,,556.892412199988,556.9080052000354,557.3931448000367,557.4031075999956,557.4265182000236,557.4265182000236,557.4265182000236,563.3813000000082,Objects\106b.jpg,mid,s,5.947408200008795,None,,,,,,,,,00048,001,2026-01-18_13h09.21.414,MST_test,2024.2.0,59.74818530746415,2026-01-18 13h09.34.729595 +0530,
110,0,111,o,1.3955305000417866,None,111,0,110,563.3972304000054,,,,,,,,,,,,,,,,,,,,,,,,,,,,,,,,,,,,,,,,,,,,,,,,,,563.3813983,563.3972304000054,563.8823991999961,563.8850755000021,563.8991161000449,563.8991161000449,563.8991161000449,565.3046814000118,Objects\101a.jpg,mid,o,1.3955305000417866,None,,,,,,,,,00048,001,2026-01-18_13h09.21.414,MST_test,2024.2.0,59.74818530746415,2026-01-18 13h09.34.729595 +0530,
111,0,112,s,3.782255299971439,None,112,0,111,565.3208702999982,,,,,,,,,,,,,,,,,,,,,,,,,,,,,,,,,,,,,,,,,,,,,,,,,,565.3048221000354,565.3208702999982,565.8057293000165,565.8149524999899,565.8392063000356,565.8392063000356,565.8392063000356,569.6363113000407,Objects\109b.jpg,post,s,3.782255299971439,None,,,,,,,,,00048,001,2026-01-18_13h09.21.414,MST_test,2024.2.0,59.74818530746415,2026-01-18 13h09.34.729595 +0530,
112,0,113,n,2.379341799998656,None,113,0,112,569.6525642999914,,,,,,,,,,,,,,,,,,,,,,,,,,,,,,,,,,,,,,,,,,,,,,,,,,569.6364088000264,569.6525642999914,570.1376193999895,570.1454246999929,570.1710600000224,570.1710600000224,570.1710600000224,572.5632136000204,Objects\339a.jpg,pre,n,2.379341799998656,None,,,,,,,,,00048,001,2026-01-18_13h09.21.414,MST_test,2024.2.0,59.74818530746415,2026-01-18 13h09.34.729595 +0530,
113,0,114,n,3.02072109997971,None,114,0,113,572.5794859000016,,,,,,,,,,,,,,,,,,,,,,,,,,,,,,,,,,,,,,,,,,,,,,,,,,572.5633127000183,572.5794859000016,573.0644519000198,573.0725287999958,573.0805401999969,573.0805401999969,573.0805401999969,576.1090415000217,Objects\110a.jpg,mid,n,3.02072109997971,None,,,,,,,,,00048,001,2026-01-18_13h09.21.414,MST_test,2024.2.0,59.74818530746415,2026-01-18 13h09.34.729595 +0530,
114,0,115,n,1.3146329999435693,None,115,0,114,576.1251150000026,,,,,,,,,,,,,,,,,,,,,,,,,,,,,,,,,,,,,,,,,,,,,,,,,,576.109137499996,576.1251150000026,576.6103212000453,576.6132841000217,576.6268522000173,576.6268522000173,576.6268522000173,577.9487244000193,Foils\121a.jpg,none,n,1.3146329999435693,None,,,,,,,,,00048,001,2026-01-18_13h09.21.414,MST_test,2024.2.0,59.74818530746415,2026-01-18 13h09.34.729595 +0530,
115,0,116,o,1.6028481000103056,None,116,0,115,577.964905700006,,,,,,,,,,,,,,,,,,,,,,,,,,,,,,,,,,,,,,,,,,,,,,,,,,577.9488191000419,577.964905700006,578.4500888999901,578.452817100042,578.4667647000169,578.4667647000169,578.4667647000169,580.0729062000173,Objects\044a.jpg,pre,o,1.6028481000103056,None,,,,,,,,,00048,001,2026-01-18_13h09.21.414,MST_test,2024.2.0,59.74818530746415,2026-01-18 13h09.34.729595 +0530,
116,0,117,s,1.790907199960202,None,117,0,116,580.0893038000213,,,,,,,,,,,,,,,,,,,,,,,,,,,,,,,,,,,,,,,,,,,,,,,,,,580.0730002000346,580.0893038000213,580.5742470000405,580.5767287000199,580.5910188000416,580.5910188000416,580.5910188000416,582.3977809000062,Objects\198a.jpg,pre,s,1.790907199960202,None,,,,,,,,,00048,001,2026-01-18_13h09.21.414,MST_test,2024.2.0,59.74818530746415,2026-01-18 13h09.34.729595 +0530,
117,0,118,n,1.913441699987743,None,118,0,117,582.4138543000445,,,,,,,,,,,,,,,,,,,,,,,,,,,,,,,,,,,,,,,,,,,,,,,,,,582.3979169999948,582.4138543000445,582.8997751999996,582.9025767000276,582.9157311000163,582.9157311000163,582.9157311000163,584.8397092000232,Foils\113a.jpg,none,n,1.913441699987743,None,,,,,,,,,00048,001,2026-01-18_13h09.21.414,MST_test,2024.2.0,59.74818530746415,2026-01-18 13h09.34.729595 +0530,
118,0,119,n,1.4084808999905363,None,119,0,118,584.855682399997,,,,,,,,,,,,,,,,,,,,,,,,,,,,,,,,,,,,,,,,,,,,,,,,,,584.8398020000313,584.855682399997,585.3408834000002,585.3439346000087,585.3575420000125,585.3575420000125,585.3575420000125,586.7796616000123,Objects\058a.jpg,mid,n,1.4084808999905363,None,,,,,,,,,00048,001,2026-01-18_13h09.21.414,MST_test,2024.2.0,59.74818530746415,2026-01-18 13h09.34.729595 +0530,
119,0,120,n,1.3568444000557065,None,120,0,119,586.7958042999962,,,,,,,,,,,,,,,,,,,,,,,,,,,,,,,,,,,,,,,,,,,,,,,,,,586.779754600022,586.7958042999962,587.2809978000005,587.2845006000134,587.2975545999943,587.2975545999943,587.2975545999943,588.6697882000008,Foils\002a.jpg,none,n,1.3568444000557065,None,,,,,,,,,00048,001,2026-01-18_13h09.21.414,MST_test,2024.2.0,59.74818530746415,2026-01-18 13h09.34.729595 +0530,
120,0,121,s,1.6169415999902412,None,121,0,120,588.686510700034,,,,,,,,,,,,,,,,,,,,,,,,,,,,,,,,,,,,,,,,,,,,,,,,,,588.6698887000093,588.686510700034,589.1708680000156,589.1818545000278,589.2043688000413,589.2043688000413,589.2043688000413,590.8272802000283,Objects\133b.jpg,mid,s,1.6169415999902412,None,,,,,,,,,00048,001,2026-01-18_13h09.21.414,MST_test,2024.2.0,59.74818530746415,2026-01-18 13h09.34.729595 +0530,
121,0,122,s,1.8276953000458889,None,122,0,121,590.8434310000157,,,,,,,,,,,,,,,,,,,,,,,,,,,,,,,,,,,,,,,,,,,,,,,,,,590.8274024000275,590.8434310000157,591.3284119000309,591.3438719999976,591.3619029000401,591.3619029000401,591.3619029000401,593.2025694000185,Objects\270b.jpg,mid,s,1.8276953000458889,None,,,,,,,,,00048,001,2026-01-18_13h09.21.414,MST_test,2024.2.0,59.74818530746415,2026-01-18 13h09.34.729595 +0530,
122,0,123,s,1.6933498000144027,None,123,0,122,593.2184310000157,,,,,,,,,,,,,,,,,,,,,,,,,,,,,,,,,,,,,,,,,,,,,,,,,,593.2026662999997,593.2184310000157,593.7033877000213,593.7175664000097,593.7374118000153,593.7374118000153,593.7374118000153,595.4435431000311,Objects\223b.jpg,mid,s,1.6933498000144027,None,,,,,,,,,00048,001,2026-01-18_13h09.21.414,MST_test,2024.2.0,59.74818530746415,2026-01-18 13h09.34.729595 +0530,
123,0,124,s,5.003540200006682,None,124,0,123,595.4594843999948,,,,,,,,,,,,,,,,,,,,,,,,,,,,,,,,,,,,,,,,,,,,,,,,,,595.443640100013,595.4594843999948,595.9446851999965,595.9549035000382,595.9779699000064,595.9779699000064,595.9779699000064,600.9960901000304,Objects\067b.jpg,mid,s,5.003540200006682,None,,,,,,,,,00048,001,2026-01-18_13h09.21.414,MST_test,2024.2.0,59.74818530746415,2026-01-18 13h09.34.729595 +0530,
124,0,125,o,1.5473182999994606,None,125,0,124,601.0123868000228,,,,,,,,,,,,,,,,,,,,,,,,,,,,,,,,,,,,,,,,,,,,,,,,,,600.9961828000378,601.0123868000228,601.4973494000151,601.5002618000144,601.5142466000398,601.5142466000398,601.5142466000398,603.0701914000092,Objects\234a.jpg,mid,o,1.5473182999994606,None,,,,,,,,,00048,001,2026-01-18_13h09.21.414,MST_test,2024.2.0,59.74818530746415,2026-01-18 13h09.34.729595 +0530,
125,0,126,n,3.4334051000187173,None,126,0,125,603.0865466000396,,,,,,,,,,,,,,,,,,,,,,,,,,,,,,,,,,,,,,,,,,,,,,,,,,603.0702855000272,603.0865466000396,603.5712790000252,603.5810423000366,603.6047961000004,603.6047961000004,603.6047961000004,607.0506698000245,Objects\141b.jpg,post,n,3.4334051000187173,None,,,,,,,,,00048,001,2026-01-18_13h09.21.414,MST_test,2024.2.0,59.74818530746415,2026-01-18 13h09.34.729595 +0530,
126,0,127,s,2.9976229000021704,None,127,0,126,607.0668013000395,,,,,,,,,,,,,,,,,,,,,,,,,,,,,,,,,,,,,,,,,,,,,,,,,,607.0507645999896,607.0668013000395,607.5520020000404,607.5659438000293,607.585281800013,607.585281800013,607.585281800013,610.5964083000435,Objects\239b.jpg,mid,s,2.9976229000021704,None,,,,,,,,,00048,001,2026-01-18_13h09.21.414,MST_test,2024.2.0,59.74818530746415,2026-01-18 13h09.34.729595 +0530,
127,0,128,s,3.8419776000082493,None,128,0,127,610.612811500032,,,,,,,,,,,,,,,,,,,,,,,,,,,,,,,,,,,,,,,,,,,,,,,,,,610.5965039000148,610.612811500032,611.097623800044,611.1059045000002,611.1311473000096,611.1311473000096,611.1311473000096,614.978872000007,Objects\075a.jpg,mid,s,3.8419776000082493,None,,,,,,,,,00048,001,2026-01-18_13h09.21.414,MST_test,2024.2.0,59.74818530746415,2026-01-18 13h09.34.729595 +0530,
128,0,129,s,0.8770562999998219,None,129,0,128,614.9946876000031,,,,,,,,,,,,,,,,,,,,,,,,,,,,,,,,,,,,,,,,,,,,,,,,,,614.9789743000292,614.9946876000031,615.4805057999911,615.4834427000023,615.496320300037,615.496320300037,615.496320300037,616.3836571000284,Objects\180a.jpg,post,s,0.8770562999998219,None,,,,,,,,,00048,001,2026-01-18_13h09.21.414,MST_test,2024.2.0,59.74818530746415,2026-01-18 13h09.34.729595 +0530,
129,0,130,s,1.4806719000334851,None,130,0,129,616.3998938000295,,,,,,,,,,,,,,,,,,,,,,,,,,,,,,,,,,,,,,,,,,,,,,,,,,616.3837605000008,616.3998938000295,616.8846857000026,616.8878854000359,616.901226499991,616.901226499991,616.901226499991,618.3904214000213,Foils\086a.jpg,none,s,1.4806719000334851,None,,,,,,,,,00048,001,2026-01-18_13h09.21.414,MST_test,2024.2.0,59.74818530746415,2026-01-18 13h09.34.729595 +0530,
130,0,131,n,1.5707565000047907,None,131,0,130,618.4065153000411,,,,,,,,,,,,,,,,,,,,,,,,,,,,,,,,,,,,,,,,,,,,,,,,,,618.3905129000195,618.4065153000411,618.891701399989,618.8944647000171,618.9085136000067,618.9085136000067,618.9085136000067,620.481397000025,Foils\058a.jpg,none,n,1.5707565000047907,None,,,,,,,,,00048,001,2026-01-18_13h09.21.414,MST_test,2024.2.0,59.74818530746415,2026-01-18 13h09.34.729595 +0530,
131,0,132,o,2.8075479000108317,None,132,0,131,620.497276100039,,,,,,,,,,,,,,,,,,,,,,,,,,,,,,,,,,,,,,,,,,,,,,,,,,620.4814906000393,620.497276100039,620.9822428000043,620.9901116000256,620.9982814000105,620.9982814000105,620.9982814000105,623.8093198999995,Objects\336a.jpg,mid,o,2.8075479000108317,None,,,,,,,,,00048,001,2026-01-18_13h09.21.414,MST_test,2024.2.0,59.74818530746415,2026-01-18 13h09.34.729595 +0530,
132,0,133,n,2.7895770000177436,None,133,0,132,623.8254874999984,,,,,,,,,,,,,,,,,,,,,,,,,,,,,,,,,,,,,,,,,,,,,,,,,,623.8094167000381,623.8254874999984,624.3106980000157,624.3189395000227,624.3444850000087,624.3444850000087,624.3444850000087,627.1377694000257,Foils\010a.jpg,none,n,2.7895770000177436,None,,,,,,,,,00048,001,2026-01-18_13h09.21.414,MST_test,2024.2.0,59.74818530746415,2026-01-18 13h09.34.729595 +0530,
133,0,134,n,2.9183276999974623,None,134,0,133,627.1539342000033,,,,,,,,,,,,,,,,,,,,,,,,,,,,,,,,,,,,,,,,,,,,,,,,,,627.1378664000076,627.1539342000033,627.6389978000079,627.6418235999881,627.6557479000185,627.6557479000185,627.6557479000185,630.5832187000196,Foils\034a.jpg,none,n,2.9183276999974623,None,,,,,,,,,00048,001,2026-01-18_13h09.21.414,MST_test,2024.2.0,59.74818530746415,2026-01-18 13h09.34.729595 +0530,
134,0,135,o,1.8557198999915272,None,135,0,134,630.599323500006,,,,,,,,,,,,,,,,,,,,,,,,,,,,,,,,,,,,,,,,,,,,,,,,,,630.5833170000114,630.599323500006,631.0843012999976,631.0917182000121,631.1177827999927,631.1177827999927,631.1177827999927,632.974864799995,Objects\222a.jpg,post,o,1.8557198999915272,None,,,,,,,,,00048,001,2026-01-18_13h09.21.414,MST_test,2024.2.0,59.74818530746415,2026-01-18 13h09.34.729595 +0530,
135,0,136,s,1.9931944999843836,None,136,0,135,632.9910265000071,,,,,,,,,,,,,,,,,,,,,,,,,,,,,,,,,,,,,,,,,,,,,,,,,,632.9749586000107,632.9910265000071,633.4759983000113,633.4827598000411,633.4928129999898,633.4928129999898,633.4928129999898,635.5007692000363,Objects\132a.jpg,post,s,1.9931944999843836,None,,,,,,,,,00048,001,2026-01-18_13h09.21.414,MST_test,2024.2.0,59.74818530746415,2026-01-18 13h09.34.729595 +0530,
136,0,137,o,1.3559945999877527,None,137,0,136,635.5164048000006,,,,,,,,,,,,,,,,,,,,,,,,,,,,,,,,,,,,,,,,,,,,,,,,,,635.5008712999988,635.5164048000006,636.0016163000255,636.0095519000315,636.0178045000066,636.0178045000066,636.0178045000066,637.3906889000209,Objects\358a.jpg,mid,o,1.3559945999877527,None,,,,,,,,,00048,001,2026-01-18_13h09.21.414,MST_test,2024.2.0,59.74818530746415,2026-01-18 13h09.34.729595 +0530,
137,0,138,o,1.1773239999893121,None,138,0,137,637.4065668000258,,,,,,,,,,,,,,,,,,,,,,,,,,,,,,,,,,,,,,,,,,,,,,,,,,637.3907837000443,637.4065668000258,637.8917222000309,637.8986711000325,637.9082637000247,637.9082637000247,637.9082637000247,639.0963462000364,Objects\276b.jpg,mid,o,1.1773239999893121,None,,,,,,,,,00048,001,2026-01-18_13h09.21.414,MST_test,2024.2.0,59.74818530746415,2026-01-18 13h09.34.729595 +0530,
138,0,139,s,1.4063969000126235,None,139,0,138,639.1124732000171,,,,,,,,,,,,,,,,,,,,,,,,,,,,,,,,,,,,,,,,,,,,,,,,,,639.0964461000403,639.1124732000171,639.5974354000064,639.6142451000051,639.6309408000088,639.6309408000088,639.6309408000088,641.0532404000405,Objects\259b.jpg,pre,s,1.4063969000126235,None,,,,,,,,,00048,001,2026-01-18_13h09.21.414,MST_test,2024.2.0,59.74818530746415,2026-01-18 13h09.34.729595 +0530,
139,0,140,n,1.3698214999749325,None,140,0,139,641.0693192000035,,,,,,,,,,,,,,,,,,,,,,,,,,,,,,,,,,,,,,,,,,,,,,,,,,641.0533349000034,641.0693192000035,641.5542919000145,641.5701073000091,641.5877957000048,641.5877957000048,641.5877957000048,642.9599349999917,Foils\065a.jpg,none,n,1.3698214999749325,None,,,,,,,,,00048,001,2026-01-18_13h09.21.414,MST_test,2024.2.0,59.74818530746415,2026-01-18 13h09.34.729595 +0530,
140,0,141,s,6.0325651000021026,None,141,0,140,642.9758702000254,,,,,,,,,,,,,,,,,,,,,,,,,,,,,,,,,,,,,,,,,,,,,,,,,,642.9600264999899,642.9758702000254,643.4610725000384,643.4786535000312,643.4943691000226,643.4943691000226,643.4943691000226,649.5329524000408,Objects\203b.jpg,post,s,6.0325651000021026,None,,,,,,,,,00048,001,2026-01-18_13h09.21.414,MST_test,2024.2.0,59.74818530746415,2026-01-18 13h09.34.729595 +0530,
141,0,142,o,1.4664304999751039,None,142,0,141,649.5490821000421,,,,,,,,,,,,,,,,,,,,,,,,,,,,,,,,,,,,,,,,,,,,,,,,,,649.533050100028,649.5490821000421,650.0343109000241,650.0401758000371,650.0513270000229,650.0513270000229,650.0513270000229,651.5234581000404,Objects\224b.jpg,pre,o,1.4664304999751039,None,,,,,,,,,00048,001,2026-01-18_13h09.21.414,MST_test,2024.2.0,59.74818530746415,2026-01-18 13h09.34.729595 +0530,
142,0,143,o,2.027959900035057,None,143,0,142,651.5394388000132,,,,,,,,,,,,,,,,,,,,,,,,,,,,,,,,,,,,,,,,,,,,,,,,,,651.5235506999888,651.5394388000132,652.0244385999977,652.0325360000134,652.0579750000034,652.0579750000034,652.0579750000034,654.0988615000388,Objects\382a.jpg,mid,o,2.027959900035057,None,,,,,,,,,00048,001,2026-01-18_13h09.21.414,MST_test,2024.2.0,59.74818530746415,2026-01-18 13h09.34.729595 +0530,
143,0,144,s,1.494679700001143,None,144,0,143,654.1150258000125,,,,,,,,,,,,,,,,,,,,,,,,,,,,,,,,,,,,,,,,,,,,,,,,,,654.0989769000444,654.1150258000125,654.6002834000392,654.6073057000176,654.6159058000194,654.6159058000194,654.6159058000194,656.1224604000454,Objects\026a.jpg,post,s,1.494679700001143,None,,,,,,,,,00048,001,2026-01-18_13h09.21.414,MST_test,2024.2.0,59.74818530746415,2026-01-18 13h09.34.729595 +0530,
144,0,145,s,1.556875400012359,None,145,0,144,656.1389297000133,,,,,,,,,,,,,,,,,,,,,,,,,,,,,,,,,,,,,,,,,,,,,,,,,,656.1225555000128,656.1389297000133,656.6238843000028,656.6264632000239,656.640687600011,656.640687600011,656.640687600011,658.2133043000358,Objects\035a.jpg,post,s,1.556875400012359,None,,,,,,,,,00048,001,2026-01-18_13h09.21.414,MST_test,2024.2.0,59.74818530746415,2026-01-18 13h09.34.729595 +0530,
145,0,146,s,1.0588381999987178,None,146,0,145,658.2294752000016,,,,,,,,,,,,,,,,,,,,,,,,,,,,,,,,,,,,,,,,,,,,,,,,,,658.2134023000253,658.2294752000016,658.7145996000036,658.7172368000029,658.7312352000154,658.7312352000154,658.7312352000154,659.8020584000042,Objects\052a.jpg,mid,s,1.0588381999987178,None,,,,,,,,,00048,001,2026-01-18_13h09.21.414,MST_test,2024.2.0,59.74818530746415,2026-01-18 13h09.34.729595 +0530,
146,0,147,s,1.3888503000489436,None,147,0,146,659.8183714000043,,,,,,,,,,,,,,,,,,,,,,,,,,,,,,,,,,,,,,,,,,,,,,,,,,659.8021520000184,659.8183714000043,660.3034273000085,660.3060440000263,660.3202427999931,660.3202427999931,660.3202427999931,661.725516800012,Objects\163a.jpg,pre,s,1.3888503000489436,None,,,,,,,,,00048,001,2026-01-18_13h09.21.414,MST_test,2024.2.0,59.74818530746415,2026-01-18 13h09.34.729595 +0530,
147,0,148,s,0.9393279000069015,None,148,0,147,661.7417443000013,,,,,,,,,,,,,,,,,,,,,,,,,,,,,,,,,,,,,,,,,,,,,,,,,,661.7256103000254,661.7417443000013,662.2269490000326,662.2318017000216,662.2434620000422,662.2434620000422,662.2434620000422,663.1973962000338,Objects\356b.jpg,post,s,0.9393279000069015,None,,,,,,,,,00048,001,2026-01-18_13h09.21.414,MST_test,2024.2.0,59.74818530746415,2026-01-18 13h09.34.729595 +0530,
148,0,149,s,1.0974602999631315,None,149,0,148,663.213555400027,,,,,,,,,,,,,,,,,,,,,,,,,,,,,,,,,,,,,,,,,,,,,,,,,,663.1974930000142,663.213555400027,663.6986788000213,663.7160492000403,663.7321802999941,663.7321802999941,663.7321802999941,664.8368692999939,Objects\134b.jpg,pre,s,1.0974602999631315,None,,,,,,,,,00048,001,2026-01-18_13h09.21.414,MST_test,2024.2.0,59.74818530746415,2026-01-18 13h09.34.729595 +0530,
149,0,150,s,4.266306200006511,None,150,0,149,664.8527002999908,,,,,,,,,,,,,,,,,,,,,,,,,,,,,,,,,,,,,,,,,,,,,,,,,,664.8369730000268,664.8527002999908,665.3378445000271,665.3527789000073,665.3711225000443,665.3711225000443,665.3711225000443,669.653367299994,Objects\225b.jpg,pre,s,4.266306200006511,None,,,,,,,,,00048,001,2026-01-18_13h09.21.414,MST_test,2024.2.0,59.74818530746415,2026-01-18 13h09.34.729595 +0530,
,,,,,,,,,,,,,,,,,,,,,,,,,,,,,,,,,,,,,,,,,,,,,,,,,,,,,,,,,,,,,,,,,,,,,,,,,669.653444800002,669.6696859000367,669.6696859000367,673.5836271000444,space,3.9114789000013843,None,00048,001,2026-01-18_13h09.21.414,MST_test,2024.2.0,59.74818530746415,2026-01-18 13h09.34.729595 +0530,
