thisN,thisTrialN,thisRepN,key_resp_3.keys,key_resp_3.rt,key_resp_3.duration,trials.thisRepN,trials.thisTrialN,trials.thisN,thisRow.t,notes,intro_page.started,text.started,key_resp.started,intro_page.stopped,key_resp.keys,key_resp.rt,key_resp.duration,instructions.started,text_2.started,key_resp_2.started,instructions.stopped,key_resp_2.keys,key_resp_2.rt,key_resp_2.duration,demo1.started,image_1.started,image_2.started,text_7.started,key_resp_6.started,text_9.started,demo1.stopped,key_resp_6.keys,key_resp_6.rt,key_resp_6.duration,demo3.started,image_5.started,image_6.started,text_11.started,text_12.started,key_resp_8.started,demo3.stopped,key_resp_8.keys,key_resp_8.rt,key_resp_8.duration,demo_conclusion.started,text_13.started,key_resp_9.started,demo_conclusion.stopped,key_resp_9.keys,key_resp_9.rt,key_resp_9.duration,start_test.started,text_6.started,key_resp_5.started,start_test.stopped,key_resp_5.keys,key_resp_5.rt,key_resp_5.duration,ISI.started,text_4.started,ISI.stopped,routine_1.started,image.started,text_3.started,key_resp_3.started,routine_1.stopped,image_path,position_of_stimuli,trials.key_resp_3.keys,trials.key_resp_3.rt,trials.key_resp_3.duration,End_page.started,text_5.started,key_resp_4.started,End_page.stopped,key_resp_4.keys,key_resp_4.rt,key_resp_4.duration,participant,session,date,expName,psychopyVersion,frameRate,expStart,
,,,,,,,,,,,0.0031578000052832067,0.019411400018725544,0.019411400018725544,2.3644476999761537,space,2.330052600009367,None,,,,,,,,,,,,,,,,,,,,,,,,,,,,,,,,,,,,,,,,,,,,,,,,,,,,,,,,,,,,,,00042,001,2026-01-17_16h56.53.653,MST_test,2024.2.0,59.87529174074675,2026-01-17 16h57.08.521028 +0530,
,,,,,,,,,,,,,,,,,,2.364481500000693,2.379122300015297,2.379122300015297,17.014701700012665,space,14.61951049999334,None,,,,,,,,,,,,,,,,,,,,,,,,,,,,,,,,,,,,,,,,,,,,,,,,,,,,,,,00042,001,2026-01-17_16h56.53.653,MST_test,2024.2.0,59.87529174074675,2026-01-17 16h57.08.521028 +0530,
,,,,,,,,,,,,,,,,,,,,,,,,,17.014731600007508,17.030752199993003,17.030752199993003,17.030752199993003,17.030752199993003,17.030752199993003,26.381161500001326,space,9.34270269999979,None,,,,,,,,,,,,,,,,,,,,,,,,,,,,,,,,,,,,,,,,,,,,,00042,001,2026-01-17_16h56.53.653,MST_test,2024.2.0,59.87529174074675,2026-01-17 16h57.08.521028 +0530,
,,,,,,,,,,,,,,,,,,,,,,,,,,,,,,,,,,,26.38119679997908,26.39655429997947,26.39655429997947,26.39655429997947,26.39655429997947,26.39655429997947,29.77571449999232,space,3.3695568999974057,None,,,,,,,,,,,,,,,,,,,,,,,,,,,,,,,,,,,00042,001,2026-01-17_16h56.53.653,MST_test,2024.2.0,59.87529174074675,2026-01-17 16h57.08.521028 +0530,
,,,,,,,,,,,,,,,,,,,,,,,,,,,,,,,,,,,,,,,,,,,,,29.77574650000315,29.791910799976904,29.791910799976904,116.42939250002382,space,86.62175930000376,None,,,,,,,,,,,,,,,,,,,,,,,,,,,,00042,001,2026-01-17_16h56.53.653,MST_test,2024.2.0,59.87529174074675,2026-01-17 16h57.08.521028 +0530,
,,,,,,,,,,,,,,,,,,,,,,,,,,,,,,,,,,,,,,,,,,,,,,,,,,,,116.42943560000276,116.46228939999128,116.46228939999128,132.35210850002477,space,15.879476800037082,None,,,,,,,,,,,,,,,,,,,,,00042,001,2026-01-17_16h56.53.653,MST_test,2024.2.0,59.87529174074675,2026-01-17 16h57.08.521028 +0530,
0,0,1,n,3.3975020999787375,None,1,0,0,132.36810989998048,,,,,,,,,,,,,,,,,,,,,,,,,,,,,,,,,,,,,,,,,,,,,,,,,,132.35517240001354,132.36810989998048,132.85307379998267,132.8745929999859,132.88761309999973,132.88761309999973,132.88761309999973,136.299255800026,Objects\316b.jpg,post,n,3.3975020999787375,None,,,,,,,,00042,001,2026-01-17_16h56.53.653,MST_test,2024.2.0,59.87529174074675,2026-01-17 16h57.08.521028 +0530,
1,0,2,o,2.596109099977184,None,2,0,1,136.3151420999784,,,,,,,,,,,,,,,,,,,,,,,,,,,,,,,,,,,,,,,,,,,,,,,,,,136.29935200000182,136.3151420999784,136.80035859998316,136.808757300023,136.83363920002012,136.83363920002012,136.83363920002012,139.44349640002474,Objects\197a.jpg,pre,o,2.596109099977184,None,,,,,,,,00042,001,2026-01-17_16h56.53.653,MST_test,2024.2.0,59.87529174074675,2026-01-17 16h57.08.521028 +0530,
2,0,3,o,0.9785571999964304,None,3,0,2,139.4596162000089,,,,,,,,,,,,,,,,,,,,,,,,,,,,,,,,,,,,,,,,,,,,,,,,,,139.44359460001579,139.4596162000089,139.94457469996996,139.95292210002663,139.97924329998204,139.97924329998204,139.97924329998204,140.9655193000217,Objects\337a.jpg,pre,o,0.9785571999964304,None,,,,,,,,00042,001,2026-01-17_16h56.53.653,MST_test,2024.2.0,59.87529174074675,2026-01-17 16h57.08.521028 +0530,
3,0,4,o,1.0175525000086054,None,4,0,3,140.9815104000154,,,,,,,,,,,,,,,,,,,,,,,,,,,,,,,,,,,,,,,,,,,,,,,,,,140.9656559000141,140.9815104000154,141.4667365999776,141.48172989999875,141.49998149997555,141.49998149997555,141.49998149997555,142.52058720000787,Objects\128b.jpg,mid,o,1.0175525000086054,None,,,,,,,,00042,001,2026-01-17_16h56.53.653,MST_test,2024.2.0,59.87529174074675,2026-01-17 16h57.08.521028 +0530,
4,0,5,n,1.7675855999696068,None,5,0,4,142.53709870000603,,,,,,,,,,,,,,,,,,,,,,,,,,,,,,,,,,,,,,,,,,,,,,,,,,142.520688300021,142.53709870000603,143.02233140001772,143.02556590002496,143.0389355000225,143.0389355000225,143.0389355000225,144.81216510001104,Foils\002a.jpg,none,n,1.7675855999696068,None,,,,,,,,00042,001,2026-01-17_16h56.53.653,MST_test,2024.2.0,59.87529174074675,2026-01-17 16h57.08.521028 +0530,
5,0,6,o,1.1944985000300221,None,6,0,5,144.8285603999975,,,,,,,,,,,,,,,,,,,,,,,,,,,,,,,,,,,,,,,,,,,,,,,,,,144.81225919997087,144.8285603999975,145.31337049999274,145.32321320002666,145.34722250001505,145.34722250001505,145.34722250001505,146.55159300001105,Objects\370b.jpg,mid,o,1.1944985000300221,None,,,,,,,,00042,001,2026-01-17_16h56.53.653,MST_test,2024.2.0,59.87529174074675,2026-01-17 16h57.08.521028 +0530,
6,0,7,o,1.0481227000127546,None,7,0,6,146.56741949997377,,,,,,,,,,,,,,,,,,,,,,,,,,,,,,,,,,,,,,,,,,,,,,,,,,146.55168460001005,146.56741949997377,147.05261529999552,147.06681310001295,147.0858836999978,147.0858836999978,147.0858836999978,148.14049369998975,Objects\258b.jpg,mid,o,1.0481227000127546,None,,,,,,,,00042,001,2026-01-17_16h56.53.653,MST_test,2024.2.0,59.87529174074675,2026-01-17 16h57.08.521028 +0530,
7,0,8,o,1.1158958000014536,None,8,0,7,148.15646099997684,,,,,,,,,,,,,,,,,,,,,,,,,,,,,,,,,,,,,,,,,,,,,,,,,,148.14058499998646,148.15646099997684,148.64193709997926,148.6497865000274,148.65768519998528,148.65768519998528,148.65768519998528,149.7796472000191,Objects\150a.jpg,pre,o,1.1158958000014536,None,,,,,,,,00042,001,2026-01-17_16h56.53.653,MST_test,2024.2.0,59.87529174074675,2026-01-17 16h57.08.521028 +0530,
8,0,9,n,1.4445026000030339,None,9,0,8,149.79538690001937,,,,,,,,,,,,,,,,,,,,,,,,,,,,,,,,,,,,,,,,,,,,,,,,,,149.7797405999736,149.79538690001937,150.28058939997572,150.28363139997236,150.29711260000477,150.29711260000477,150.29711260000477,151.75279569998384,Foils\033a.jpg,none,n,1.4445026000030339,None,,,,,,,,00042,001,2026-01-17_16h56.53.653,MST_test,2024.2.0,59.87529174074675,2026-01-17 16h57.08.521028 +0530,
9,0,10,n,2.798039899964351,None,10,0,9,151.768959500012,,,,,,,,,,,,,,,,,,,,,,,,,,,,,,,,,,,,,,,,,,,,,,,,,,151.75289170001633,151.768959500012,152.25432700000238,152.26363000000129,152.28753899998264,152.28753899998264,152.28753899998264,155.09838989999844,Objects\331b.jpg,pre,n,2.798039899964351,None,,,,,,,,00042,001,2026-01-17_16h56.53.653,MST_test,2024.2.0,59.87529174074675,2026-01-17 16h57.08.521028 +0530,
10,0,11,o,1.2927441999781877,None,11,0,10,155.11401570000453,,,,,,,,,,,,,,,,,,,,,,,,,,,,,,,,,,,,,,,,,,,,,,,,,,155.09848889999557,155.11401570000453,155.5992094000103,155.60864300001413,155.6324694000068,155.6324694000068,155.6324694000068,156.93778679997195,Objects\129b.jpg,pre,o,1.2927441999781877,None,,,,,,,,00042,001,2026-01-17_16h56.53.653,MST_test,2024.2.0,59.87529174074675,2026-01-17 16h57.08.521028 +0530,
11,0,12,n,3.9020970999845304,None,12,0,11,156.95390570000745,,,,,,,,,,,,,,,,,,,,,,,,,,,,,,,,,,,,,,,,,,,,,,,,,,156.9379292000085,156.95390570000745,157.43899140000576,157.44190460001118,157.455638799991,157.455638799991,157.455638799991,161.37005269998917,Foils\073a.jpg,none,n,3.9020970999845304,None,,,,,,,,00042,001,2026-01-17_16h56.53.653,MST_test,2024.2.0,59.87529174074675,2026-01-17 16h57.08.521028 +0530,
12,0,13,s,3.631367900001351,None,13,0,12,161.38597559998743,,,,,,,,,,,,,,,,,,,,,,,,,,,,,,,,,,,,,,,,,,,,,,,,,,161.37014459999045,161.38597559998743,161.87117830000352,161.87904540001182,161.88723140000366,161.88723140000366,161.88723140000366,165.53462549997494,Objects\350a.jpg,post,s,3.631367900001351,None,,,,,,,,00042,001,2026-01-17_16h56.53.653,MST_test,2024.2.0,59.87529174074675,2026-01-17 16h57.08.521028 +0530,
13,0,14,o,2.3612912999815308,None,14,0,13,165.55069830000866,,,,,,,,,,,,,,,,,,,,,,,,,,,,,,,,,,,,,,,,,,,,,,,,,,165.53472559998045,165.55069830000866,166.03638479998335,166.0439138999791,166.05230839998694,166.05230839998694,166.05230839998694,168.42820149997715,Objects\234a.jpg,pre,o,2.3612912999815308,None,,,,,,,,00042,001,2026-01-17_16h56.53.653,MST_test,2024.2.0,59.87529174074675,2026-01-17 16h57.08.521028 +0530,
14,0,15,o,2.0353176000062376,None,15,0,14,168.44415709999157,,,,,,,,,,,,,,,,,,,,,,,,,,,,,,,,,,,,,,,,,,,,,,,,,,168.42829640000127,168.44415709999157,168.92911369999638,168.93242600001395,168.94586909998907,168.94586909998907,168.94586909998907,170.9867966999882,Objects\045a.jpg,mid,o,2.0353176000062376,None,,,,,,,,00042,001,2026-01-17_16h56.53.653,MST_test,2024.2.0,59.87529174074675,2026-01-17 16h57.08.521028 +0530,
15,0,16,n,2.3569822999997996,None,16,0,15,171.0029716999852,,,,,,,,,,,,,,,,,,,,,,,,,,,,,,,,,,,,,,,,,,,,,,,,,,170.98689709999599,171.0029716999852,171.488357299997,171.49098349997075,171.504996499978,171.504996499978,171.504996499978,173.86363089998486,Objects\165b.jpg,post,n,2.3569822999997996,None,,,,,,,,00042,001,2026-01-17_16h56.53.653,MST_test,2024.2.0,59.87529174074675,2026-01-17 16h57.08.521028 +0530,
16,0,17,o,1.7680471999919973,None,17,0,16,173.8797310999944,,,,,,,,,,,,,,,,,,,,,,,,,,,,,,,,,,,,,,,,,,,,,,,,,,173.86372349999147,173.8797310999944,174.36502760002622,174.36791420000372,174.38145069999155,174.38145069999155,174.38145069999155,176.15488460002234,Objects\028b.jpg,pre,o,1.7680471999919973,None,,,,,,,,00042,001,2026-01-17_16h56.53.653,MST_test,2024.2.0,59.87529174074675,2026-01-17 16h57.08.521028 +0530,
17,0,18,o,2.9327489999704994,None,18,0,17,176.17109919997165,,,,,,,,,,,,,,,,,,,,,,,,,,,,,,,,,,,,,,,,,,,,,,,,,,176.15498049999587,176.17109919997165,176.656276899972,176.66670820000581,176.68961579998722,176.68961579998722,176.68961579998722,179.6337808999815,Objects\005b.jpg,pre,o,2.9327489999704994,None,,,,,,,,00042,001,2026-01-17_16h56.53.653,MST_test,2024.2.0,59.87529174074675,2026-01-17 16h57.08.521028 +0530,
18,0,19,o,1.389349500008393,None,19,0,18,179.65005410002777,,,,,,,,,,,,,,,,,,,,,,,,,,,,,,,,,,,,,,,,,,,,,,,,,,179.6338761000079,179.65005410002777,180.13520239997888,180.138644199993,180.1517859000014,180.1517859000014,180.1517859000014,181.55720250000013,Objects\037a.jpg,post,o,1.389349500008393,None,,,,,,,,00042,001,2026-01-17_16h56.53.653,MST_test,2024.2.0,59.87529174074675,2026-01-17 16h57.08.521028 +0530,
19,0,20,n,2.4180669999914244,None,20,0,19,181.57350150001002,,,,,,,,,,,,,,,,,,,,,,,,,,,,,,,,,,,,,,,,,,,,,,,,,,181.5572973000235,181.57350150001002,182.05870789999608,182.06163010001183,182.0750925000175,182.0750925000175,182.0750925000175,184.50095379998675,Foils\106a.jpg,none,n,2.4180669999914244,None,,,,,,,,00042,001,2026-01-17_16h56.53.653,MST_test,2024.2.0,59.87529174074675,2026-01-17 16h57.08.521028 +0530,
20,0,21,s,1.8988690000260249,None,21,0,20,184.51697380002588,,,,,,,,,,,,,,,,,,,,,,,,,,,,,,,,,,,,,,,,,,,,,,,,,,184.5010467999964,184.51697380002588,185.00219069997547,185.01170630002161,185.01869950001128,185.01869950001128,185.01869950001128,186.92605790001107,Objects\314b.jpg,mid,s,1.8988690000260249,None,,,,,,,,00042,001,2026-01-17_16h56.53.653,MST_test,2024.2.0,59.87529174074675,2026-01-17 16h57.08.521028 +0530,
21,0,22,o,1.6181777999736369,None,22,0,21,186.94226099998923,,,,,,,,,,,,,,,,,,,,,,,,,,,,,,,,,,,,,,,,,,,,,,,,,,186.9261507000192,186.94226099998923,187.42718100000639,187.43019809998805,187.44418890000088,187.44418890000088,187.44418890000088,189.06692459998885,Objects\022a.jpg,mid,o,1.6181777999736369,None,,,,,,,,00042,001,2026-01-17_16h56.53.653,MST_test,2024.2.0,59.87529174074675,2026-01-17 16h57.08.521028 +0530,
22,0,23,o,1.7174994999659248,None,23,0,22,189.08322099997895,,,,,,,,,,,,,,,,,,,,,,,,,,,,,,,,,,,,,,,,,,,,,,,,,,189.06702080002287,189.08322099997895,189.56805709999753,189.57407640002202,189.5848149000085,189.5848149000085,189.5848149000085,191.3081546999747,Objects\353a.jpg,mid,o,1.7174994999659248,None,,,,,,,,00042,001,2026-01-17_16h56.53.653,MST_test,2024.2.0,59.87529174074675,2026-01-17 16h57.08.521028 +0530,
23,0,24,o,2.6278754000086337,None,24,0,23,191.32444469997426,,,,,,,,,,,,,,,,,,,,,,,,,,,,,,,,,,,,,,,,,,,,,,,,,,191.30825100000948,191.32444469997426,191.8092372000101,191.81693229998928,191.82594010001048,191.82594010001048,191.82594010001048,194.46914160001324,Objects\052b.jpg,post,o,2.6278754000086337,None,,,,,,,,00042,001,2026-01-17_16h56.53.653,MST_test,2024.2.0,59.87529174074675,2026-01-17 16h57.08.521028 +0530,
24,0,25,n,1.2508874999475665,None,25,0,24,194.48515730001964,,,,,,,,,,,,,,,,,,,,,,,,,,,,,,,,,,,,,,,,,,,,,,,,,,194.46924529998796,194.48515730001964,194.97069699998247,194.9761800999986,194.98693959997036,194.98693959997036,194.98693959997036,196.24222299997928,Foils\f5.jpg,none,n,1.2508874999475665,None,,,,,,,,00042,001,2026-01-17_16h56.53.653,MST_test,2024.2.0,59.87529174074675,2026-01-17 16h57.08.521028 +0530,
25,0,26,s,2.3746363999671303,None,26,0,25,196.2581099999952,,,,,,,,,,,,,,,,,,,,,,,,,,,,,,,,,,,,,,,,,,,,,,,,,,196.2423144999775,196.2581099999952,196.7434777999879,196.7516160000232,196.7594122000155,196.7594122000155,196.7594122000155,199.13541240000632,Objects\088a.jpg,post,s,2.3746363999671303,None,,,,,,,,00042,001,2026-01-17_16h56.53.653,MST_test,2024.2.0,59.87529174074675,2026-01-17 16h57.08.521028 +0530,
26,0,27,o,2.9363481999607757,None,27,0,26,199.15183480002452,,,,,,,,,,,,,,,,,,,,,,,,,,,,,,,,,,,,,,,,,,,,,,,,,,199.135507399973,199.15183480002452,199.63680999999633,199.65279249998275,199.67030200001318,199.67030200001318,199.67030200001318,202.61418590001995,Objects\310b.jpg,post,o,2.9363481999607757,None,,,,,,,,00042,001,2026-01-17_16h56.53.653,MST_test,2024.2.0,59.87529174074675,2026-01-17 16h57.08.521028 +0530,
27,0,28,s,2.0723487000213936,None,28,0,27,202.63040780002484,,,,,,,,,,,,,,,,,,,,,,,,,,,,,,,,,,,,,,,,,,,,,,,,,,202.61427700001514,202.63040780002484,203.11560499999905,203.1298928000033,203.1488563999883,203.1488563999883,203.1488563999883,205.22354019997874,Objects\174b.jpg,pre,s,2.0723487000213936,None,,,,,,,,00042,001,2026-01-17_16h56.53.653,MST_test,2024.2.0,59.87529174074675,2026-01-17 16h57.08.521028 +0530,
28,0,29,n,1.719561900012195,None,29,0,28,205.23986059997696,,,,,,,,,,,,,,,,,,,,,,,,,,,,,,,,,,,,,,,,,,,,,,,,,,205.22364260000177,205.23986059997696,205.72464859997854,205.72780450002756,205.7415686000022,205.7415686000022,205.7415686000022,207.46457180002471,Objects\183a.jpg,post,n,1.719561900012195,None,,,,,,,,00042,001,2026-01-17_16h56.53.653,MST_test,2024.2.0,59.87529174074675,2026-01-17 16h57.08.521028 +0530,
29,0,30,s,2.112154999980703,None,30,0,29,207.48085210000863,,,,,,,,,,,,,,,,,,,,,,,,,,,,,,,,,,,,,,,,,,,,,,,,,,207.46466840000357,207.48085210000863,207.96580299997004,207.96872339997208,207.98257649998413,207.98257649998413,207.98257649998413,210.10724189999746,Objects\032a.jpg,mid,s,2.112154999980703,None,,,,,,,,00042,001,2026-01-17_16h56.53.653,MST_test,2024.2.0,59.87529174074675,2026-01-17 16h57.08.521028 +0530,
30,0,31,o,1.44476800004486,None,31,0,30,210.1234452999779,,,,,,,,,,,,,,,,,,,,,,,,,,,,,,,,,,,,,,,,,,,,,,,,,,210.10733560001245,210.1234452999779,210.608641800005,210.61153669998748,210.62517329998082,210.62517329998082,210.62517329998082,212.08074389997637,Objects\044a.jpg,mid,o,1.44476800004486,None,,,,,,,,00042,001,2026-01-17_16h56.53.653,MST_test,2024.2.0,59.87529174074675,2026-01-17 16h57.08.521028 +0530,
31,0,32,n,2.391473199997563,None,32,0,31,212.09680160001153,,,,,,,,,,,,,,,,,,,,,,,,,,,,,,,,,,,,,,,,,,,,,,,,,,212.08083890000125,212.09680160001153,212.58224630000768,212.58506130002206,212.59878369997023,212.59878369997023,212.59878369997023,214.99105569999665,Foils\086a.jpg,none,n,2.391473199997563,None,,,,,,,,00042,001,2026-01-17_16h56.53.653,MST_test,2024.2.0,59.87529174074675,2026-01-17 16h57.08.521028 +0530,
32,0,33,s,3.4737271000049077,None,33,0,32,215.0072616999969,,,,,,,,,,,,,,,,,,,,,,,,,,,,,,,,,,,,,,,,,,,,,,,,,,214.99114910000935,215.0072616999969,215.49229740002193,215.49530710000545,215.50880880001932,215.50880880001932,215.50880880001932,218.98826690000715,Objects\121b.jpg,mid,s,3.4737271000049077,None,,,,,,,,00042,001,2026-01-17_16h56.53.653,MST_test,2024.2.0,59.87529174074675,2026-01-17 16h57.08.521028 +0530,
33,0,34,o,1.267885599983856,None,34,0,33,219.0045398999937,,,,,,,,,,,,,,,,,,,,,,,,,,,,,,,,,,,,,,,,,,,,,,,,,,218.9883687000256,219.0045398999937,219.48949499998707,219.49271500000032,219.50626509997528,219.50626509997528,219.50626509997528,220.77785690000746,Objects\104a.jpg,mid,o,1.267885599983856,None,,,,,,,,00042,001,2026-01-17_16h56.53.653,MST_test,2024.2.0,59.87529174074675,2026-01-17 16h57.08.521028 +0530,
34,0,35,n,4.125872200005688,None,35,0,34,220.79402209998807,,,,,,,,,,,,,,,,,,,,,,,,,,,,,,,,,,,,,,,,,,,,,,,,,,220.77795159997186,220.79402209998807,221.27922059997218,221.2843855000101,221.29589740000665,221.29589740000665,221.29589740000665,225.4275336000137,Foils\f7.jpg,none,n,4.125872200005688,None,,,,,,,,00042,001,2026-01-17_16h56.53.653,MST_test,2024.2.0,59.87529174074675,2026-01-17 16h57.08.521028 +0530,
35,0,36,n,1.4125001999782398,None,36,0,35,225.4436693000025,,,,,,,,,,,,,,,,,,,,,,,,,,,,,,,,,,,,,,,,,,,,,,,,,,225.42762759997277,225.4436693000025,225.92907489999197,225.93668829998933,225.94532100000652,225.94532100000652,225.94532100000652,227.3676462000003,Objects\233b.jpg,post,n,1.4125001999782398,None,,,,,,,,00042,001,2026-01-17_16h56.53.653,MST_test,2024.2.0,59.87529174074675,2026-01-17 16h57.08.521028 +0530,
36,0,37,s,3.399827199988067,None,37,0,36,227.3837615000084,,,,,,,,,,,,,,,,,,,,,,,,,,,,,,,,,,,,,,,,,,,,,,,,,,227.36773689999245,227.3837615000084,227.86904349998804,227.87495789997047,227.88547959999414,227.88547959999414,227.88547959999414,231.29823600000236,Objects\194a.jpg,mid,s,3.399827199988067,None,,,,,,,,00042,001,2026-01-17_16h56.53.653,MST_test,2024.2.0,59.87529174074675,2026-01-17 16h57.08.521028 +0530,
37,0,38,n,1.5814035999937914,None,38,0,37,231.31418450002093,,,,,,,,,,,,,,,,,,,,,,,,,,,,,,,,,,,,,,,,,,,,,,,,,,231.29833309998503,231.31418450002093,231.79939409997314,231.80869019997772,231.83263570000418,231.83263570000418,231.83263570000418,233.42256989999441,Foils\093b.jpg,none,n,1.5814035999937914,None,,,,,,,,00042,001,2026-01-17_16h56.53.653,MST_test,2024.2.0,59.87529174074675,2026-01-17 16h57.08.521028 +0530,
38,0,39,s,11.513596799981315,None,39,0,38,233.43830989999697,,,,,,,,,,,,,,,,,,,,,,,,,,,,,,,,,,,,,,,,,,,,,,,,,,233.4226689999923,233.43830989999697,233.92352920002304,233.93078749999404,233.93991120002465,233.93991120002465,233.93991120002465,245.46436169999652,Objects\364b.jpg,mid,s,11.513596799981315,None,,,,,,,,00042,001,2026-01-17_16h56.53.653,MST_test,2024.2.0,59.87529174074675,2026-01-17 16h57.08.521028 +0530,
39,0,40,n,5.2410433999612,None,40,0,39,245.48045590001857,,,,,,,,,,,,,,,,,,,,,,,,,,,,,,,,,,,,,,,,,,,,,,,,,,245.46445470000617,245.48045590001857,245.96562929998618,245.97376710001845,245.98191029997543,245.98191029997543,245.98191029997543,251.23476919997483,Objects\118a.jpg,mid,n,5.2410433999612,None,,,,,,,,00042,001,2026-01-17_16h56.53.653,MST_test,2024.2.0,59.87529174074675,2026-01-17 16h57.08.521028 +0530,
40,0,41,s,1.7411453000386246,None,41,0,40,251.25067249999847,,,,,,,,,,,,,,,,,,,,,,,,,,,,,,,,,,,,,,,,,,,,,,,,,,251.2348634999944,251.25067249999847,251.7358874999918,251.74189689999912,251.75248570000986,251.75248570000986,251.75248570000986,253.50904099998297,Objects\227a.jpg,pre,s,1.7411453000386246,None,,,,,,,,00042,001,2026-01-17_16h56.53.653,MST_test,2024.2.0,59.87529174074675,2026-01-17 16h57.08.521028 +0530,
41,0,42,s,4.282336600008421,None,42,0,41,253.525459699973,,,,,,,,,,,,,,,,,,,,,,,,,,,,,,,,,,,,,,,,,,,,,,,,,,253.5091460000258,253.525459699973,254.0104995999718,254.0133115000208,254.02714149997337,254.02714149997337,254.02714149997337,258.3260585999815,Foils\057a.jpg,none,s,4.282336600008421,None,,,,,,,,00042,001,2026-01-17_16h56.53.653,MST_test,2024.2.0,59.87529174074675,2026-01-17 16h57.08.521028 +0530,
42,0,43,n,1.360784100019373,None,43,0,42,258.3421722999774,,,,,,,,,,,,,,,,,,,,,,,,,,,,,,,,,,,,,,,,,,,,,,,,,,258.3261519999942,258.3421722999774,258.82737529999577,258.8449202000047,258.860630900017,258.860630900017,258.860630900017,260.2326854999992,Objects\333b.jpg,mid,n,1.360784100019373,None,,,,,,,,00042,001,2026-01-17_16h56.53.653,MST_test,2024.2.0,59.87529174074675,2026-01-17 16h57.08.521028 +0530,
43,0,44,n,1.8078564999741502,None,44,0,43,260.24903589999303,,,,,,,,,,,,,,,,,,,,,,,,,,,,,,,,,,,,,,,,,,,,,,,,,,260.23278159997426,260.24903589999303,260.73393889999716,260.74202280002646,260.74988780001877,260.74988780001877,260.74988780001877,262.5744806000148,Foils\020b.jpg,none,n,1.8078564999741502,None,,,,,,,,00042,001,2026-01-17_16h56.53.653,MST_test,2024.2.0,59.87529174074675,2026-01-17 16h57.08.521028 +0530,
44,0,45,o,1.777477000025101,None,45,0,44,262.59050980000757,,,,,,,,,,,,,,,,,,,,,,,,,,,,,,,,,,,,,,,,,,,,,,,,,,262.574575799983,262.59050980000757,263.0754668000154,263.07812899997225,263.09223660000134,263.09223660000134,263.09223660000134,264.8826078000129,Objects\138a.jpg,pre,o,1.777477000025101,None,,,,,,,,00042,001,2026-01-17_16h56.53.653,MST_test,2024.2.0,59.87529174074675,2026-01-17 16h57.08.521028 +0530,
45,0,46,o,1.2854803000227548,None,46,0,45,264.89864379999926,,,,,,,,,,,,,,,,,,,,,,,,,,,,,,,,,,,,,,,,,,,,,,,,,,264.8827053999994,264.89864379999926,265.38379039999563,265.38657420000527,265.4001960000023,265.4001960000023,265.4001960000023,266.68873870000243,Objects\027a.jpg,pre,o,1.2854803000227548,None,,,,,,,,00042,001,2026-01-17_16h56.53.653,MST_test,2024.2.0,59.87529174074675,2026-01-17 16h57.08.521028 +0530,
46,0,47,o,0.8884628999512643,None,47,0,46,266.705032799975,,,,,,,,,,,,,,,,,,,,,,,,,,,,,,,,,,,,,,,,,,,,,,,,,,266.68884840002283,266.705032799975,267.1899921000004,267.19693099998403,267.2065395999816,267.2065395999816,267.2065395999816,268.1104186999728,Objects\352a.jpg,pre,o,0.8884628999512643,None,,,,,,,,00042,001,2026-01-17_16h56.53.653,MST_test,2024.2.0,59.87529174074675,2026-01-17 16h57.08.521028 +0530,
47,0,48,n,0.9857284000026993,None,48,0,47,268.126564199978,,,,,,,,,,,,,,,,,,,,,,,,,,,,,,,,,,,,,,,,,,,,,,,,,,268.11051560001215,268.126564199978,268.61163870000746,268.61999199999264,268.62772659998154,268.62772659998154,268.62772659998154,269.6156607000157,Foils\097a.jpg,none,n,0.9857284000026993,None,,,,,,,,00042,001,2026-01-17_16h56.53.653,MST_test,2024.2.0,59.87529174074675,2026-01-17 16h57.08.521028 +0530,
48,0,49,n,2.0087976999930106,None,49,0,48,269.631954499986,,,,,,,,,,,,,,,,,,,,,,,,,,,,,,,,,,,,,,,,,,,,,,,,,,269.61575380002614,269.631954499986,270.11679369997,270.11980960000074,270.1337243000162,270.1337243000162,270.1337243000162,272.15765140001895,Foils\101b.jpg,none,n,2.0087976999930106,None,,,,,,,,00042,001,2026-01-17_16h56.53.653,MST_test,2024.2.0,59.87529174074675,2026-01-17 16h57.08.521028 +0530,
49,0,50,n,3.0253410000004806,None,50,0,49,272.1740625000093,,,,,,,,,,,,,,,,,,,,,,,,,,,,,,,,,,,,,,,,,,,,,,,,,,272.15776550001465,272.1740625000093,272.6590275000199,272.66165409999667,272.6757935999776,272.6757935999776,272.6757935999776,275.70365219999803,Foils\074a.jpg,none,n,3.0253410000004806,None,,,,,,,,00042,001,2026-01-17_16h56.53.653,MST_test,2024.2.0,59.87529174074675,2026-01-17 16h57.08.521028 +0530,
50,0,51,n,1.0320653999806382,None,51,0,50,275.7199044000008,,,,,,,,,,,,,,,,,,,,,,,,,,,,,,,,,,,,,,,,,,,,,,,,,,275.70374919997994,275.7199044000008,276.20477840001695,276.2074358999962,276.22154200001387,276.22154200001387,276.22154200001387,277.2590904000099,Foils\034a.jpg,none,n,1.0320653999806382,None,,,,,,,,00042,001,2026-01-17_16h56.53.653,MST_test,2024.2.0,59.87529174074675,2026-01-17 16h57.08.521028 +0530,
51,0,52,n,1.2597219999879599,None,52,0,51,277.2751513000112,,,,,,,,,,,,,,,,,,,,,,,,,,,,,,,,,,,,,,,,,,,,,,,,,,277.25918230001116,277.2751513000112,277.7604858999839,277.7757795000216,277.7935905000195,277.7935905000195,277.7935905000195,279.0654156000237,Objects\338b.jpg,post,n,1.2597219999879599,None,,,,,,,,00042,001,2026-01-17_16h56.53.653,MST_test,2024.2.0,59.87529174074675,2026-01-17 16h57.08.521028 +0530,
52,0,53,s,1.8941104999976233,None,53,0,52,279.08159179997165,,,,,,,,,,,,,,,,,,,,,,,,,,,,,,,,,,,,,,,,,,,,,,,,,,279.0655119000003,279.08159179997165,279.56673419999424,279.5740050000022,279.58301529998425,279.58301529998425,279.58301529998425,281.49070510000456,Objects\212a.jpg,post,s,1.8941104999976233,None,,,,,,,,00042,001,2026-01-17_16h56.53.653,MST_test,2024.2.0,59.87529174074675,2026-01-17 16h57.08.521028 +0530,
53,0,54,s,1.8127181000309065,None,54,0,53,281.50690109998686,,,,,,,,,,,,,,,,,,,,,,,,,,,,,,,,,,,,,,,,,,,,,,,,,,281.49080269999104,281.50690109998686,281.9918880999903,282.0057958000107,282.0253600999713,282.0253600999713,282.0253600999713,283.84883490001084,Objects\277b.jpg,post,s,1.8127181000309065,None,,,,,,,,00042,001,2026-01-17_16h56.53.653,MST_test,2024.2.0,59.87529174074675,2026-01-17 16h57.08.521028 +0530,
54,0,55,s,1.1511991000152193,None,55,0,54,283.865000699996,,,,,,,,,,,,,,,,,,,,,,,,,,,,,,,,,,,,,,,,,,,,,,,,,,283.84892720001517,283.865000699996,284.34997949999524,284.35707789997105,284.3668722999864,284.3668722999864,284.3668722999864,285.5213492999901,Objects\339a.jpg,mid,s,1.1511991000152193,None,,,,,,,,00042,001,2026-01-17_16h56.53.653,MST_test,2024.2.0,59.87529174074675,2026-01-17 16h57.08.521028 +0530,
55,0,56,o,1.4551650999928825,None,56,0,55,285.5375297999708,,,,,,,,,,,,,,,,,,,,,,,,,,,,,,,,,,,,,,,,,,,,,,,,,,285.5214432000066,285.5375297999708,286.0224806999904,286.03054120001616,286.0388791000005,286.0388791000005,286.0388791000005,287.4951069999952,Objects\166a.jpg,mid,o,1.4551650999928825,None,,,,,,,,00042,001,2026-01-17_16h56.53.653,MST_test,2024.2.0,59.87529174074675,2026-01-17 16h57.08.521028 +0530,
56,0,57,n,1.191975999972783,None,57,0,56,287.5110956999706,,,,,,,,,,,,,,,,,,,,,,,,,,,,,,,,,,,,,,,,,,,,,,,,,,287.4951982999919,287.5110956999706,287.9960645000101,288.01060769998,288.0295479000197,288.0295479000197,288.0295479000197,289.2343179999734,Objects\236b.jpg,post,n,1.191975999972783,None,,,,,,,,00042,001,2026-01-17_16h56.53.653,MST_test,2024.2.0,59.87529174074675,2026-01-17 16h57.08.521028 +0530,
57,0,58,n,0.8056894000037573,None,58,0,57,289.25039549998473,,,,,,,,,,,,,,,,,,,,,,,,,,,,,,,,,,,,,,,,,,,,,,,,,,289.234410199977,289.25039549998473,289.73562789999414,289.7415132999886,289.75223350001033,289.75223350001033,289.75223350001033,290.5726149000111,Objects\292a.jpg,post,n,0.8056894000037573,None,,,,,,,,00042,001,2026-01-17_16h56.53.653,MST_test,2024.2.0,59.87529174074675,2026-01-17 16h57.08.521028 +0530,
58,0,59,o,1.563709200010635,None,59,0,58,290.5884454000043,,,,,,,,,,,,,,,,,,,,,,,,,,,,,,,,,,,,,,,,,,,,,,,,,,290.57271129998844,290.5884454000043,291.07362639997154,291.08120369998505,291.0898785999743,291.0898785999743,291.0898785999743,292.66336559999036,Objects\091a.jpg,post,o,1.563709200010635,None,,,,,,,,00042,001,2026-01-17_16h56.53.653,MST_test,2024.2.0,59.87529174074675,2026-01-17 16h57.08.521028 +0530,
59,0,60,n,0.7534051000257023,None,60,0,59,292.6790734999813,,,,,,,,,,,,,,,,,,,,,,,,,,,,,,,,,,,,,,,,,,,,,,,,,,292.6634575999924,292.6790734999813,293.16427629999816,293.167047200026,293.18079680000665,293.18079680000665,293.18079680000665,293.93464150000364,Objects\153a.jpg,pre,n,0.7534051000257023,None,,,,,,,,00042,001,2026-01-17_16h56.53.653,MST_test,2024.2.0,59.87529174074675,2026-01-17 16h57.08.521028 +0530,
60,0,61,s,1.6101043000235222,None,61,0,60,293.9503603000194,,,,,,,,,,,,,,,,,,,,,,,,,,,,,,,,,,,,,,,,,,,,,,,,,,293.93473979999544,293.9503603000194,294.4355368000106,294.4433796000085,294.4514034999884,294.4514034999884,294.4514034999884,296.0748988999985,Objects\238a.jpg,mid,s,1.6101043000235222,None,,,,,,,,00042,001,2026-01-17_16h56.53.653,MST_test,2024.2.0,59.87529174074675,2026-01-17 16h57.08.521028 +0530,
61,0,62,s,19.869070600019768,None,62,0,61,296.0910323999706,,,,,,,,,,,,,,,,,,,,,,,,,,,,,,,,,,,,,,,,,,,,,,,,,,296.0749951999751,296.0910323999706,296.5762290999992,296.58302229997935,296.5927471999894,296.5927471999894,296.5927471999894,316.4634424999822,Objects\062a.jpg,post,s,19.869070600019768,None,,,,,,,,00042,001,2026-01-17_16h56.53.653,MST_test,2024.2.0,59.87529174074675,2026-01-17 16h57.08.521028 +0530,
62,0,63,n,1.1280040999990888,None,63,0,62,316.47936080000363,,,,,,,,,,,,,,,,,,,,,,,,,,,,,,,,,,,,,,,,,,,,,,,,,,316.4635468000197,316.47936080000363,316.96419209998567,316.9754037000239,316.9977888999856,316.9977888999856,316.9977888999856,318.1356240999885,Objects\084b.jpg,mid,n,1.1280040999990888,None,,,,,,,,00042,001,2026-01-17_16h56.53.653,MST_test,2024.2.0,59.87529174074675,2026-01-17 16h57.08.521028 +0530,
63,0,64,s,1.5432532000122592,None,64,0,63,318.15160959999776,,,,,,,,,,,,,,,,,,,,,,,,,,,,,,,,,,,,,,,,,,,,,,,,,,318.13571609999053,318.15160959999776,318.6368325999938,318.65005519997794,318.6702133999788,318.6702133999788,318.6702133999788,320.2260528000188,Objects\336b.jpg,pre,s,1.5432532000122592,None,,,,,,,,00042,001,2026-01-17_16h56.53.653,MST_test,2024.2.0,59.87529174074675,2026-01-17 16h57.08.521028 +0530,
64,0,65,s,1.5493458000128157,None,65,0,64,320.2422696999856,,,,,,,,,,,,,,,,,,,,,,,,,,,,,,,,,,,,,,,,,,,,,,,,,,320.22614480002085,320.2422696999856,320.72745240002405,320.74189040000783,320.76072750001913,320.76072750001913,320.76072750001913,322.31699630001094,Objects\216b.jpg,mid,s,1.5493458000128157,None,,,,,,,,00042,001,2026-01-17_16h56.53.653,MST_test,2024.2.0,59.87529174074675,2026-01-17 16h57.08.521028 +0530,
65,0,66,n,1.0751691999612376,None,66,0,65,322.33292740001343,,,,,,,,,,,,,,,,,,,,,,,,,,,,,,,,,,,,,,,,,,,,,,,,,,322.31709020002745,322.33292740001343,322.81812020001234,322.8209377999883,322.8346403000178,322.8346403000178,322.8346403000178,323.9226208999753,Objects\151a.jpg,mid,n,1.0751691999612376,None,,,,,,,,00042,001,2026-01-17_16h56.53.653,MST_test,2024.2.0,59.87529174074675,2026-01-17 16h57.08.521028 +0530,
66,0,67,o,1.4374499000259675,None,67,0,66,323.938551899977,,,,,,,,,,,,,,,,,,,,,,,,,,,,,,,,,,,,,,,,,,,,,,,,,,323.92271309997886,323.938551899977,324.4237635000027,324.429158199986,324.4402734999894,324.4402734999894,324.4402734999894,325.8793636999908,Objects\231a.jpg,post,o,1.4374499000259675,None,,,,,,,,00042,001,2026-01-17_16h56.53.653,MST_test,2024.2.0,59.87529174074675,2026-01-17 16h57.08.521028 +0530,
67,0,68,n,2.039228199981153,None,68,0,67,325.89552020002156,,,,,,,,,,,,,,,,,,,,,,,,,,,,,,,,,,,,,,,,,,,,,,,,,,325.8794589000172,325.89552020002156,326.3804856999777,326.3890780999791,326.41423290001694,326.41423290001694,326.41423290001694,328.4550522000063,Objects\266a.jpg,post,n,2.039228199981153,None,,,,,,,,00042,001,2026-01-17_16h56.53.653,MST_test,2024.2.0,59.87529174074675,2026-01-17 16h57.08.521028 +0530,
68,0,69,n,0.8248380000004545,None,69,0,68,328.47108119999757,,,,,,,,,,,,,,,,,,,,,,,,,,,,,,,,,,,,,,,,,,,,,,,,,,328.45514779997757,328.47108119999757,328.95628310000757,328.9641234999872,328.97276380000403,328.97276380000403,328.97276380000403,329.80958529998315,Foils\082a.jpg,none,n,0.8248380000004545,None,,,,,,,,00042,001,2026-01-17_16h56.53.653,MST_test,2024.2.0,59.87529174074675,2026-01-17 16h57.08.521028 +0530,
69,0,70,n,0.9814456000458449,None,70,0,69,329.8259366999846,,,,,,,,,,,,,,,,,,,,,,,,,,,,,,,,,,,,,,,,,,,,,,,,,,329.80967970000347,329.8259366999846,330.3109097999986,330.3142025999841,330.3276708999765,330.3276708999765,330.3276708999765,331.31506880000234,Objects\282b.jpg,mid,n,0.9814456000458449,None,,,,,,,,00042,001,2026-01-17_16h56.53.653,MST_test,2024.2.0,59.87529174074675,2026-01-17 16h57.08.521028 +0530,
70,0,71,s,1.3564512999728322,None,71,0,70,331.3312254999764,,,,,,,,,,,,,,,,,,,,,,,,,,,,,,,,,,,,,,,,,,,,,,,,,,331.31517120002536,331.3312254999764,331.8161660999758,331.81887670001015,331.83294930000557,331.83294930000557,331.83294930000557,333.2050688000163,Objects\057a.jpg,pre,s,1.3564512999728322,None,,,,,,,,00042,001,2026-01-17_16h56.53.653,MST_test,2024.2.0,59.87529174074675,2026-01-17 16h57.08.521028 +0530,
71,0,72,o,3.002441800024826,None,72,0,71,333.2210467000259,,,,,,,,,,,,,,,,,,,,,,,,,,,,,,,,,,,,,,,,,,,,,,,,,,333.205163799983,333.2210467000259,333.7061657999875,333.71443410002394,333.7233731999877,333.7233731999877,333.7233731999877,336.73391640000045,Objects\278a.jpg,pre,o,3.002441800024826,None,,,,,,,,00042,001,2026-01-17_16h56.53.653,MST_test,2024.2.0,59.87529174074675,2026-01-17 16h57.08.521028 +0530,
72,0,73,n,1.2184807000448927,None,73,0,72,336.7500719000236,,,,,,,,,,,,,,,,,,,,,,,,,,,,,,,,,,,,,,,,,,,,,,,,,,336.7340161000029,336.7500719000236,337.23539629997686,337.2428886999842,337.2512967999792,337.2512967999792,337.2512967999792,338.47340830002213,Objects\357b.jpg,post,n,1.2184807000448927,None,,,,,,,,00042,001,2026-01-17_16h56.53.653,MST_test,2024.2.0,59.87529174074675,2026-01-17 16h57.08.521028 +0530,
73,0,74,s,1.5663489999715239,None,74,0,73,338.48949579999316,,,,,,,,,,,,,,,,,,,,,,,,,,,,,,,,,,,,,,,,,,,,,,,,,,338.4735059000086,338.48949579999316,338.9747112999903,338.98924800002715,339.0079447000171,339.0079447000171,339.0079447000171,340.5807042000233,Objects\014b.jpg,pre,s,1.5663489999715239,None,,,,,,,,00042,001,2026-01-17_16h56.53.653,MST_test,2024.2.0,59.87529174074675,2026-01-17 16h57.08.521028 +0530,
74,0,75,s,1.4916100000264123,None,75,0,74,340.59699869999895,,,,,,,,,,,,,,,,,,,,,,,,,,,,,,,,,,,,,,,,,,,,,,,,,,340.5807978999801,340.59699869999895,341.082121799991,341.0914430000121,341.1154479000252,341.1154479000252,341.1154479000252,342.6213839999982,Objects\077b.jpg,pre,s,1.4916100000264123,None,,,,,,,,00042,001,2026-01-17_16h56.53.653,MST_test,2024.2.0,59.87529174074675,2026-01-17 16h57.08.521028 +0530,
75,0,76,s,1.2346105999895371,None,76,0,75,342.63737170002423,,,,,,,,,,,,,,,,,,,,,,,,,,,,,,,,,,,,,,,,,,,,,,,,,,342.62148690002505,342.63737170002423,343.12256839999463,343.1253390000202,343.13921250001295,343.13921250001295,343.13921250001295,344.377393200004,Objects\076b.jpg,post,s,1.2346105999895371,None,,,,,,,,00042,001,2026-01-17_16h56.53.653,MST_test,2024.2.0,59.87529174074675,2026-01-17 16h57.08.521028 +0530,
76,0,77,n,3.1490498000057414,None,77,0,76,344.39442450000206,,,,,,,,,,,,,,,,,,,,,,,,,,,,,,,,,,,,,,,,,,,,,,,,,,344.3774858000106,344.39442450000206,344.8787547000102,344.88818269997137,344.9121584999957,344.9121584999957,344.9121584999957,348.07388769998215,Objects\111b.jpg,mid,n,3.1490498000057414,None,,,,,,,,00042,001,2026-01-17_16h56.53.653,MST_test,2024.2.0,59.87529174074675,2026-01-17 16h57.08.521028 +0530,
77,0,78,o,1.741980400052853,None,78,0,77,348.0897877999814,,,,,,,,,,,,,,,,,,,,,,,,,,,,,,,,,,,,,,,,,,,,,,,,,,348.0739881999907,348.0897877999814,348.5750141000026,348.5778931999812,348.5915165999904,348.5915165999904,348.5915165999904,350.3482812999864,Objects\010a.jpg,pre,o,1.741980400052853,None,,,,,,,,00042,001,2026-01-17_16h56.53.653,MST_test,2024.2.0,59.87529174074675,2026-01-17 16h57.08.521028 +0530,
78,0,79,s,1.3086327000055462,None,79,0,78,350.36441590002505,,,,,,,,,,,,,,,,,,,,,,,,,,,,,,,,,,,,,,,,,,,,,,,,,,350.34838959999615,350.36441590002505,350.8496354999952,350.8527105000103,350.86626989999786,350.86626989999786,350.86626989999786,352.1882171999896,Objects\193a.jpg,pre,s,1.3086327000055462,None,,,,,,,,00042,001,2026-01-17_16h56.53.653,MST_test,2024.2.0,59.87529174074675,2026-01-17 16h57.08.521028 +0530,
79,0,80,s,1.1568036999669857,None,80,0,79,352.20431529998314,,,,,,,,,,,,,,,,,,,,,,,,,,,,,,,,,,,,,,,,,,,,,,,,,,352.1883139000274,352.20431529998314,352.68926279997686,352.69197430001805,352.7060256000259,352.7060256000259,352.7060256000259,353.87719520000974,Objects\157a.jpg,post,s,1.1568036999669857,None,,,,,,,,00042,001,2026-01-17_16h56.53.653,MST_test,2024.2.0,59.87529174074675,2026-01-17 16h57.08.521028 +0530,
80,0,81,s,1.5304353999672458,None,81,0,80,353.8934474000125,,,,,,,,,,,,,,,,,,,,,,,,,,,,,,,,,,,,,,,,,,,,,,,,,,353.87728930002777,353.8934474000125,354.3789099000278,354.3864729999914,354.3947037999751,354.3947037999751,354.3947037999751,355.93434679997154,Objects\355a.jpg,mid,s,1.5304353999672458,None,,,,,,,,00042,001,2026-01-17_16h56.53.653,MST_test,2024.2.0,59.87529174074675,2026-01-17 16h57.08.521028 +0530,
81,0,82,s,0.8242188000003807,None,82,0,81,355.9507644000114,,,,,,,,,,,,,,,,,,,,,,,,,,,,,,,,,,,,,,,,,,,,,,,,,,355.9344635999878,355.9507644000114,356.43571589997737,356.45072359999176,356.4694119999767,356.4694119999767,356.4694119999767,357.30592329998035,Objects\177b.jpg,pre,s,0.8242188000003807,None,,,,,,,,00042,001,2026-01-17_16h56.53.653,MST_test,2024.2.0,59.87529174074675,2026-01-17 16h57.08.521028 +0530,
82,0,83,n,1.1888535000034608,None,83,0,82,357.3221187000163,,,,,,,,,,,,,,,,,,,,,,,,,,,,,,,,,,,,,,,,,,,,,,,,,,357.3060155999847,357.3221187000163,357.8073188000126,357.81829660001677,357.84056340000825,357.84056340000825,357.84056340000825,359.0455292999977,Objects\220b.jpg,mid,n,1.1888535000034608,None,,,,,,,,00042,001,2026-01-17_16h56.53.653,MST_test,2024.2.0,59.87529174074675,2026-01-17 16h57.08.521028 +0530,
83,0,84,n,1.8982340999646112,None,84,0,83,359.06173150002724,,,,,,,,,,,,,,,,,,,,,,,,,,,,,,,,,,,,,,,,,,,,,,,,,,359.04562340001576,359.06173150002724,359.5466226999997,359.5494503999944,359.56359510001494,359.56359510001494,359.56359510001494,361.47061550000217,Objects\127b.jpg,pre,n,1.8982340999646112,None,,,,,,,,00042,001,2026-01-17_16h56.53.653,MST_test,2024.2.0,59.87529174074675,2026-01-17 16h57.08.521028 +0530,
84,0,85,s,1.6015160999959335,None,85,0,84,361.48668490001,,,,,,,,,,,,,,,,,,,,,,,,,,,,,,,,,,,,,,,,,,,,,,,,,,361.4707056999905,361.48668490001,361.9718968999805,361.9754077999969,361.98842419998255,361.98842419998255,361.98842419998255,363.5947450000094,Objects\131b.jpg,mid,s,1.6015160999959335,None,,,,,,,,00042,001,2026-01-17_16h56.53.653,MST_test,2024.2.0,59.87529174074675,2026-01-17 16h57.08.521028 +0530,
85,0,86,s,0.965456300007645,None,86,0,85,363.6109102999908,,,,,,,,,,,,,,,,,,,,,,,,,,,,,,,,,,,,,,,,,,,,,,,,,,363.5948337999871,363.6109102999908,364.0958882999839,364.09869900002377,364.1126768999966,364.1126768999966,364.1126768999966,365.0836366000003,Objects\008b.jpg,post,s,0.965456300007645,None,,,,,,,,00042,001,2026-01-17_16h56.53.653,MST_test,2024.2.0,59.87529174074675,2026-01-17 16h57.08.521028 +0530,
86,0,87,s,0.6771896999562159,None,87,0,86,365.09934969997266,,,,,,,,,,,,,,,,,,,,,,,,,,,,,,,,,,,,,,,,,,,,,,,,,,365.08373349998146,365.09934969997266,365.5845499000279,365.5874231000198,365.6010786999832,365.6010786999832,365.6010786999832,366.2874988000258,Objects\063a.jpg,mid,s,0.6771896999562159,None,,,,,,,,00042,001,2026-01-17_16h56.53.653,MST_test,2024.2.0,59.87529174074675,2026-01-17 16h57.08.521028 +0530,
87,0,88,n,1.4255541999591514,None,88,0,87,366.30357250000816,,,,,,,,,,,,,,,,,,,,,,,,,,,,,,,,,,,,,,,,,,,,,,,,,,366.28759070002707,366.30357250000816,366.7887529999716,366.7912350000115,366.8052814999828,366.8052814999828,366.8052814999828,368.24434819997987,Foils\026a.jpg,none,n,1.4255541999591514,None,,,,,,,,00042,001,2026-01-17_16h56.53.653,MST_test,2024.2.0,59.87529174074675,2026-01-17 16h57.08.521028 +0530,
88,0,89,s,1.37818659999175,None,89,0,88,368.2606618999853,,,,,,,,,,,,,,,,,,,,,,,,,,,,,,,,,,,,,,,,,,,,,,,,,,368.24443860002793,368.2606618999853,368.74550550000276,368.75509940000484,368.77898469998036,368.77898469998036,368.77898469998036,370.1683007000247,Objects\259a.jpg,post,s,1.37818659999175,None,,,,,,,,00042,001,2026-01-17_16h56.53.653,MST_test,2024.2.0,59.87529174074675,2026-01-17 16h57.08.521028 +0530,
89,0,90,s,1.5905737000284716,None,90,0,89,370.1838259000215,,,,,,,,,,,,,,,,,,,,,,,,,,,,,,,,,,,,,,,,,,,,,,,,,,370.1683923000237,370.1838259000215,370.6690189000219,370.6846051000175,370.7024639999727,370.7024639999727,370.7024639999727,372.30856149998726,Objects\304b.jpg,pre,s,1.5905737000284716,None,,,,,,,,00042,001,2026-01-17_16h56.53.653,MST_test,2024.2.0,59.87529174074675,2026-01-17 16h57.08.521028 +0530,
90,0,91,s,0.9619698000024073,None,91,0,90,372.32489719998557,,,,,,,,,,,,,,,,,,,,,,,,,,,,,,,,,,,,,,,,,,,,,,,,,,372.3086545999977,372.32489719998557,372.80985830002464,372.82423019997077,372.84322159999283,372.84322159999283,372.84322159999283,373.81407010002295,Objects\002b.jpg,post,s,0.9619698000024073,None,,,,,,,,00042,001,2026-01-17_16h56.53.653,MST_test,2024.2.0,59.87529174074675,2026-01-17 16h57.08.521028 +0530,
91,0,92,n,0.9299499000189826,None,92,0,91,373.8300407999777,,,,,,,,,,,,,,,,,,,,,,,,,,,,,,,,,,,,,,,,,,,,,,,,,,373.8141656999942,373.8300407999777,374.3151141999988,374.3189049999928,374.3318660000223,374.3318660000223,374.3318660000223,375.26899940002477,Foils\105a.jpg,none,n,0.9299499000189826,None,,,,,,,,00042,001,2026-01-17_16h56.53.653,MST_test,2024.2.0,59.87529174074675,2026-01-17 16h57.08.521028 +0530,
92,0,93,n,1.4905801999848336,None,93,0,92,375.28512850002153,,,,,,,,,,,,,,,,,,,,,,,,,,,,,,,,,,,,,,,,,,,,,,,,,,375.2690906000207,375.28512850002153,375.7701099999831,375.7797195999883,375.80359319999116,375.80359319999116,375.80359319999116,377.3095773999812,Objects\095b.jpg,pre,n,1.4905801999848336,None,,,,,,,,00042,001,2026-01-17_16h56.53.653,MST_test,2024.2.0,59.87529174074675,2026-01-17 16h57.08.521028 +0530,
93,0,94,n,1.057995099981781,None,94,0,93,377.3256660000188,,,,,,,,,,,,,,,,,,,,,,,,,,,,,,,,,,,,,,,,,,,,,,,,,,377.30967300001066,377.3256660000188,377.8108709999942,377.8133835999761,377.8273828999954,377.8273828999954,377.8273828999954,378.89827950001927,Foils\113a.jpg,none,n,1.057995099981781,None,,,,,,,,00042,001,2026-01-17_16h56.53.653,MST_test,2024.2.0,59.87529174074675,2026-01-17 16h57.08.521028 +0530,
94,0,95,n,0.9815098000108264,None,95,0,94,378.9147032999899,,,,,,,,,,,,,,,,,,,,,,,,,,,,,,,,,,,,,,,,,,,,,,,,,,378.8983743999852,378.9147032999899,379.39966120000463,379.4024119999958,379.4164032000117,379.4164032000117,379.4164032000117,380.4035214000032,Foils\065a.jpg,none,n,0.9815098000108264,None,,,,,,,,00042,001,2026-01-17_16h56.53.653,MST_test,2024.2.0,59.87529174074675,2026-01-17 16h57.08.521028 +0530,
95,0,96,n,0.749341499991715,None,96,0,95,380.4200007999898,,,,,,,,,,,,,,,,,,,,,,,,,,,,,,,,,,,,,,,,,,,,,,,,,,380.4036146000144,380.4200007999898,380.9049157000263,380.90763279999373,380.9216714000213,380.9216714000213,380.9216714000213,381.6746354000061,Foils\058a.jpg,none,n,0.749341499991715,None,,,,,,,,00042,001,2026-01-17_16h56.53.653,MST_test,2024.2.0,59.87529174074675,2026-01-17 16h57.08.521028 +0530,
96,0,97,n,0.8853971000062302,None,97,0,96,381.6910659999703,,,,,,,,,,,,,,,,,,,,,,,,,,,,,,,,,,,,,,,,,,,,,,,,,,381.67472710000584,381.6910659999703,382.175982500019,382.1786447999766,382.19317450001836,382.19317450001836,382.19317450001836,383.0797975999885,Foils\049a.jpg,none,n,0.8853971000062302,None,,,,,,,,00042,001,2026-01-17_16h56.53.653,MST_test,2024.2.0,59.87529174074675,2026-01-17 16h57.08.521028 +0530,
97,0,98,n,0.6403443000162952,None,98,0,97,383.096772000019,,,,,,,,,,,,,,,,,,,,,,,,,,,,,,,,,,,,,,,,,,,,,,,,,,383.0798896999913,383.096772000019,383.58154629997443,383.5842583000194,383.5977106000064,383.5977106000064,383.5977106000064,384.2505950999912,Objects\064a.jpg,mid,n,0.6403443000162952,None,,,,,,,,00042,001,2026-01-17_16h56.53.653,MST_test,2024.2.0,59.87529174074675,2026-01-17 16h57.08.521028 +0530,
98,0,99,s,1.8202694000210613,None,99,0,98,384.26683440001216,,,,,,,,,,,,,,,,,,,,,,,,,,,,,,,,,,,,,,,,,,,,,,,,,,384.25068960001227,384.26683440001216,384.75171370001044,384.7610497000278,384.78562749997946,384.78562749997946,384.78562749997946,386.6084509000066,Objects\116b.jpg,mid,s,1.8202694000210613,None,,,,,,,,00042,001,2026-01-17_16h56.53.653,MST_test,2024.2.0,59.87529174074675,2026-01-17 16h57.08.521028 +0530,
99,0,100,s,1.9185969000100158,None,100,0,99,386.624929099984,,,,,,,,,,,,,,,,,,,,,,,,,,,,,,,,,,,,,,,,,,,,,,,,,,386.6085448000231,386.624929099984,387.10995930002537,387.1125182000105,387.1267281000037,387.1267281000037,387.1267281000037,389.05070889997296,Foils\066a.jpg,none,s,1.9185969000100158,None,,,,,,,,00042,001,2026-01-17_16h56.53.653,MST_test,2024.2.0,59.87529174074675,2026-01-17 16h57.08.521028 +0530,
100,0,101,o,1.325212099996861,None,101,0,100,389.0667144000181,,,,,,,,,,,,,,,,,,,,,,,,,,,,,,,,,,,,,,,,,,,,,,,,,,389.05080570001155,389.0667144000181,389.5516746999929,389.5549989999854,389.5685632000095,389.5685632000095,389.5685632000095,390.90710630000103,Objects\054a.jpg,pre,o,1.325212099996861,None,,,,,,,,00042,001,2026-01-17_16h56.53.653,MST_test,2024.2.0,59.87529174074675,2026-01-17 16h57.08.521028 +0530,
101,0,102,o,2.4052197000128217,None,102,0,101,390.9231095999712,,,,,,,,,,,,,,,,,,,,,,,,,,,,,,,,,,,,,,,,,,,,,,,,,,390.90721029997803,390.9231095999712,391.4083152000094,391.4114369999734,391.42481419997057,391.42481419997057,391.42481419997057,393.83419490000233,Objects\031a.jpg,post,o,2.4052197000128217,None,,,,,,,,00042,001,2026-01-17_16h56.53.653,MST_test,2024.2.0,59.87529174074675,2026-01-17 16h57.08.521028 +0530,
102,0,103,n,1.5583650000044145,None,103,0,102,393.8501281000208,,,,,,,,,,,,,,,,,,,,,,,,,,,,,,,,,,,,,,,,,,,,,,,,,,393.8342948000063,393.8501281000208,394.3351006999728,394.3378628999926,394.35186709999107,394.35186709999107,394.35186709999107,395.9245041999966,Objects\140a.jpg,mid,n,1.5583650000044145,None,,,,,,,,00042,001,2026-01-17_16h56.53.653,MST_test,2024.2.0,59.87529174074675,2026-01-17 16h57.08.521028 +0530,
103,0,104,n,8.33901870000409,None,104,0,103,395.940674100013,,,,,,,,,,,,,,,,,,,,,,,,,,,,,,,,,,,,,,,,,,,,,,,,,,395.9245959999971,395.940674100013,396.42591950000497,396.42873679997865,396.4425443999935,396.4425443999935,396.4425443999935,404.7889414000092,Objects\106a.jpg,pre,n,8.33901870000409,None,,,,,,,,00042,001,2026-01-17_16h56.53.653,MST_test,2024.2.0,59.87529174074675,2026-01-17 16h57.08.521028 +0530,
104,0,105,s,2.1061837999732234,None,105,0,104,404.805212199979,,,,,,,,,,,,,,,,,,,,,,,,,,,,,,,,,,,,,,,,,,,,,,,,,,404.78904419997707,404.805212199979,405.2904177000164,405.29644250002457,405.30706889997236,405.30706889997236,405.30706889997236,407.41476590000093,Objects\272a.jpg,post,s,2.1061837999732234,None,,,,,,,,00042,001,2026-01-17_16h56.53.653,MST_test,2024.2.0,59.87529174074675,2026-01-17 16h57.08.521028 +0530,
105,0,106,s,5.16863899998134,None,106,0,105,407.4311817000271,,,,,,,,,,,,,,,,,,,,,,,,,,,,,,,,,,,,,,,,,,,,,,,,,,407.4148609000258,407.4311817000271,407.916153499973,407.93213730002753,407.9496526999865,407.9496526999865,407.9496526999865,413.1348421999719,Objects\043b.jpg,post,s,5.16863899998134,None,,,,,,,,00042,001,2026-01-17_16h56.53.653,MST_test,2024.2.0,59.87529174074675,2026-01-17 16h57.08.521028 +0530,
106,0,107,s,7.000820700020995,None,107,0,106,413.1510964999907,,,,,,,,,,,,,,,,,,,,,,,,,,,,,,,,,,,,,,,,,,,,,,,,,,413.1349365999922,413.1510964999907,413.6366223000223,413.6390292000142,413.6527935999911,413.6527935999911,413.6527935999911,420.6613628999912,Objects\201b.jpg,mid,s,7.000820700020995,None,,,,,,,,00042,001,2026-01-17_16h56.53.653,MST_test,2024.2.0,59.87529174074675,2026-01-17 16h57.08.521028 +0530,
107,0,108,n,8.379093799972907,None,108,0,107,420.6774635000038,,,,,,,,,,,,,,,,,,,,,,,,,,,,,,,,,,,,,,,,,,,,,,,,,,420.66145930002676,420.6774635000038,421.1629827999859,421.16550609999103,421.1791888999869,421.1791888999869,421.1791888999869,429.5594391999766,Objects\168b.jpg,pre,n,8.379093799972907,None,,,,,,,,00042,001,2026-01-17_16h56.53.653,MST_test,2024.2.0,59.87529174074675,2026-01-17 16h57.08.521028 +0530,
108,0,109,s,3.128207200032193,None,109,0,108,429.57540380000137,,,,,,,,,,,,,,,,,,,,,,,,,,,,,,,,,,,,,,,,,,,,,,,,,,429.5595455999719,429.57540380000137,430.0601960999775,430.06309000001056,430.07695469999453,430.07695469999453,430.07695469999453,433.2225344000035,Objects\021a.jpg,pre,s,3.128207200032193,None,,,,,,,,00042,001,2026-01-17_16h56.53.653,MST_test,2024.2.0,59.87529174074675,2026-01-17 16h57.08.521028 +0530,
109,0,110,n,1.9796324000344612,None,110,0,109,433.2381064000074,,,,,,,,,,,,,,,,,,,,,,,,,,,,,,,,,,,,,,,,,,,,,,,,,,433.222642800014,433.2381064000074,433.7231476000161,433.73037760000443,433.73932709998917,433.73932709998917,433.73932709998917,435.73060389998136,Objects\288b.jpg,pre,n,1.9796324000344612,None,,,,,,,,00042,001,2026-01-17_16h56.53.653,MST_test,2024.2.0,59.87529174074675,2026-01-17 16h57.08.521028 +0530,
110,0,111,o,2.325612899963744,None,111,0,110,435.74672310001915,,,,,,,,,,,,,,,,,,,,,,,,,,,,,,,,,,,,,,,,,,,,,,,,,,435.73069290001877,435.74672310001915,436.2319318000227,436.23942180001177,436.24829800002044,436.24829800002044,436.24829800002044,438.590529899986,Objects\179a.jpg,mid,o,2.325612899963744,None,,,,,,,,00042,001,2026-01-17_16h56.53.653,MST_test,2024.2.0,59.87529174074675,2026-01-17 16h57.08.521028 +0530,
111,0,112,o,2.0324323000386357,None,112,0,111,438.60685540002305,,,,,,,,,,,,,,,,,,,,,,,,,,,,,,,,,,,,,,,,,,,,,,,,,,438.59062680002535,438.60685540002305,439.09195610001916,439.1003925999976,439.12530469999183,439.12530469999183,439.12530469999183,441.1667858000146,Objects\228b.jpg,mid,o,2.0324323000386357,None,,,,,,,,00042,001,2026-01-17_16h56.53.653,MST_test,2024.2.0,59.87529174074675,2026-01-17 16h57.08.521028 +0530,
112,0,113,n,1.225908000022173,None,113,0,112,441.18259959999705,,,,,,,,,,,,,,,,,,,,,,,,,,,,,,,,,,,,,,,,,,,,,,,,,,441.1668820999912,441.18259959999705,441.66762690001633,441.67555679997895,441.6838020000141,441.6838020000141,441.6838020000141,442.9225272000185,Foils\010a.jpg,none,n,1.225908000022173,None,,,,,,,,00042,001,2026-01-17_16h56.53.653,MST_test,2024.2.0,59.87529174074675,2026-01-17 16h57.08.521028 +0530,
113,0,114,s,1.3257660000235774,None,114,0,113,442.9387038000277,,,,,,,,,,,,,,,,,,,,,,,,,,,,,,,,,,,,,,,,,,,,,,,,,,442.922620599973,442.9387038000277,443.4238429000252,443.43120250001084,443.43988319998607,443.43988319998607,443.43988319998607,444.7791414000094,Objects\261a.jpg,pre,s,1.3257660000235774,None,,,,,,,,00042,001,2026-01-17_16h56.53.653,MST_test,2024.2.0,59.87529174074675,2026-01-17 16h57.08.521028 +0530,
114,0,115,s,2.4605763999861665,None,115,0,114,444.7950912999804,,,,,,,,,,,,,,,,,,,,,,,,,,,,,,,,,,,,,,,,,,,,,,,,,,444.77923589997226,444.7950912999804,445.2802677999716,445.2873815000057,445.2969752000063,445.2969752000063,445.2969752000063,447.77302929997677,Objects\199b.jpg,post,s,2.4605763999861665,None,,,,,,,,00042,001,2026-01-17_16h56.53.653,MST_test,2024.2.0,59.87529174074675,2026-01-17 16h57.08.521028 +0530,
115,0,116,n,2.153913799964357,None,116,0,115,447.7890282999724,,,,,,,,,,,,,,,,,,,,,,,,,,,,,,,,,,,,,,,,,,,,,,,,,,447.7731231999933,447.7890282999724,448.27411499997834,448.282735100016,448.3074589999742,448.3074589999742,448.3074589999742,450.46548989997245,Foils\009a.jpg,none,n,2.153913799964357,None,,,,,,,,00042,001,2026-01-17_16h56.53.653,MST_test,2024.2.0,59.87529174074675,2026-01-17 16h57.08.521028 +0530,
116,0,117,n,1.2464645999716595,None,117,0,116,450.48190710000927,,,,,,,,,,,,,,,,,,,,,,,,,,,,,,,,,,,,,,,,,,,,,,,,,,450.4655943000107,450.48190710000927,450.96703140001046,450.9698808999965,450.9835090999841,450.9835090999841,450.9835090999841,452.2386722000083,Foils\042a.jpg,none,n,1.2464645999716595,None,,,,,,,,00042,001,2026-01-17_16h56.53.653,MST_test,2024.2.0,59.87529174074675,2026-01-17 16h57.08.521028 +0530,
117,0,118,o,1.8259306999971159,None,118,0,117,452.25481429998763,,,,,,,,,,,,,,,,,,,,,,,,,,,,,,,,,,,,,,,,,,,,,,,,,,452.23876239999663,452.25481429998763,452.7396127000102,452.7428027999704,452.75637070002267,452.75637070002267,452.75637070002267,454.5965582000208,Objects\085a.jpg,pre,o,1.8259306999971159,None,,,,,,,,00042,001,2026-01-17_16h56.53.653,MST_test,2024.2.0,59.87529174074675,2026-01-17 16h57.08.521028 +0530,
118,0,119,s,1.6911694000009447,None,119,0,118,454.6127911999938,,,,,,,,,,,,,,,,,,,,,,,,,,,,,,,,,,,,,,,,,,,,,,,,,,454.59664990002057,454.6127911999938,455.09801419998985,455.10852680000244,455.1312510999851,455.1312510999851,455.1312510999851,456.83778340002755,Objects\109b.jpg,mid,s,1.6911694000009447,None,,,,,,,,00042,001,2026-01-17_16h56.53.653,MST_test,2024.2.0,59.87529174074675,2026-01-17 16h57.08.521028 +0530,
119,0,120,n,2.1065452999901026,None,120,0,119,456.854101600009,,,,,,,,,,,,,,,,,,,,,,,,,,,,,,,,,,,,,,,,,,,,,,,,,,456.8378910999745,456.854101600009,457.3391807000153,457.34194910002407,457.3556921000127,457.3556921000127,457.3556921000127,459.4639600000228,Foils\098a.jpg,none,n,2.1065452999901026,None,,,,,,,,00042,001,2026-01-17_16h56.53.653,MST_test,2024.2.0,59.87529174074675,2026-01-17 16h57.08.521028 +0530,
120,0,121,s,6.351678799954243,None,121,0,120,459.47993949998636,,,,,,,,,,,,,,,,,,,,,,,,,,,,,,,,,,,,,,,,,,,,,,,,,,459.46405319997575,459.47993949998636,459.96491530002095,459.96792630001437,459.98171149997506,459.98171149997506,459.98171149997506,466.33816320000915,Objects\034a.jpg,mid,s,6.351678799954243,None,,,,,,,,00042,001,2026-01-17_16h56.53.653,MST_test,2024.2.0,59.87529174074675,2026-01-17 16h57.08.521028 +0530,
121,0,122,s,1.7256564000272192,None,122,0,121,466.3540214999812,,,,,,,,,,,,,,,,,,,,,,,,,,,,,,,,,,,,,,,,,,,,,,,,,,466.3382617000025,466.3540214999812,466.83898180001415,466.84213539998746,466.85573409998324,466.85573409998324,466.85573409998324,468.5956242000102,Objects\162a.jpg,post,s,1.7256564000272192,None,,,,,,,,00042,001,2026-01-17_16h56.53.653,MST_test,2024.2.0,59.87529174074675,2026-01-17 16h57.08.521028 +0530,
122,0,123,s,1.4052607999765314,None,123,0,122,468.6119457000168,,,,,,,,,,,,,,,,,,,,,,,,,,,,,,,,,,,,,,,,,,,,,,,,,,468.59571570000844,468.6119457000168,469.09702200000174,469.1042794000241,469.113359400013,469.113359400013,469.113359400013,470.5197120999801,Objects\255a.jpg,post,s,1.4052607999765314,None,,,,,,,,00042,001,2026-01-17_16h56.53.653,MST_test,2024.2.0,59.87529174074675,2026-01-17 16h57.08.521028 +0530,
123,0,124,s,1.6724725000094622,None,124,0,123,470.53533719998086,,,,,,,,,,,,,,,,,,,,,,,,,,,,,,,,,,,,,,,,,,,,,,,,,,470.51980820001336,470.53533719998086,471.0202841999708,471.0367943000165,471.0538838999928,471.0538838999928,471.0538838999928,472.7270346999867,Objects\372b.jpg,post,s,1.6724725000094622,None,,,,,,,,00042,001,2026-01-17_16h56.53.653,MST_test,2024.2.0,59.87529174074675,2026-01-17 16h57.08.521028 +0530,
124,0,125,o,1.7049873000360094,None,125,0,124,472.7429424999864,,,,,,,,,,,,,,,,,,,,,,,,,,,,,,,,,,,,,,,,,,,,,,,,,,472.72712559998035,472.7429424999864,473.2281694000121,473.23764940002,473.261396899994,473.261396899994,473.261396899994,474.9679843999911,Objects\167b.jpg,post,o,1.7049873000360094,None,,,,,,,,00042,001,2026-01-17_16h56.53.653,MST_test,2024.2.0,59.87529174074675,2026-01-17 16h57.08.521028 +0530,
125,0,126,s,1.335841900028754,None,126,0,125,474.9842502999818,,,,,,,,,,,,,,,,,,,,,,,,,,,,,,,,,,,,,,,,,,,,,,,,,,474.96808129997225,474.9842502999818,475.46919099998195,475.4720545000164,475.4859617999755,475.4859617999755,475.4859617999755,476.82456330000423,Objects\126a.jpg,post,s,1.335841900028754,None,,,,,,,,00042,001,2026-01-17_16h56.53.653,MST_test,2024.2.0,59.87529174074675,2026-01-17 16h57.08.521028 +0530,
126,0,127,o,1.6310161000001244,None,127,0,126,476.84061459999066,,,,,,,,,,,,,,,,,,,,,,,,,,,,,,,,,,,,,,,,,,,,,,,,,,476.8246538999956,476.84061459999066,477.32583749998594,477.3285955999745,477.34286059997976,477.34286059997976,477.34286059997976,478.98208669997985,Objects\019a.jpg,pre,o,1.6310161000001244,None,,,,,,,,00042,001,2026-01-17_16h56.53.653,MST_test,2024.2.0,59.87529174074675,2026-01-17 16h57.08.521028 +0530,
127,0,128,o,1.9937949000159279,None,128,0,127,478.99829329998465,,,,,,,,,,,,,,,,,,,,,,,,,,,,,,,,,,,,,,,,,,,,,,,,,,478.98218089999864,478.99829329998465,479.48327139997855,479.48932920000516,479.5000238000066,479.5000238000066,479.5000238000066,481.507491700002,Objects\287a.jpg,post,o,1.9937949000159279,None,,,,,,,,00042,001,2026-01-17_16h56.53.653,MST_test,2024.2.0,59.87529174074675,2026-01-17 16h57.08.521028 +0530,
128,0,129,o,1.452802999992855,None,129,0,128,481.52380939997965,,,,,,,,,,,,,,,,,,,,,,,,,,,,,,,,,,,,,,,,,,,,,,,,,,481.5075861000223,481.52380939997965,482.0088917000103,482.0159238000051,482.025141399994,482.025141399994,482.025141399994,483.481604999979,Objects\291a.jpg,post,o,1.452802999992855,None,,,,,,,,00042,001,2026-01-17_16h56.53.653,MST_test,2024.2.0,59.87529174074675,2026-01-17 16h57.08.521028 +0530,
129,0,130,o,1.4946802000049502,None,130,0,129,483.49727360002,,,,,,,,,,,,,,,,,,,,,,,,,,,,,,,,,,,,,,,,,,,,,,,,,,483.4817018000176,483.49727360002,483.9824626999907,483.9903880999773,483.9983697999851,483.9983697999851,483.9983697999851,485.505102599971,Objects\061a.jpg,post,o,1.4946802000049502,None,,,,,,,,00042,001,2026-01-17_16h56.53.653,MST_test,2024.2.0,59.87529174074675,2026-01-17 16h57.08.521028 +0530,
130,0,131,o,1.0390362000325695,None,131,0,130,485.5211478000274,,,,,,,,,,,,,,,,,,,,,,,,,,,,,,,,,,,,,,,,,,,,,,,,,,485.5051967999898,485.5211478000274,486.00611100002425,486.013523600006,486.0226345999981,486.0226345999981,486.0226345999981,487.077512799995,Objects\226a.jpg,mid,o,1.0390362000325695,None,,,,,,,,00042,001,2026-01-17_16h56.53.653,MST_test,2024.2.0,59.87529174074675,2026-01-17 16h57.08.521028 +0530,
131,0,132,n,1.385263699979987,None,132,0,131,487.0933210999938,,,,,,,,,,,,,,,,,,,,,,,,,,,,,,,,,,,,,,,,,,,,,,,,,,487.07760790002067,487.0933210999938,487.5782807000214,487.594295900024,487.61196599999676,487.61196599999676,487.61196599999676,489.00046040001325,Objects\256b.jpg,pre,n,1.385263699979987,None,,,,,,,,00042,001,2026-01-17_16h56.53.653,MST_test,2024.2.0,59.87529174074675,2026-01-17 16h57.08.521028 +0530,
132,0,133,o,2.1510759000084363,None,133,0,132,489.01670999999624,,,,,,,,,,,,,,,,,,,,,,,,,,,,,,,,,,,,,,,,,,,,,,,,,,489.00055539997993,489.01670999999624,489.50170329998946,489.50940869998885,489.5179775999859,489.5179775999859,489.5179775999859,491.6766813999857,Objects\315b.jpg,pre,o,2.1510759000084363,None,,,,,,,,00042,001,2026-01-17_16h56.53.653,MST_test,2024.2.0,59.87529174074675,2026-01-17 16h57.08.521028 +0530,
133,0,134,s,1.0837119000498205,None,134,0,133,491.69288779998897,,,,,,,,,,,,,,,,,,,,,,,,,,,,,,,,,,,,,,,,,,,,,,,,,,491.6767768000136,491.69288779998897,492.17771020001965,492.1851564000244,492.19416910002474,492.19416910002474,492.19416910002474,493.2825812000083,Objects\152b.jpg,mid,s,1.0837119000498205,None,,,,,,,,00042,001,2026-01-17_16h56.53.653,MST_test,2024.2.0,59.87529174074675,2026-01-17 16h57.08.521028 +0530,
134,0,135,o,1.5736768000060692,None,135,0,134,493.2983497999958,,,,,,,,,,,,,,,,,,,,,,,,,,,,,,,,,,,,,,,,,,,,,,,,,,493.28268990002107,493.2983497999958,493.78356960002566,493.7928780000075,493.8168255999917,493.8168255999917,493.8168255999917,495.4061955999932,Objects\380b.jpg,pre,o,1.5736768000060692,None,,,,,,,,00042,001,2026-01-17_16h56.53.653,MST_test,2024.2.0,59.87529174074675,2026-01-17 16h57.08.521028 +0530,
135,0,136,n,0.8488630999927409,None,136,0,135,495.4224697999889,,,,,,,,,,,,,,,,,,,,,,,,,,,,,,,,,,,,,,,,,,,,,,,,,,495.406287699996,495.4224697999889,495.90757480001776,495.91061149997404,495.92433589999564,495.92433589999564,495.92433589999564,496.7776198000065,Foils\017a.jpg,none,n,0.8488630999927409,None,,,,,,,,00042,001,2026-01-17_16h56.53.653,MST_test,2024.2.0,59.87529174074675,2026-01-17 16h57.08.521028 +0530,
136,0,137,n,0.9027029999997467,None,137,0,136,496.7940659999731,,,,,,,,,,,,,,,,,,,,,,,,,,,,,,,,,,,,,,,,,,,,,,,,,,496.777723599982,496.7940659999731,497.2789121000096,497.2818172000116,497.2956553000258,497.2956553000258,497.2956553000258,498.1992531999713,Foils\018a.jpg,none,n,0.9027029999997467,None,,,,,,,,00042,001,2026-01-17_16h56.53.653,MST_test,2024.2.0,59.87529174074675,2026-01-17 16h57.08.521028 +0530,
137,0,138,n,0.8559911000193097,None,138,0,137,498.2154706000001,,,,,,,,,,,,,,,,,,,,,,,,,,,,,,,,,,,,,,,,,,,,,,,,,,498.1993524999707,498.2154706000001,498.7006763999816,498.7101325999829,498.7339141999837,498.7339141999837,498.7339141999837,499.6044163000188,Objects\156b.jpg,pre,n,0.8559911000193097,None,,,,,,,,00042,001,2026-01-17_16h56.53.653,MST_test,2024.2.0,59.87529174074675,2026-01-17 16h57.08.521028 +0530,
138,0,139,s,1.3949770999606699,None,139,0,138,499.62065769999754,,,,,,,,,,,,,,,,,,,,,,,,,,,,,,,,,,,,,,,,,,,,,,,,,,499.60450850002235,499.62065769999754,500.10547690000385,500.11503599997377,500.13905230001546,500.13905230001546,500.13905230001546,501.5444766000146,Objects\080b.jpg,post,s,1.3949770999606699,None,,,,,,,,00042,001,2026-01-17_16h56.53.653,MST_test,2024.2.0,59.87529174074675,2026-01-17 16h57.08.521028 +0530,
139,0,140,o,1.9921213000197895,None,140,0,139,501.5605058000074,,,,,,,,,,,,,,,,,,,,,,,,,,,,,,,,,,,,,,,,,,,,,,,,,,501.54457089997595,501.5605058000074,502.04573600000003,502.05271120002726,502.0620721000014,502.0620721000014,502.0620721000014,504.06978100002743,Objects\268b.jpg,pre,o,1.9921213000197895,None,,,,,,,,00042,001,2026-01-17_16h56.53.653,MST_test,2024.2.0,59.87529174074675,2026-01-17 16h57.08.521028 +0530,
140,0,141,s,3.5075932999607176,None,141,0,140,504.08614759997,,,,,,,,,,,,,,,,,,,,,,,,,,,,,,,,,,,,,,,,,,,,,,,,,,504.06987489998573,504.08614759997,504.57119129999774,504.57956420001574,504.5873945999774,504.5873945999774,504.5873945999774,508.10095980000915,Objects\206b.jpg,post,s,3.5075932999607176,None,,,,,,,,00042,001,2026-01-17_16h56.53.653,MST_test,2024.2.0,59.87529174074675,2026-01-17 16h57.08.521028 +0530,
141,0,142,n,1.0586731999646872,None,142,0,141,508.11680010001874,,,,,,,,,,,,,,,,,,,,,,,,,,,,,,,,,,,,,,,,,,,,,,,,,,508.10105090000434,508.11680010001874,508.6025381999789,508.605244699982,508.61853039998095,508.61853039998095,508.61853039998095,509.68981549999444,Foils\121a.jpg,none,n,1.0586731999646872,None,,,,,,,,00042,001,2026-01-17_16h56.53.653,MST_test,2024.2.0,59.87529174074675,2026-01-17 16h57.08.521028 +0530,
142,0,143,o,1.5897272999864072,None,143,0,142,509.70582570001716,,,,,,,,,,,,,,,,,,,,,,,,,,,,,,,,,,,,,,,,,,,,,,,,,,509.6899074999965,509.70582570001716,510.19090569997206,510.1939141000039,510.20761330000823,510.20761330000823,510.20761330000823,511.81414949998725,Objects\215a.jpg,pre,o,1.5897272999864072,None,,,,,,,,00042,001,2026-01-17_16h56.53.653,MST_test,2024.2.0,59.87529174074675,2026-01-17 16h57.08.521028 +0530,
143,0,144,n,1.7300302000367083,None,144,0,143,511.8299625000218,,,,,,,,,,,,,,,,,,,,,,,,,,,,,,,,,,,,,,,,,,,,,,,,,,511.8142476999783,511.8299625000218,512.3151725999778,512.3206600000267,512.3316635999945,512.3316635999945,512.3316635999945,514.0718957000063,Foils\f6.jpg,none,n,1.7300302000367083,None,,,,,,,,00042,001,2026-01-17_16h56.53.653,MST_test,2024.2.0,59.87529174074675,2026-01-17 16h57.08.521028 +0530,
144,0,145,o,1.8950706000323407,None,145,0,144,514.0883595999912,,,,,,,,,,,,,,,,,,,,,,,,,,,,,,,,,,,,,,,,,,,,,,,,,,514.071997400024,514.0883595999912,514.5733094000025,514.5882547000074,514.6066960999742,514.6066960999742,514.6066960999742,516.5143474999932,Objects\112b.jpg,mid,o,1.8950706000323407,None,,,,,,,,00042,001,2026-01-17_16h56.53.653,MST_test,2024.2.0,59.87529174074675,2026-01-17 16h57.08.521028 +0530,
145,0,146,s,1.6205919000203721,None,146,0,145,516.5295931000146,,,,,,,,,,,,,,,,,,,,,,,,,,,,,,,,,,,,,,,,,,,,,,,,,,516.5144517999724,516.5295931000146,517.015514699975,517.0263048000052,517.0489057999803,517.0489057999803,517.0489057999803,518.6711391999852,Objects\056b.jpg,mid,s,1.6205919000203721,None,,,,,,,,00042,001,2026-01-17_16h56.53.653,MST_test,2024.2.0,59.87529174074675,2026-01-17 16h57.08.521028 +0530,
146,0,147,n,1.2729271000134759,None,147,0,146,518.6873262000154,,,,,,,,,,,,,,,,,,,,,,,,,,,,,,,,,,,,,,,,,,,,,,,,,,518.6712380999816,518.6873262000154,519.1725654000184,519.1793630999746,519.1889380000066,519.1889380000066,519.1889380000066,520.4775370999705,Objects\371b.jpg,post,n,1.2729271000134759,None,,,,,,,,00042,001,2026-01-17_16h56.53.653,MST_test,2024.2.0,59.87529174074675,2026-01-17 16h57.08.521028 +0530,
147,0,148,n,1.8332731999689713,None,148,0,147,520.4936406000052,,,,,,,,,,,,,,,,,,,,,,,,,,,,,,,,,,,,,,,,,,,,,,,,,,520.4776342000114,520.4936406000052,520.9788705999963,520.9935442000278,521.0122796000214,521.0122796000214,521.0122796000214,522.8523525000201,Objects\189b.jpg,post,n,1.8332731999689713,None,,,,,,,,00042,001,2026-01-17_16h56.53.653,MST_test,2024.2.0,59.87529174074675,2026-01-17 16h57.08.521028 +0530,
148,0,149,s,1.5303382000420243,None,149,0,148,522.868570599996,,,,,,,,,,,,,,,,,,,,,,,,,,,,,,,,,,,,,,,,,,,,,,,,,,522.8524636999937,522.868570599996,523.3535642999923,523.3637687999872,523.3871785000083,523.3871785000083,523.3871785000083,524.9262082999921,Objects\082b.jpg,pre,s,1.5303382000420243,None,,,,,,,,00042,001,2026-01-17_16h56.53.653,MST_test,2024.2.0,59.87529174074675,2026-01-17 16h57.08.521028 +0530,
149,0,150,o,2.0420899000018835,None,150,0,149,524.9425118999789,,,,,,,,,,,,,,,,,,,,,,,,,,,,,,,,,,,,,,,,,,,,,,,,,,524.9263023000094,524.9425118999789,525.4276013000053,525.4301081000012,525.4441152000218,525.4441152000218,525.4441152000218,527.5021956000128,Objects\253a.jpg,mid,o,2.0420899000018835,None,,,,,,,,00042,001,2026-01-17_16h56.53.653,MST_test,2024.2.0,59.87529174074675,2026-01-17 16h57.08.521028 +0530,
,,,,,,,,,,,,,,,,,,,,,,,,,,,,,,,,,,,,,,,,,,,,,,,,,,,,,,,,,,,,,,,,,,,,,,,,527.5022604999831,527.5181867000065,527.5181867000065,529.5595010999823,space,2.039950999955181,None,00042,001,2026-01-17_16h56.53.653,MST_test,2024.2.0,59.87529174074675,2026-01-17 16h57.08.521028 +0530,
