Sl_no,image_path,thisN,thisTrialN,thisRepN,key_resp_5.keys,key_resp_7.keys,key_resp_7.rt,key_resp_7.duration,key_resp_5.rt,key_resp_5.duration,key_resp_9.keys,key_resp_8.keys,key_resp_8.rt,key_resp_8.duration,key_resp_9.rt,key_resp_9.duration,practice.thisRepN,practice.thisTrialN,practice.thisN,trials.thisRepN,trials.thisTrialN,trials.thisN,thisRow.t,notes,welcome_page.started,text.started,key_resp.started,welcome_page.stopped,key_resp.keys,key_resp.rt,key_resp.duration,instructions.started,ins.started,key_resp_2.started,instructions.stopped,key_resp_2.keys,key_resp_2.rt,key_resp_2.duration,objects_only_instruction.started,text_3.started,key_resp_3.started,objects_only_instruction.stopped,key_resp_3.keys,key_resp_3.rt,key_resp_3.duration,ISI.started,text_4.started,text_4.stopped,ISI.stopped,practice_block.started,image.started,key_resp_5.started,text_5.started,practice_block.stopped,practice.key_resp_5.keys,indoor_outdoor.started,text_7.started,key_resp_7.started,indoor_outdoor.stopped,practice.key_resp_7.keys,practice.key_resp_7.rt,practice.key_resp_7.duration,image.stopped,key_resp_5.stopped,text_5.stopped,practice.key_resp_5.rt,practice.key_resp_5.duration,practice_to_main.started,text_2.started,key_resp_4.started,practice_to_main.stopped,key_resp_4.keys,key_resp_4.rt,key_resp_4.duration,objects.started,image_2.started,text_9.started,key_resp_9.started,objects.stopped,category,trials.key_resp_9.keys,encoding_task.started,text_8.started,key_resp_8.started,encoding_task.stopped,trials.key_resp_8.keys,trials.key_resp_8.rt,trials.key_resp_8.duration,trials.key_resp_9.rt,trials.key_resp_9.duration,image_2.stopped,text_9.stopped,key_resp_9.stopped,end_experiment.started,text_6.started,key_resp_6.started,end_experiment.stopped,key_resp_6.keys,key_resp_6.rt,key_resp_6.duration,list_of_stimuli,encoding_task_accuracy,participant,session,date,expName,psychopyVersion,frameRate,expStart,
,,,,,,,,,,,,,,,,,,,,,,,,,0.0012996000004932284,0.003048399987164885,0.003048399987164885,7.395443699992029,space,7.38153240000247,None,,,,,,,,,,,,,,,,,,,,,,,,,,,,,,,,,,,,,,,,,,,,,,,,,,,,,,,,,,,,,,,,,,,,,,,,00049,001,2026-01-18_15h14.33.413,MST_task,2024.2.0,60.05472186675815,2026-01-18 15h14.54.790196 +0530,
,,,,,,,,,,,,,,,,,,,,,,,,,,,,,,,,7.395504799991613,7.4083298000041395,7.4083298000041395,26.72546180000063,space,19.312344800011488,None,,,,,,,,,,,,,,,,,,,,,,,,,,,,,,,,,,,,,,,,,,,,,,,,,,,,,,,,,,,,,,,,,00049,001,2026-01-18_15h14.33.413,MST_task,2024.2.0,60.05472186675815,2026-01-18 15h14.54.790196 +0530,
,,,,,,,,,,,,,,,,,,,,,,,,,,,,,,,,,,,,,,,26.72560460001114,26.74462849998963,26.74462849998963,39.409645000007,space,12.66292390000308,None,,,,,,,,,,,,,,,,,,,,,,,,,,,,,,,,,,,,,,,,,,,,,,,,,,,,,,,,,,00049,001,2026-01-18_15h14.33.413,MST_task,2024.2.0,60.05472186675815,2026-01-18 15h14.54.790196 +0530,
7,practice_images/166a.jpg,0,0,1,None,j,2.7239204999932554,None,,,,,,,,,1,0,0,,,,39.424409600003855,,,,,,,,,,,,,,,,,,,,,,,39.41867529999581,39.424409600003855,39.954786599992076,39.9079475000035,39.91763340000762,39.954786599992076,39.954786599992076,39.954786599992076,42.92399959999602,None,42.92901009999332,42.94040039999527,42.94040039999527,45.675636300002225,j,2.7239204999932554,None,,,,,,,,,,,,,,,,,,,,,,,,,,,,,,,,,,,,,,,,,00049,001,2026-01-18_15h14.33.413,MST_task,2024.2.0,60.05472186675815,2026-01-18 15h14.54.790196 +0530,
8,practice_images/178a.jpg,1,1,1,None,j,0.3774105999909807,None,,,,,,,,,1,1,1,,,,45.69105809999746,,,,,,,,,,,,,,,,,,,,,,,45.67595840001013,45.69105809999746,46.190480199991725,46.17470229999162,46.17915680000442,46.190480199991725,46.190480199991725,46.190480199991725,49.17484970000805,None,49.174947699997574,49.19065460001002,49.19065460001002,49.57591149999644,j,0.3774105999909807,None,49.19065460001002,49.19065460001002,49.19065460001002,,,,,,,,,,,,,,,,,,,,,,,,,,,,,,,,,,,,,,00049,001,2026-01-18_15h14.33.413,MST_task,2024.2.0,60.05472186675815,2026-01-18 15h14.54.790196 +0530,
4,practice_images/002b.jpg,2,2,1,None,f,2.8689037000003736,None,,,,,,,,,1,2,2,,,,49.59026759999688,,,,,,,,,,,,,,,,,,,,,,,49.57618309999816,49.59026759999688,50.09059730000445,50.07489099999657,50.08045430001221,50.09059730000445,50.09059730000445,50.09059730000445,53.07506149998517,None,53.07517649998772,53.09034860000247,53.09034860000247,55.975562800012995,f,2.8689037000003736,None,53.09034860000247,53.09034860000247,53.09034860000247,,,,,,,,,,,,,,,,,,,,,,,,,,,,,,,,,,,,,,00049,001,2026-01-18_15h14.33.413,MST_task,2024.2.0,60.05472186675815,2026-01-18 15h14.54.790196 +0530,
9,practice_images/180a.jpg,3,3,1,f,None,,,1.6536477000045124,0.11152139998739585,,,,,,,1,3,3,,,,55.990397099987604,,,,,,,,,,,,,,,,,,,,,,,55.97591999999713,55.990397099987604,56.49059229998966,56.47456110001076,56.47857639999711,56.49059229998966,56.49059229998966,56.49059229998966,59.47467150000739,f,59.47478389999014,,,59.474830599996494,None,,,59.49026170000434,59.49026170000434,59.49026170000434,1.6536477000045124,0.11152139998739585,,,,,,,,,,,,,,,,,,,,,,,,,,,,,,,,,,,,00049,001,2026-01-18_15h14.33.413,MST_task,2024.2.0,60.05472186675815,2026-01-18 15h14.54.790196 +0530,
6,practice_images/158a.jpg,4,4,1,j,None,,,1.2494132999854628,0.11891010002000257,,,,,,,1,4,4,,,,59.49026170000434,,,,,,,,,,,,,,,,,,,,,,,59.475045500003034,59.49026170000434,59.99065679998603,59.97449970000889,59.97898069999064,59.99065679998603,59.99065679998603,59.99065679998603,62.974926900002174,j,62.975067099992884,,,62.97511639998993,None,,,62.99045539999497,62.99045539999497,62.99045539999497,1.2494132999854628,0.11891010002000257,,,,,,,,,,,,,,,,,,,,,,,,,,,,,,,,,,,,00049,001,2026-01-18_15h14.33.413,MST_task,2024.2.0,60.05472186675815,2026-01-18 15h14.54.790196 +0530,
2,practice_images/031a.jpg,5,5,1,f,None,,,1.6213597000169102,0.12847510000574403,,,,,,,1,5,5,,,,62.99045539999497,,,,,,,,,,,,,,,,,,,,,,,62.97533320001094,62.99045539999497,63.49046999998973,63.47481189999962,63.48298810000415,63.49046999998973,63.49046999998973,63.49046999998973,66.47522079999908,f,66.48087239998858,,,66.48091419998673,None,,,66.49067050000303,66.49067050000303,66.49067050000303,1.6213597000169102,0.12847510000574403,,,,,,,,,,,,,,,,,,,,,,,,,,,,,,,,,,,,00049,001,2026-01-18_15h14.33.413,MST_task,2024.2.0,60.05472186675815,2026-01-18 15h14.54.790196 +0530,
3,practice_images/037a.jpg,6,6,1,j,None,,,2.6656118000100832,0.11995699998806231,,,,,,,1,6,6,,,,66.49067050000303,,,,,,,,,,,,,,,,,,,,,,,66.48107820001314,66.49067050000303,66.99062890000641,66.9746424999903,66.97834920001333,66.99062890000641,66.99062890000641,66.99062890000641,69.9750447999977,j,69.97517089999747,,,69.97521629999392,None,,,69.99060889999964,69.99060889999964,69.99060889999964,2.6656118000100832,0.11995699998806231,,,,,,,,,,,,,,,,,,,,,,,,,,,,,,,,,,,,00049,001,2026-01-18_15h14.33.413,MST_task,2024.2.0,60.05472186675815,2026-01-18 15h14.54.790196 +0530,
5,practice_images/139a.jpg,7,7,1,f,None,,,2.565170100016985,0.10377899999730289,,,,,,,1,7,7,,,,69.99060889999964,,,,,,,,,,,,,,,,,,,,,,,69.97541829998954,69.99060889999964,70.49037580000004,70.47466089998488,70.47887289998471,70.49037580000004,70.49037580000004,70.49037580000004,73.47507730001234,f,73.47520509999595,,,73.4752473999979,None,,,73.49039210000774,73.49039210000774,73.49039210000774,2.565170100016985,0.10377899999730289,,,,,,,,,,,,,,,,,,,,,,,,,,,,,,,,,,,,00049,001,2026-01-18_15h14.33.413,MST_task,2024.2.0,60.05472186675815,2026-01-18 15h14.54.790196 +0530,
10,practice_images/182a.jpg,8,8,1,f,None,,,1.8008070999931078,0.12058740001521073,,,,,,,1,8,8,,,,73.49039210000774,,,,,,,,,,,,,,,,,,,,,,,73.47543439999572,73.49039210000774,73.99067900000955,73.97490749999997,73.98011810000753,73.99067900000955,73.99067900000955,73.99067900000955,76.97466420001001,f,76.97477239998989,,,76.97481750001316,None,,,76.99034359998768,76.99034359998768,76.99034359998768,1.8008070999931078,0.12058740001521073,,,,,,,,,,,,,,,,,,,,,,,,,,,,,,,,,,,,00049,001,2026-01-18_15h14.33.413,MST_task,2024.2.0,60.05472186675815,2026-01-18 15h14.54.790196 +0530,
1,practice_images/013a.jpg,9,9,1,j,None,,,2.3167435999785084,0.13689800002612174,,,,,,,1,9,9,,,,76.99034359998768,,,,,,,,,,,,,,,,,,,,,,,76.97501699998975,76.99034359998768,77.49065279998467,77.47464669999317,77.47945889999392,77.49065279998467,77.49065279998467,77.49065279998467,80.47497109998949,j,80.47507260000566,,,80.47511329999543,None,,,80.49021039999207,80.49021039999207,80.49021039999207,2.3167435999785084,0.13689800002612174,,,,,,,,,,,,,,,,,,,,,,,,,,,,,,,,,,,,00049,001,2026-01-18_15h14.33.413,MST_task,2024.2.0,60.05472186675815,2026-01-18 15h14.54.790196 +0530,
,,,,,,,,,,,,,,,,,,,,,,,,,,,,,,,,,,,,,,,,,,,,,,,,,,,,,,,,,,,,,,,,,,,,80.47522960000788,80.49021039999207,80.49021039999207,103.05905459998758,space,22.557643999985885,None,,,,,,,,,,,,,,,,,,,,,,,,,,,,,00049,001,2026-01-18_15h14.33.413,MST_task,2024.2.0,60.05472186675815,2026-01-18 15h14.54.790196 +0530,
,Objects\383a.jpg,0,0,1,,,,,,,None,j,0.0014670999953523278,None,,,,,,1,0,0,103.07368860000861,,,,,,,,,,,,,,,,,,,,,,,103.06179949999205,103.07368860000861,103.57646119999117,103.55903780000517,,,,,,,,,,,,,,,,,,,,,,,,,,103.57253579999087,103.57646119999117,103.57646119999117,103.57646119999117,106.57399989999249,shoe,None,106.57950779999373,106.59030360000907,106.59030360000907,106.59339200000977,j,0.0014670999953523278,None,,,,,,,,,,,,,,,00049,001,2026-01-18_15h14.33.413,MST_task,2024.2.0,60.05472186675815,2026-01-18 15h14.54.790196 +0530,
,Objects\331a.jpg,1,0,2,,,,,,,j,None,,,2.23351819999516,0.14426500000990927,,,,2,0,1,106.60697419999633,,,,,,,,,,,,,,,,,,,,,,,106.59357910000836,106.60697419999633,107.134186100011,107.09152720001293,,,,,,,,,,,,,,,,,,,,,,,,,,107.13030739998794,107.134186100011,107.134186100011,107.134186100011,110.10764209998888,shoe,j,110.10783409999567,,,110.10790609999094,None,,,2.23351819999516,0.14426500000990927,,,,,,,,,,,,,00049,001,2026-01-18_15h14.33.413,MST_task,2024.2.0,60.05472186675815,2026-01-18 15h14.54.790196 +0530,
,Objects\103a.jpg,2,0,3,,,,,,,j,None,,,2.5354125000012573,0.15240619998076,,,,3,0,2,110.12359060000745,,,,,,,,,,,,,,,,,,,,,,,110.10821879998548,110.12359060000745,110.62414379999973,110.60826720000478,,,,,,,,,,,,,,,,,,,,,,,,,,110.61714369998663,110.62414379999973,110.62414379999973,110.62414379999973,113.60882749999291,shoe,j,113.60898419999285,,,113.60903250001138,None,,,2.5354125000012573,0.15240619998076,113.6239545000135,113.6239545000135,113.6239545000135,,,,,,,,,,00049,001,2026-01-18_15h14.33.413,MST_task,2024.2.0,60.05472186675815,2026-01-18 15h14.54.790196 +0530,
,Objects\243a.jpg,3,0,4,,,,,,,f,None,,,2.348877500015078,0.1507186999951955,,,,4,0,3,113.6239545000135,,,,,,,,,,,,,,,,,,,,,,,113.60934510000516,113.6239545000135,114.12411390000489,114.10823099999106,,,,,,,,,,,,,,,,,,,,,,,,,,114.11750230001053,114.12411390000489,114.12411390000489,114.12411390000489,117.10901909999666,shoe,f,117.1091987999971,,,117.10926580001251,None,,,2.348877500015078,0.1507186999951955,117.12374859998818,117.12374859998818,117.12374859998818,,,,,,,,,,00049,001,2026-01-18_15h14.33.413,MST_task,2024.2.0,60.05472186675815,2026-01-18 15h14.54.790196 +0530,
,Objects\187a.jpg,4,0,5,,,,,,,f,None,,,1.9841211000166368,0.1446618999761995,,,,5,0,4,117.12374859998818,,,,,,,,,,,,,,,,,,,,,,,117.10958789999131,117.12374859998818,117.63894129998516,117.60790460000862,,,,,,,,,,,,,,,,,,,,,,,,,,117.63611299998593,117.63894129998516,117.63894129998516,117.63894129998516,120.62384849999216,shoe,f,120.62404070000048,,,120.6241117999889,None,,,1.9841211000166368,0.1446618999761995,,,,,,,,,,,,,00049,001,2026-01-18_15h14.33.413,MST_task,2024.2.0,60.05472186675815,2026-01-18 15h14.54.790196 +0530,
,Objects\268a.jpg,5,0,6,,,,,,,f,None,,,2.2435559000005014,0.16758979999576695,,,,6,0,5,120.64032790000783,,,,,,,,,,,,,,,,,,,,,,,120.62443980001262,120.64032790000783,121.14108130001114,121.12474480000674,,,,,,,,,,,,,,,,,,,,,,,,,,121.13307139999233,121.14108130001114,121.14108130001114,121.14108130001114,124.12561899999855,shoe,f,124.125818600005,,,124.12589870000375,None,,,2.2435559000005014,0.16758979999576695,124.14032549998956,124.14032549998956,124.14032549998956,,,,,,,,,,00049,001,2026-01-18_15h14.33.413,MST_task,2024.2.0,60.05472186675815,2026-01-18 15h14.54.790196 +0530,
,Objects\064a.jpg,6,0,7,,,,,,,f,None,,,2.444994299992686,0.16762520000338554,,,,7,0,6,124.14032549998956,,,,,,,,,,,,,,,,,,,,,,,124.12622959999135,124.14032549998956,124.65905759998714,124.62444670000696,,,,,,,,,,,,,,,,,,,,,,,,,,124.65619609999703,124.65905759998714,124.65905759998714,124.65905759998714,127.63481300001149,shoe,f,127.63499299998512,,,127.63507270000991,None,,,2.444994299992686,0.16762520000338554,,,,,,,,,,,,,00049,001,2026-01-18_15h14.33.413,MST_task,2024.2.0,60.05472186675815,2026-01-18 15h14.54.790196 +0530,
,Objects\287a.jpg,7,0,8,,,,,,,None,f,1.0833599000179674,None,,,,,,8,0,7,127.63667099998565,,,,,,,,,,,,,,,,,,,,,,,127.63518109999131,127.63667099998565,128.14036119999946,128.12469890000648,,,,,,,,,,,,,,,,,,,,,,,,,,128.13282739999704,128.14036119999946,128.14036119999946,128.14036119999946,131.1254043999943,indoor,None,131.12892479999573,131.14041950000683,131.14041950000683,132.22606250000536,f,1.0833599000179674,None,,,131.14041950000683,131.14041950000683,131.14041950000683,,,,,,,,,,00049,001,2026-01-18_15h14.33.413,MST_task,2024.2.0,60.05472186675815,2026-01-18 15h14.54.790196 +0530,
,Objects\236a.jpg,8,0,9,,,,,,,None,j,0.3954261999751907,None,,,,,,9,0,8,132.2406912999868,,,,,,,,,,,,,,,,,,,,,,,132.22629799999413,132.2406912999868,132.74079780001193,132.72441990001244,,,,,,,,,,,,,,,,,,,,,,,,,,132.72928589998628,132.74079780001193,132.74079780001193,132.74079780001193,135.72530839999672,indoor,None,135.72540279998793,135.74042049999116,135.74042049999116,136.1419043999922,j,0.3954261999751907,None,,,135.74042049999116,135.74042049999116,135.74042049999116,,,,,,,,,,00049,001,2026-01-18_15h14.33.413,MST_task,2024.2.0,60.05472186675815,2026-01-18 15h14.54.790196 +0530,
,Objects\279a.jpg,9,0,10,,,,,,,None,f,0.06181270000524819,None,,,,,,10,0,9,136.15703219998977,,,,,,,,,,,,,,,,,,,,,,,136.14211200000136,136.15703219998977,136.69329409999773,136.641567499988,,,,,,,,,,,,,,,,,,,,,,,,,,136.68997000000672,136.69329409999773,136.69329409999773,136.69329409999773,139.65735279998626,indoor,None,139.65746429999126,139.67399040001328,139.67399040001328,139.74190379999345,f,0.06181270000524819,None,,,,,,,,,,,,,,,00049,001,2026-01-18_15h14.33.413,MST_task,2024.2.0,60.05472186675815,2026-01-18 15h14.54.790196 +0530,
,Objects\209a.jpg,10,0,11,,,,,,,f,None,,,1.9659929999907035,0.15137500001583248,,,,11,0,10,139.75724939999054,,,,,,,,,,,,,,,,,,,,,,,139.742250100011,139.75724939999054,140.25755410001148,140.24171440000646,,,,,,,,,,,,,,,,,,,,,,,,,,140.2494400999858,140.25755410001148,140.25755410001148,140.25755410001148,143.2418781000015,indoor,f,143.2420340999961,,,143.2420723999967,None,,,1.9659929999907035,0.15137500001583248,143.2569530000037,143.2569530000037,143.2569530000037,,,,,,,,,,00049,001,2026-01-18_15h14.33.413,MST_task,2024.2.0,60.05472186675815,2026-01-18 15h14.54.790196 +0530,
,Objects\269a.jpg,11,0,12,,,,,,,None,j,0.09933840000303462,None,,,,,,12,0,11,143.2569530000037,,,,,,,,,,,,,,,,,,,,,,,143.24224799999502,143.2569530000037,143.75754869999946,143.7413402000093,,,,,,,,,,,,,,,,,,,,,,,,,,143.74959140000283,143.75754869999946,143.75754869999946,143.75754869999946,146.7424534999882,indoor,None,146.74263839999912,146.7570216000022,146.7570216000022,146.8592617000104,j,0.09933840000303462,None,,,146.7570216000022,146.7570216000022,146.7570216000022,,,,,,,,,,00049,001,2026-01-18_15h14.33.413,MST_task,2024.2.0,60.05472186675815,2026-01-18 15h14.54.790196 +0530,
,Objects\256a.jpg,12,0,13,,,,,,,j,None,,,1.8405292000097688,0.1520373999956064,,,,13,0,12,146.87361599999713,,,,,,,,,,,,,,,,,,,,,,,146.8594838999852,146.87361599999713,147.39926869998453,147.3579533000011,,,,,,,,,,,,,,,,,,,,,,,,,,147.39643789999536,147.39926869998453,147.39926869998453,147.39926869998453,150.37416549999034,indoor,j,150.3743441000115,,,150.37441429999308,None,,,1.8405292000097688,0.1520373999956064,,,,,,,,,,,,,00049,001,2026-01-18_15h14.33.413,MST_task,2024.2.0,60.05472186675815,2026-01-18 15h14.54.790196 +0530,
,Objects\247a.jpg,13,0,14,,,,,,,f,None,,,2.1188033999933396,0.14479389999178238,,,,14,0,13,150.39047459998983,,,,,,,,,,,,,,,,,,,,,,,150.37461440000334,150.39047459998983,150.92063999999664,150.874496000004,,,,,,,,,,,,,,,,,,,,,,,,,,150.91683900001226,150.92063999999664,150.92063999999664,150.92063999999664,153.89081400001305,indoor,f,153.89094979999936,,,153.89100159998634,None,,,2.1188033999933396,0.14479389999178238,,,,,,,,,,,,,00049,001,2026-01-18_15h14.33.413,MST_task,2024.2.0,60.05472186675815,2026-01-18 15h14.54.790196 +0530,
,Objects\303a.jpg,14,0,15,,,,,,,j,None,,,1.6723306000058074,0.16918289999011904,,,,15,0,14,153.90705119998893,,,,,,,,,,,,,,,,,,,,,,,153.89123400000972,153.90705119998893,154.40725290001137,154.39140990001033,,,,,,,,,,,,,,,,,,,,,,,,,,154.40453659999184,154.40725290001137,154.40725290001137,154.40725290001137,157.39173380000284,shoe,j,157.39455679999082,,,157.3945793999883,None,,,1.6723306000058074,0.16918289999011904,157.40692599999602,157.40692599999602,157.40692599999602,,,,,,,,,,00049,001,2026-01-18_15h14.33.413,MST_task,2024.2.0,60.05472186675815,2026-01-18 15h14.54.790196 +0530,
,Objects\152a.jpg,15,0,16,,,,,,,f,None,,,2.1887065999908373,0.16740700000082143,,,,16,0,15,157.40692599999602,,,,,,,,,,,,,,,,,,,,,,,157.39467599999625,157.40692599999602,157.9076856999891,157.89144060001126,,,,,,,,,,,,,,,,,,,,,,,,,,157.89783770000213,157.9076856999891,157.9076856999891,157.9076856999891,160.8919315999956,shoe,f,160.89211310000974,,,160.8921793999907,None,,,2.1887065999908373,0.16740700000082143,160.9069995000027,160.9069995000027,160.9069995000027,,,,,,,,,,00049,001,2026-01-18_15h14.33.413,MST_task,2024.2.0,60.05472186675815,2026-01-18 15h14.54.790196 +0530,
,Objects\180a.jpg,16,0,17,,,,,,,f,None,,,2.432540700014215,0.18357980001019314,,,,17,0,16,160.9069995000027,,,,,,,,,,,,,,,,,,,,,,,160.89260120000108,160.9069995000027,161.40739479998592,161.39129749999847,,,,,,,,,,,,,,,,,,,,,,,,,,161.39701819999027,161.40739479998592,161.40739479998592,161.40739479998592,164.3924003999855,shoe,f,164.39252409999608,,,164.3925661999965,None,,,2.432540700014215,0.18357980001019314,164.40711679999367,164.40711679999367,164.40711679999367,,,,,,,,,,00049,001,2026-01-18_15h14.33.413,MST_task,2024.2.0,60.05472186675815,2026-01-18 15h14.54.790196 +0530,
,Objects\051a.jpg,17,0,18,,,,,,,None,f,0.06104190001497045,None,,,,,,18,0,17,164.40711679999367,,,,,,,,,,,,,,,,,,,,,,,164.39287549999426,164.40711679999367,164.90728300000774,164.891415399994,,,,,,,,,,,,,,,,,,,,,,,,,,164.8972219999996,164.90728300000774,164.90728300000774,164.90728300000774,167.89193330000853,shoe,None,167.8920347999956,167.9070034000033,167.9070034000033,167.97537559998455,f,0.06104190001497045,None,,,167.9070034000033,167.9070034000033,167.9070034000033,,,,,,,,,,00049,001,2026-01-18_15h14.33.413,MST_task,2024.2.0,60.05472186675815,2026-01-18 15h14.54.790196 +0530,
,Objects\210a.jpg,18,0,19,,,,,,,f,None,,,2.0611528000154067,0.1527885999821592,,,,19,0,18,167.99013739998918,,,,,,,,,,,,,,,,,,,,,,,167.97570129999076,167.99013739998918,168.49098490001052,168.47506639998755,,,,,,,,,,,,,,,,,,,,,,,,,,168.48111459999927,168.49098490001052,168.49098490001052,168.49098490001052,171.47570139999152,shoe,f,171.47588209999958,,,171.47594989999197,None,,,2.0611528000154067,0.1527885999821592,171.49034920000122,171.49034920000122,171.49034920000122,,,,,,,,,,00049,001,2026-01-18_15h14.33.413,MST_task,2024.2.0,60.05472186675815,2026-01-18 15h14.54.790196 +0530,
,Objects\076a.jpg,19,0,20,,,,,,,f,None,,,1.993719999998575,0.22357339999871328,,,,20,0,19,171.49034920000122,,,,,,,,,,,,,,,,,,,,,,,171.47630629999912,171.49034920000122,171.99065769999288,171.9748266999959,,,,,,,,,,,,,,,,,,,,,,,,,,171.98130069999024,171.99065769999288,171.99065769999288,171.99065769999288,174.9755870999943,shoe,f,174.9757954000088,,,174.97586299999966,None,,,1.993719999998575,0.22357339999871328,174.99024429998826,174.99024429998826,174.99024429998826,,,,,,,,,,00049,001,2026-01-18_15h14.33.413,MST_task,2024.2.0,60.05472186675815,2026-01-18 15h14.54.790196 +0530,
,Objects\078a.jpg,20,0,21,,,,,,,j,None,,,2.501117699983297,0.15223030000925064,,,,21,0,20,174.99024429998826,,,,,,,,,,,,,,,,,,,,,,,174.97623689999455,174.99024429998826,175.4906420999905,175.47502069998882,,,,,,,,,,,,,,,,,,,,,,,,,,175.48132709998754,175.4906420999905,175.4906420999905,175.4906420999905,178.47585700001218,shoe,j,178.47603799999342,,,178.4761381999997,None,,,2.501117699983297,0.15223030000925064,178.4906791000103,178.4906791000103,178.4906791000103,,,,,,,,,,00049,001,2026-01-18_15h14.33.413,MST_task,2024.2.0,60.05472186675815,2026-01-18 15h14.54.790196 +0530,
,Objects\131a.jpg,21,0,22,,,,,,,f,None,,,2.0098169000120834,0.18378009999287315,,,,22,0,21,178.4906791000103,,,,,,,,,,,,,,,,,,,,,,,178.4763826999988,178.4906791000103,178.99057309998898,178.9748139999865,,,,,,,,,,,,,,,,,,,,,,,,,,178.98235299999942,178.99057309998898,178.99057309998898,178.99057309998898,181.97576169998501,indoor,f,181.9806496000092,,,181.9807010999939,None,,,2.0098169000120834,0.18378009999287315,181.9904075000086,181.9904075000086,181.9904075000086,,,,,,,,,,00049,001,2026-01-18_15h14.33.413,MST_task,2024.2.0,60.05472186675815,2026-01-18 15h14.54.790196 +0530,
,Objects\204a.jpg,22,0,23,,,,,,,f,None,,,2.557500399998389,0.16831829998409376,,,,23,0,22,181.9904075000086,,,,,,,,,,,,,,,,,,,,,,,181.98092159998487,181.9904075000086,182.4905551999982,182.4748882999993,,,,,,,,,,,,,,,,,,,,,,,,,,182.48290770000312,182.4905551999982,182.4905551999982,182.4905551999982,185.47532910000882,indoor,f,185.47552380000707,,,185.47558860000572,None,,,2.557500399998389,0.16831829998409376,185.49023289998877,185.49023289998877,185.49023289998877,,,,,,,,,,00049,001,2026-01-18_15h14.33.413,MST_task,2024.2.0,60.05472186675815,2026-01-18 15h14.54.790196 +0530,
,Objects\041a.jpg,23,0,24,,,,,,,j,None,,,1.5371123000222724,0.16053899997496046,,,,24,0,23,185.49023289998877,,,,,,,,,,,,,,,,,,,,,,,185.47582260001218,185.49023289998877,185.99046450000606,185.97458680000273,,,,,,,,,,,,,,,,,,,,,,,,,,185.97975239998777,185.99046450000606,185.99046450000606,185.99046450000606,188.97521810000762,indoor,j,188.97541849999106,,,188.97548250001273,None,,,1.5371123000222724,0.16053899997496046,188.9905989000108,188.9905989000108,188.9905989000108,,,,,,,,,,00049,001,2026-01-18_15h14.33.413,MST_task,2024.2.0,60.05472186675815,2026-01-18 15h14.54.790196 +0530,
,Objects\162a.jpg,24,0,25,,,,,,,j,None,,,1.989813199994387,0.17496199999004602,,,,25,0,24,188.9905989000108,,,,,,,,,,,,,,,,,,,,,,,188.9758109000104,188.9905989000108,189.49048489998677,189.47454900000594,,,,,,,,,,,,,,,,,,,,,,,,,,189.47993979998864,189.49048489998677,189.49048489998677,189.49048489998677,192.4754055000085,indoor,j,192.47556600000826,,,192.47561049999786,None,,,1.989813199994387,0.17496199999004602,192.49040999999852,192.49040999999852,192.49040999999852,,,,,,,,,,00049,001,2026-01-18_15h14.33.413,MST_task,2024.2.0,60.05472186675815,2026-01-18 15h14.54.790196 +0530,
,Objects\109a.jpg,25,0,26,,,,,,,f,None,,,1.3942410000017844,0.17469210000126623,,,,26,0,25,192.49040999999852,,,,,,,,,,,,,,,,,,,,,,,192.47581830000854,192.49040999999852,192.99081069999374,192.9747500999947,,,,,,,,,,,,,,,,,,,,,,,,,,192.98058939998737,192.99081069999374,192.99081069999374,192.99081069999374,195.97543749999022,indoor,f,195.975611700007,,,195.9756711999944,None,,,1.3942410000017844,0.17469210000126623,195.9907724999939,195.9907724999939,195.9907724999939,,,,,,,,,,00049,001,2026-01-18_15h14.33.413,MST_task,2024.2.0,60.05472186675815,2026-01-18 15h14.54.790196 +0530,
,Objects\371a.jpg,26,0,27,,,,,,,j,None,,,1.6576441999932285,0.1686655000085011,,,,27,0,26,195.9907724999939,,,,,,,,,,,,,,,,,,,,,,,195.97595520000323,195.9907724999939,196.5174260000058,196.47466350000468,,,,,,,,,,,,,,,,,,,,,,,,,,196.51377489999868,196.5174260000058,196.5174260000058,196.5174260000058,199.4906054000021,indoor,j,199.49073150000186,,,199.4907855000056,None,,,1.6576441999932285,0.1686655000085011,,,,,,,,,,,,,00049,001,2026-01-18_15h14.33.413,MST_task,2024.2.0,60.05472186675815,2026-01-18 15h14.54.790196 +0530,
,Objects\255a.jpg,27,0,28,,,,,,,f,None,,,2.6903148000128567,0.19130830001085997,,,,28,0,27,199.50703619999695,,,,,,,,,,,,,,,,,,,,,,,199.49100879998878,199.50703619999695,200.04575489999843,199.99165099998936,,,,,,,,,,,,,,,,,,,,,,,,,,200.04303090000758,200.04575489999843,200.04575489999843,200.04575489999843,202.99094729998615,indoor,f,202.9910525000014,,,202.99110019998625,None,,,2.6903148000128567,0.19130830001085997,,,,,,,,,,,,,00049,001,2026-01-18_15h14.33.413,MST_task,2024.2.0,60.05472186675815,2026-01-18 15h14.54.790196 +0530,
,Objects\047a.jpg,28,0,29,,,,,,,f,None,,,1.8526902000012342,0.1591638999816496,,,,29,0,28,203.00727910001297,,,,,,,,,,,,,,,,,,,,,,,202.99145329999737,203.00727910001297,203.50735369999893,203.4913843999966,,,,,,,,,,,,,,,,,,,,,,,,,,203.50354569999035,203.50735369999893,203.50735369999893,203.50735369999893,206.4917184000078,shoe,f,206.49468850000994,,,206.49471389999962,None,,,1.8526902000012342,0.1591638999816496,206.5067899999849,206.5067899999849,206.5067899999849,,,,,,,,,,00049,001,2026-01-18_15h14.33.413,MST_task,2024.2.0,60.05472186675815,2026-01-18 15h14.54.790196 +0530,
,Objects\095a.jpg,29,0,30,,,,,,,f,None,,,2.170169999997597,0.16749849999905564,,,,30,0,29,206.5067899999849,,,,,,,,,,,,,,,,,,,,,,,206.4948774999939,206.5067899999849,207.04598870000336,206.9915403999912,,,,,,,,,,,,,,,,,,,,,,,,,,207.04279989999486,207.04598870000336,207.04598870000336,207.04598870000336,210.00746870000148,shoe,f,210.0076063000015,,,210.0076592999976,None,,,2.170169999997597,0.16749849999905564,,,,,,,,,,,,,00049,001,2026-01-18_15h14.33.413,MST_task,2024.2.0,60.05472186675815,2026-01-18 15h14.54.790196 +0530,
,Objects\144a.jpg,30,0,31,,,,,,,j,None,,,1.5086755999946035,0.16787860001204535,,,,31,0,30,210.02359880000586,,,,,,,,,,,,,,,,,,,,,,,210.00798319999012,210.02359880000586,210.52395329999854,210.50812929999665,,,,,,,,,,,,,,,,,,,,,,,,,,210.51650979998522,210.52395329999854,210.52395329999854,210.52395329999854,213.50879659998463,shoe,j,213.50895899999887,,,213.509009100002,None,,,1.5086755999946035,0.16787860001204535,213.52384609999717,213.52384609999717,213.52384609999717,,,,,,,,,,00049,001,2026-01-18_15h14.33.413,MST_task,2024.2.0,60.05472186675815,2026-01-18 15h14.54.790196 +0530,
,Objects\305a.jpg,31,0,32,,,,,,,j,None,,,2.0080294999934267,0.1524351999978535,,,,32,0,31,213.52384609999717,,,,,,,,,,,,,,,,,,,,,,,213.50939089999883,213.52384609999717,214.02401850000024,214.00843210000312,,,,,,,,,,,,,,,,,,,,,,,,,,214.0141544000071,214.02401850000024,214.02401850000024,214.02401850000024,217.00895930000115,shoe,j,217.0091429000022,,,217.00918799999636,None,,,2.0080294999934267,0.1524351999978535,217.0237313999969,217.0237313999969,217.0237313999969,,,,,,,,,,00049,001,2026-01-18_15h14.33.413,MST_task,2024.2.0,60.05472186675815,2026-01-18 15h14.54.790196 +0530,
,Objects\327a.jpg,32,0,33,,,,,,,j,None,,,1.8990097999922,0.18384390001301654,,,,33,0,32,217.0237313999969,,,,,,,,,,,,,,,,,,,,,,,217.00941810000222,217.0237313999969,217.52422009999282,217.50924859999213,,,,,,,,,,,,,,,,,,,,,,,,,,217.51683469998534,217.52422009999282,217.52422009999282,217.52422009999282,220.5089588999981,shoe,j,220.50914270000067,,,220.50921419999213,None,,,1.8990097999922,0.18384390001301654,220.52377040000283,220.52377040000283,220.52377040000283,,,,,,,,,,00049,001,2026-01-18_15h14.33.413,MST_task,2024.2.0,60.05472186675815,2026-01-18 15h14.54.790196 +0530,
,Objects\261a.jpg,33,0,34,,,,,,,f,None,,,1.2080182999779936,0.2072109000000637,,,,34,0,33,220.52377040000283,,,,,,,,,,,,,,,,,,,,,,,220.50940199999604,220.52377040000283,221.02443349998794,221.00833059998695,,,,,,,,,,,,,,,,,,,,,,,,,,221.0145494999888,221.02443349998794,221.02443349998794,221.02443349998794,224.00884769999539,shoe,f,224.0090334000124,,,224.00910550000845,None,,,1.2080182999779936,0.2072109000000637,224.02380659998744,224.02380659998744,224.02380659998744,,,,,,,,,,00049,001,2026-01-18_15h14.33.413,MST_task,2024.2.0,60.05472186675815,2026-01-18 15h14.54.790196 +0530,
,Objects\272a.jpg,34,0,35,,,,,,,f,None,,,1.6913566000002902,0.23284699997748248,,,,35,0,34,224.02380659998744,,,,,,,,,,,,,,,,,,,,,,,224.00937310000882,224.02380659998744,224.5241754000017,224.50841290000244,,,,,,,,,,,,,,,,,,,,,,,,,,224.51195300000836,224.5241754000017,224.5241754000017,224.5241754000017,227.50891820000834,shoe,f,227.50910210001166,,,227.50915120000718,None,,,1.6913566000002902,0.23284699997748248,227.52360059999046,227.52360059999046,227.52360059999046,,,,,,,,,,00049,001,2026-01-18_15h14.33.413,MST_task,2024.2.0,60.05472186675815,2026-01-18 15h14.54.790196 +0530,
,Objects\127a.jpg,35,0,36,,,,,,,j,None,,,1.922918900003424,0.16773190000094473,,,,36,0,35,227.52360059999046,,,,,,,,,,,,,,,,,,,,,,,227.50938309999765,227.52360059999046,228.0536839000124,228.00819729999057,,,,,,,,,,,,,,,,,,,,,,,,,,228.05029789998662,228.0536839000124,228.0536839000124,228.0536839000124,231.02420320000965,indoor,j,231.02943240001332,,,231.02949389998685,None,,,1.922918900003424,0.16773190000094473,,,,,,,,,,,,,00049,001,2026-01-18_15h14.33.413,MST_task,2024.2.0,60.05472186675815,2026-01-18 15h14.54.790196 +0530,
,Objects\043a.jpg,36,0,37,,,,,,,f,None,,,2.6594969000143465,0.19138699999894015,,,,37,0,36,231.04035100000328,,,,,,,,,,,,,,,,,,,,,,,231.02975439999136,231.04035100000328,231.5405475999869,231.52481979998993,,,,,,,,,,,,,,,,,,,,,,,,,,231.53089799999725,231.5405475999869,231.5405475999869,231.5405475999869,234.52550660000998,indoor,f,234.5257091000094,,,234.5257769000018,None,,,2.6594969000143465,0.19138699999894015,234.5403970000043,234.5403970000043,234.5403970000043,,,,,,,,,,00049,001,2026-01-18_15h14.33.413,MST_task,2024.2.0,60.05472186675815,2026-01-18 15h14.54.790196 +0530,
,Objects\382a.jpg,37,0,38,,,,,,,f,None,,,2.183460100000957,0.19952130000456236,,,,38,0,37,234.5403970000043,,,,,,,,,,,,,,,,,,,,,,,234.5260069000069,234.5403970000043,235.0409032999887,235.02483559999382,,,,,,,,,,,,,,,,,,,,,,,,,,235.03124240000034,235.0409032999887,235.0409032999887,235.0409032999887,238.02567850000923,indoor,f,238.02580929998658,,,238.0258545000106,None,,,2.183460100000957,0.19952130000456236,238.040533899999,238.040533899999,238.040533899999,,,,,,,,,,00049,001,2026-01-18_15h14.33.413,MST_task,2024.2.0,60.05472186675815,2026-01-18 15h14.54.790196 +0530,
,Objects\097a.jpg,38,0,39,,,,,,,j,None,,,1.1441092000168283,0.19161449998500757,,,,39,0,38,238.040533899999,,,,,,,,,,,,,,,,,,,,,,,238.0260728999856,238.040533899999,238.57645090000005,238.52487309998833,,,,,,,,,,,,,,,,,,,,,,,,,,238.5732679000066,238.57645090000005,238.57645090000005,238.57645090000005,241.54068450001068,indoor,j,241.5408241999976,,,241.54087709999294,None,,,1.1441092000168283,0.19161449998500757,,,,,,,,,,,,,00049,001,2026-01-18_15h14.33.413,MST_task,2024.2.0,60.05472186675815,2026-01-18 15h14.54.790196 +0530,
,Objects\195a.jpg,39,0,40,,,,,,,j,None,,,2.1019596999976784,0.1916808999958448,,,,40,0,39,241.55729980001342,,,,,,,,,,,,,,,,,,,,,,,241.5411119000055,241.55729980001342,242.05758230001084,242.041435799998,,,,,,,,,,,,,,,,,,,,,,,,,,242.04758449998917,242.05758230001084,242.05758230001084,242.05758230001084,245.04240790000767,indoor,j,245.04254950000905,,,245.04259860000457,None,,,2.1019596999976784,0.1916808999958448,245.0571479999926,245.0571479999926,245.0571479999926,,,,,,,,,,00049,001,2026-01-18_15h14.33.413,MST_task,2024.2.0,60.05472186675815,2026-01-18 15h14.54.790196 +0530,
,Objects\225a.jpg,40,0,41,,,,,,,j,None,,,1.9625126000028104,0.1685044000041671,,,,41,0,40,245.0571479999926,,,,,,,,,,,,,,,,,,,,,,,245.0428408999869,245.0571479999926,245.55746869998984,245.54146249999758,,,,,,,,,,,,,,,,,,,,,,,,,,245.54899040001328,245.55746869998984,245.55746869998984,245.55746869998984,248.5420269999886,indoor,j,248.5421853000007,,,248.54224810001324,None,,,1.9625126000028104,0.1685044000041671,248.5569642999908,248.5569642999908,248.5569642999908,,,,,,,,,,00049,001,2026-01-18_15h14.33.413,MST_task,2024.2.0,60.05472186675815,2026-01-18 15h14.54.790196 +0530,
,Objects\314a.jpg,41,0,42,,,,,,,j,None,,,2.240392499981681,0.16024610001477413,,,,42,0,41,248.5569642999908,,,,,,,,,,,,,,,,,,,,,,,248.54243219998898,248.5569642999908,249.07950240001082,249.04142090000096,,,,,,,,,,,,,,,,,,,,,,,,,,249.07568199999514,249.07950240001082,249.07950240001082,249.07950240001082,252.057710699999,indoor,j,252.0579044999904,,,252.05794920001063,None,,,2.240392499981681,0.16024610001477413,,,,,,,,,,,,,00049,001,2026-01-18_15h14.33.413,MST_task,2024.2.0,60.05472186675815,2026-01-18 15h14.54.790196 +0530,
,Objects\059a.jpg,42,0,43,,,,,,,j,None,,,1.8249760000035167,0.17578049999428913,,,,43,0,42,252.0746753999847,,,,,,,,,,,,,,,,,,,,,,,252.0581736000022,252.0746753999847,252.6066878999991,252.55826990000787,,,,,,,,,,,,,,,,,,,,,,,,,,252.6036579000065,252.6066878999991,252.6066878999991,252.6066878999991,255.57416839999496,shoe,j,255.5803401999874,,,255.58037660000264,None,,,1.8249760000035167,0.17578049999428913,,,,,,,,,,,,,00049,001,2026-01-18_15h14.33.413,MST_task,2024.2.0,60.05472186675815,2026-01-18 15h14.54.790196 +0530,
,Objects\308a.jpg,43,0,44,,,,,,,f,None,,,2.1000097999931313,0.14423269999679178,,,,44,0,43,255.59040200000163,,,,,,,,,,,,,,,,,,,,,,,255.5805895999947,255.59040200000163,256.12374509999063,256.07493010000326,,,,,,,,,,,,,,,,,,,,,,,,,,256.1205556000059,256.12374509999063,256.12374509999063,256.12374509999063,259.09082630000194,shoe,f,259.0910373000079,,,259.09110829999554,None,,,2.1000097999931313,0.14423269999679178,,,,,,,,,,,,,00049,001,2026-01-18_15h14.33.413,MST_task,2024.2.0,60.05472186675815,2026-01-18 15h14.54.790196 +0530,
,Objects\239a.jpg,44,0,45,,,,,,,f,None,,,1.3047866999986582,0.1682126999949105,,,,45,0,44,259.10696350000217,,,,,,,,,,,,,,,,,,,,,,,259.09141870000167,259.10696350000217,259.6384752999875,259.59160320000956,,,,,,,,,,,,,,,,,,,,,,,,,,259.6349913000013,259.6384752999875,259.6384752999875,259.6384752999875,262.60730319999857,shoe,f,262.6073969999852,,,262.6074312000128,None,,,1.3047866999986582,0.1682126999949105,,,,,,,,,,,,,00049,001,2026-01-18_15h14.33.413,MST_task,2024.2.0,60.05472186675815,2026-01-18 15h14.54.790196 +0530,
,Objects\218a.jpg,45,0,46,,,,,,,j,None,,,1.300008100020932,0.1598498999956064,,,,46,0,45,262.62357629998587,,,,,,,,,,,,,,,,,,,,,,,262.6075841000129,262.62357629998587,263.1240693999862,263.1081043999875,,,,,,,,,,,,,,,,,,,,,,,,,,263.117785999988,263.1240693999862,263.1240693999862,263.1240693999862,266.10905400000047,shoe,j,266.10925690000295,,,266.1092992000049,None,,,1.300008100020932,0.1598498999956064,266.1238061999902,266.1238061999902,266.1238061999902,,,,,,,,,,00049,001,2026-01-18_15h14.33.413,MST_task,2024.2.0,60.05472186675815,2026-01-18 15h14.54.790196 +0530,
,Objects\011a.jpg,46,0,47,,,,,,,f,None,,,2.767315700009931,0.16007909999461845,,,,47,0,46,266.1238061999902,,,,,,,,,,,,,,,,,,,,,,,266.10958369998843,266.1238061999902,266.62408989999676,266.6083464999974,,,,,,,,,,,,,,,,,,,,,,,,,,266.61720320000313,266.62408989999676,266.62408989999676,266.62408989999676,269.60892369999783,shoe,f,269.60910500001046,,,269.6091788999911,None,,,2.767315700009931,0.16007909999461845,269.62366640000255,269.62366640000255,269.62366640000255,,,,,,,,,,00049,001,2026-01-18_15h14.33.413,MST_task,2024.2.0,60.05472186675815,2026-01-18 15h14.54.790196 +0530,
,Objects\275a.jpg,47,0,48,,,,,,,j,None,,,2.1718853999918792,0.1594792999967467,,,,48,0,47,269.62366640000255,,,,,,,,,,,,,,,,,,,,,,,269.60945220000576,269.62366640000255,270.1241500999895,270.10818969999673,,,,,,,,,,,,,,,,,,,,,,,,,,270.11681199999293,270.1241500999895,270.1241500999895,270.1241500999895,273.10921679998864,shoe,j,273.10939140000846,,,273.1094272999908,None,,,2.1718853999918792,0.1594792999967467,273.1235378999845,273.1235378999845,273.1235378999845,,,,,,,,,,00049,001,2026-01-18_15h14.33.413,MST_task,2024.2.0,60.05472186675815,2026-01-18 15h14.54.790196 +0530,
,Objects\017a.jpg,48,0,49,,,,,,,None,j,0.15990229998715222,None,,,,,,49,0,48,273.1235378999845,,,,,,,,,,,,,,,,,,,,,,,273.1096172000107,273.1235378999845,273.624261799996,273.60812879999867,,,,,,,,,,,,,,,,,,,,,,,,,,273.6163155999966,273.624261799996,273.624261799996,273.624261799996,276.6087780999951,shoe,None,276.6089465999976,276.6240160999878,276.6240160999878,276.7920538999897,j,0.15990229998715222,None,,,276.6240160999878,276.6240160999878,276.6240160999878,,,,,,,,,,00049,001,2026-01-18_15h14.33.413,MST_task,2024.2.0,60.05472186675815,2026-01-18 15h14.54.790196 +0530,
,Objects\265a.jpg,49,0,50,,,,,,,j,None,,,1.8513901000260375,0.16096229999675415,,,,50,0,49,276.8070332999923,,,,,,,,,,,,,,,,,,,,,,,276.7923318000103,276.8070332999923,,277.2926082999911,,,,,,,,,,,,,,,,,,,,,,,,,,277.30027509998763,277.30753180000465,277.30753180000465,277.30753180000465,280.2928252000129,indoor,j,280.29642080000485,,,280.2964532999904,None,,,1.8513901000260375,0.16096229999675415,280.3073022000026,280.3073022000026,280.3073022000026,,,,,,,,,,00049,001,2026-01-18_15h14.33.413,MST_task,2024.2.0,60.05472186675815,2026-01-18 15h14.54.790196 +0530,
,Objects\316a.jpg,50,0,51,,,,,,,j,None,,,2.1683080999937374,0.18399910000152886,,,,51,0,50,280.3073022000026,,,,,,,,,,,,,,,,,,,,,,,280.29659290000563,280.3073022000026,280.8076284000126,280.7914410000085,,,,,,,,,,,,,,,,,,,,,,,,,,280.7991547000129,280.8076284000126,280.8076284000126,280.8076284000126,283.7921025000105,indoor,j,283.7922819000087,,,283.7923143999942,None,,,2.1683080999937374,0.18399910000152886,283.80722960000276,283.80722960000276,283.80722960000276,,,,,,,,,,00049,001,2026-01-18_15h14.33.413,MST_task,2024.2.0,60.05472186675815,2026-01-18 15h14.54.790196 +0530,
,Objects\350a.jpg,51,0,52,,,,,,,j,None,,,2.235951600014232,0.17558949999511242,,,,52,0,51,283.80722960000276,,,,,,,,,,,,,,,,,,,,,,,283.7924692000088,283.80722960000276,284.3075880999968,284.29138859998784,,,,,,,,,,,,,,,,,,,,,,,,,,284.2998823999951,284.3075880999968,284.3075880999968,284.3075880999968,287.2925083999871,indoor,j,287.29271899999003,,,287.2927861000062,None,,,2.235951600014232,0.17558949999511242,287.30710360000376,287.30710360000376,287.30710360000376,,,,,,,,,,00049,001,2026-01-18_15h14.33.413,MST_task,2024.2.0,60.05472186675815,2026-01-18 15h14.54.790196 +0530,
,Objects\148a.jpg,52,0,53,,,,,,,f,None,,,2.752131199988071,0.1682036000129301,,,,53,0,52,287.30710360000376,,,,,,,,,,,,,,,,,,,,,,,287.2930551999889,287.30710360000376,287.80752020000364,287.79136760000256,,,,,,,,,,,,,,,,,,,,,,,,,,287.7975412000087,287.80752020000364,287.80752020000364,287.80752020000364,290.7918672999949,indoor,f,290.7919694999873,,,290.7920047999942,None,,,2.752131199988071,0.1682036000129301,290.8073655999906,290.8073655999906,290.8073655999906,,,,,,,,,,00049,001,2026-01-18_15h14.33.413,MST_task,2024.2.0,60.05472186675815,2026-01-18 15h14.54.790196 +0530,
,Objects\116a.jpg,53,0,54,,,,,,,f,None,,,2.8446265000093263,None,,,,54,0,53,290.8073655999906,,,,,,,,,,,,,,,,,,,,,,,290.79220930000884,290.8073655999906,291.30755590001354,291.29165319999447,,,,,,,,,,,,,,,,,,,,,,,,,,291.299606399989,291.30755590001354,291.30755590001354,291.30755590001354,294.29219579999335,indoor,f,294.2922918999975,,,294.29232619999675,None,,,2.8446265000093263,None,294.30705860001035,294.30705860001035,294.30705860001035,,,,,,,,,,00049,001,2026-01-18_15h14.33.413,MST_task,2024.2.0,60.05472186675815,2026-01-18 15h14.54.790196 +0530,
,Objects\246a.jpg,54,0,55,,,,,,,f,None,,,2.1521966000145767,0.21553709998261184,,,,55,0,54,294.30705860001035,,,,,,,,,,,,,,,,,,,,,,,294.29248010000447,294.30705860001035,294.8073144000082,294.7913808999874,,,,,,,,,,,,,,,,,,,,,,,,,,294.7975642000092,294.8073144000082,294.8073144000082,294.8073144000082,297.7921898000059,indoor,f,297.79237300000386,,,297.7924393999856,None,,,2.1521966000145767,0.21553709998261184,297.8071351000108,297.8071351000108,297.8071351000108,,,,,,,,,,00049,001,2026-01-18_15h14.33.413,MST_task,2024.2.0,60.05472186675815,2026-01-18 15h14.54.790196 +0530,
,Objects\046a.jpg,55,0,56,,,,,,,f,None,,,1.9888468999997713,0.26382800002465956,,,,56,0,55,297.8071351000108,,,,,,,,,,,,,,,,,,,,,,,297.79275570000755,297.8071351000108,298.307183900004,298.29168950000894,,,,,,,,,,,,,,,,,,,,,,,,,,298.29713130000164,298.307183900004,298.307183900004,298.307183900004,301.2919830000028,indoor,f,301.29209669999545,,,301.29213580000214,None,,,1.9888468999997713,0.26382800002465956,301.30708389999927,301.30708389999927,301.30708389999927,,,,,,,,,,00049,001,2026-01-18_15h14.33.413,MST_task,2024.2.0,60.05472186675815,2026-01-18 15h14.54.790196 +0530,
,Objects\336a.jpg,56,0,57,,,,,,,f,None,,,2.0961667000083253,0.1685979000176303,,,,57,0,56,301.30708389999927,,,,,,,,,,,,,,,,,,,,,,,301.292417699995,301.30708389999927,301.8074970000016,301.7914480000036,,,,,,,,,,,,,,,,,,,,,,,,,,301.80389819998527,301.8074970000016,301.8074970000016,301.8074970000016,304.7920264999848,shoe,f,304.79642160001094,,,304.7964396000025,None,,,2.0961667000083253,0.1685979000176303,304.80699519999325,304.80699519999325,304.80699519999325,,,,,,,,,,00049,001,2026-01-18_15h14.33.413,MST_task,2024.2.0,60.05472186675815,2026-01-18 15h14.54.790196 +0530,
,Objects\150a.jpg,57,0,58,,,,,,,j,None,,,1.7802303000062238,0.1758010000048671,,,,58,0,57,304.80699519999325,,,,,,,,,,,,,,,,,,,,,,,304.796517699986,304.80699519999325,305.3078986000037,305.2915484000114,,,,,,,,,,,,,,,,,,,,,,,,,,305.3013878999918,305.3078986000037,305.3078986000037,305.3078986000037,308.2924381000048,shoe,j,308.2925921000133,,,308.2926363000006,None,,,1.7802303000062238,0.1758010000048671,308.3069611999963,308.3069611999963,308.3069611999963,,,,,,,,,,00049,001,2026-01-18_15h14.33.413,MST_task,2024.2.0,60.05472186675815,2026-01-18 15h14.54.790196 +0530,
,Objects\178a.jpg,58,0,59,,,,,,,f,None,,,2.6084280999784824,0.24721030000364408,,,,59,0,58,308.3069611999963,,,,,,,,,,,,,,,,,,,,,,,308.29284179999377,308.3069611999963,308.8076144999941,308.791656699992,,,,,,,,,,,,,,,,,,,,,,,,,,308.79876460001105,308.8076144999941,308.8076144999941,308.8076144999941,311.79227909998735,shoe,f,311.79245559999254,,,311.79252049999195,None,,,2.6084280999784824,0.24721030000364408,311.8069802999962,311.8069802999962,311.8069802999962,,,,,,,,,,00049,001,2026-01-18_15h14.33.413,MST_task,2024.2.0,60.05472186675815,2026-01-18 15h14.54.790196 +0530,
,Objects\376a.jpg,59,0,60,,,,,,,j,None,,,2.89293830000679,None,,,,60,0,59,311.8069802999962,,,,,,,,,,,,,,,,,,,,,,,311.792815599998,311.8069802999962,312.3072596999991,312.2915977000084,,,,,,,,,,,,,,,,,,,,,,,,,,312.29955220001284,312.3072596999991,312.3072596999991,312.3072596999991,315.2924059999932,shoe,j,315.29258519998984,,,315.29264959998545,None,,,2.89293830000679,None,315.3069853000052,315.3069853000052,315.3069853000052,,,,,,,,,,00049,001,2026-01-18_15h14.33.413,MST_task,2024.2.0,60.05472186675815,2026-01-18 15h14.54.790196 +0530,
,Objects\110a.jpg,60,0,61,,,,,,,f,None,,,2.7039588000043295,0.16850800000247546,,,,61,0,60,315.3069853000052,,,,,,,,,,,,,,,,,,,,,,,315.2929449999938,315.3069853000052,315.80734319999465,315.79147140000714,,,,,,,,,,,,,,,,,,,,,,,,,,315.79813949999516,315.80734319999465,315.80734319999465,315.80734319999465,318.7918223000015,shoe,f,318.7919438999961,,,318.7919809999876,None,,,2.7039588000043295,0.16850800000247546,318.807023500005,318.807023500005,318.807023500005,,,,,,,,,,00049,001,2026-01-18_15h14.33.413,MST_task,2024.2.0,60.05472186675815,2026-01-18 15h14.54.790196 +0530,
,Objects\240a.jpg,61,0,62,,,,,,,None,f,1.3475535000034142,None,,,,,,62,0,61,318.807023500005,,,,,,,,,,,,,,,,,,,,,,,318.79215110000223,318.807023500005,319.3395630999876,319.2914492000127,,,,,,,,,,,,,,,,,,,,,,,,,,319.33651590000954,319.3395630999876,319.3395630999876,319.3395630999876,322.30742190001183,shoe,None,322.30757790000644,322.3237196000118,322.3237196000118,323.6756902000052,f,1.3475535000034142,None,,,,,,,,,,,,,,,00049,001,2026-01-18_15h14.33.413,MST_task,2024.2.0,60.05472186675815,2026-01-18 15h14.54.790196 +0530,
,Objects\264a.jpg,62,0,63,,,,,,,f,None,,,2.4089558999985456,0.20859680001740344,,,,63,0,62,323.6902970999945,,,,,,,,,,,,,,,,,,,,,,,323.67595599999186,323.6902970999945,324.1906907999946,324.17474310001126,,,,,,,,,,,,,,,,,,,,,,,,,,324.1826157000032,324.1906907999946,324.1906907999946,324.1906907999946,327.17545430001337,shoe,f,327.17556460000924,,,327.1756032000121,None,,,2.4089558999985456,0.20859680001740344,327.1903758000117,327.1903758000117,327.1903758000117,,,,,,,,,,00049,001,2026-01-18_15h14.33.413,MST_task,2024.2.0,60.05472186675815,2026-01-18 15h14.54.790196 +0530,
,Objects\221a.jpg,63,0,64,,,,,,,j,None,,,2.645315200003097,0.1754707999934908,,,,64,0,63,327.1903758000117,,,,,,,,,,,,,,,,,,,,,,,327.1757798999897,327.1903758000117,327.6908996000129,327.674797899992,,,,,,,,,,,,,,,,,,,,,,,,,,327.68533919999027,327.6908996000129,327.6908996000129,327.6908996000129,330.6753864999919,indoor,j,330.68016059999354,,,330.6802131999866,None,,,2.645315200003097,0.1754707999934908,330.6902970999945,330.6902970999945,330.6902970999945,,,,,,,,,,00049,001,2026-01-18_15h14.33.413,MST_task,2024.2.0,60.05472186675815,2026-01-18 15h14.54.790196 +0530,
,Objects\353a.jpg,64,0,65,,,,,,,f,None,,,2.336596000008285,0.17684540001209825,,,,65,0,64,330.6902970999945,,,,,,,,,,,,,,,,,,,,,,,330.6803979999968,330.6902970999945,331.19072409998626,331.1750342999876,,,,,,,,,,,,,,,,,,,,,,,,,,331.18264129999443,331.19072409998626,331.19072409998626,331.19072409998626,334.1754263000039,indoor,f,334.1756017000007,,,334.17566629999783,None,,,2.336596000008285,0.17684540001209825,334.1903858000005,334.1903858000005,334.1903858000005,,,,,,,,,,00049,001,2026-01-18_15h14.33.413,MST_task,2024.2.0,60.05472186675815,2026-01-18 15h14.54.790196 +0530,
,Objects\354a.jpg,65,0,66,,,,,,,None,f,0.7901756999781355,None,,,,,,66,0,65,334.1903858000005,,,,,,,,,,,,,,,,,,,,,,,334.17596610001056,334.1903858000005,334.69048739998834,334.67481560001033,,,,,,,,,,,,,,,,,,,,,,,,,,334.68026819999795,334.69048739998834,334.69048739998834,334.69048739998834,337.67571410001256,indoor,None,337.67584169999463,337.6903532999859,337.6903532999859,338.49203759999364,f,0.7901756999781355,None,,,337.6903532999859,337.6903532999859,337.6903532999859,,,,,,,,,,00049,001,2026-01-18_15h14.33.413,MST_task,2024.2.0,60.05472186675815,2026-01-18 15h14.54.790196 +0530,
,Objects\348a.jpg,66,0,67,,,,,,,j,None,,,2.3995872999948915,0.16003329999512061,,,,67,0,66,338.5069777999888,,,,,,,,,,,,,,,,,,,,,,,338.4923420000123,338.5069777999888,339.0076849999896,338.99125799999456,,,,,,,,,,,,,,,,,,,,,,,,,,338.99713470001006,339.0076849999896,339.0076849999896,339.0076849999896,341.9931677999848,indoor,j,341.99326160000055,,,341.99329499999294,None,,,2.3995872999948915,0.16003329999512061,342.0072104999854,342.0072104999854,342.0072104999854,,,,,,,,,,00049,001,2026-01-18_15h14.33.413,MST_task,2024.2.0,60.05472186675815,2026-01-18 15h14.54.790196 +0530,
,Objects\166a.jpg,67,0,68,,,,,,,f,None,,,1.6837922999984585,0.16783620000933297,,,,68,0,67,342.0072104999854,,,,,,,,,,,,,,,,,,,,,,,341.99346779999905,342.0072104999854,342.5072602999862,342.4913163000019,,,,,,,,,,,,,,,,,,,,,,,,,,342.5004967999994,342.5072602999862,342.5072602999862,342.5072602999862,345.49196439998923,indoor,f,345.49210659999517,,,345.4921566999983,None,,,1.6837922999984585,0.16783620000933297,345.5070154000132,345.5070154000132,345.5070154000132,,,,,,,,,,00049,001,2026-01-18_15h14.33.413,MST_task,2024.2.0,60.05472186675815,2026-01-18 15h14.54.790196 +0530,
,Objects\087a.jpg,68,0,69,,,,,,,None,j,0.056304700003238395,None,,,,,,69,0,68,345.5070154000132,,,,,,,,,,,,,,,,,,,,,,,345.4924702999997,345.5070154000132,346.03324260000954,345.9914254999894,,,,,,,,,,,,,,,,,,,,,,,,,,346.02911949998816,346.03324260000954,346.03324260000954,346.03324260000954,349.0073695000028,indoor,None,349.0075174999947,349.0236100000038,349.0236100000038,349.09196620000876,j,0.056304700003238395,None,,,,,,,,,,,,,,,00049,001,2026-01-18_15h14.33.413,MST_task,2024.2.0,60.05472186675815,2026-01-18 15h14.54.790196 +0530,
,Objects\340a.jpg,69,0,70,,,,,,,j,None,,,2.4242995000095107,0.14298309999867342,,,,70,0,69,349.10698290000437,,,,,,,,,,,,,,,,,,,,,,,349.0923456999881,349.10698290000437,349.6077196999977,349.5914700999856,,,,,,,,,,,,,,,,,,,,,,,,,,349.5992175999854,349.6077196999977,349.6077196999977,349.6077196999977,352.59258709999267,indoor,j,352.5928971999965,,,352.592949199985,None,,,2.4242995000095107,0.14298309999867342,352.6070124999969,352.6070124999969,352.6070124999969,,,,,,,,,,00049,001,2026-01-18_15h14.33.413,MST_task,2024.2.0,60.05472186675815,2026-01-18 15h14.54.790196 +0530,
,Objects\121a.jpg,70,0,71,,,,,,,f,None,,,2.0516045999829657,0.21637969999574125,,,,71,0,70,352.6070124999969,,,,,,,,,,,,,,,,,,,,,,,352.593174300011,352.6070124999969,353.1078883000009,353.09142489999067,,,,,,,,,,,,,,,,,,,,,,,,,,353.1023772000044,353.1078883000009,353.1078883000009,353.1078883000009,356.0919372999924,shoe,f,356.0965775999939,,,356.0966180000105,None,,,2.0516045999829657,0.21637969999574125,356.1070013999997,356.1070013999997,356.1070013999997,,,,,,,,,,00049,001,2026-01-18_15h14.33.413,MST_task,2024.2.0,60.05472186675815,2026-01-18 15h14.54.790196 +0530,
,Objects\093a.jpg,71,0,72,,,,,,,j,None,,,1.5200332999811508,0.17657660000259057,,,,72,0,71,356.1070013999997,,,,,,,,,,,,,,,,,,,,,,,356.09678940000595,356.1070013999997,356.60721839999314,356.591462899989,,,,,,,,,,,,,,,,,,,,,,,,,,356.5976176999975,356.60721839999314,356.60721839999314,356.60721839999314,359.59175089999917,shoe,j,359.59184050001204,,,359.59187179998844,None,,,1.5200332999811508,0.17657660000259057,359.6071055000066,359.6071055000066,359.6071055000066,,,,,,,,,,00049,001,2026-01-18_15h14.33.413,MST_task,2024.2.0,60.05472186675815,2026-01-18 15h14.54.790196 +0530,
,Objects\319a.jpg,72,0,73,,,,,,,f,None,,,2.4923272999876644,0.16765730001498014,,,,73,0,72,359.6071055000066,,,,,,,,,,,,,,,,,,,,,,,359.592018299998,359.6071055000066,360.10756100001163,360.09139879999566,,,,,,,,,,,,,,,,,,,,,,,,,,360.0969830999966,360.10756100001163,360.10756100001163,360.10756100001163,363.0932007000083,shoe,f,363.0933937999944,,,363.09345290000783,None,,,2.4923272999876644,0.16765730001498014,363.10713119999855,363.10713119999855,363.10713119999855,,,,,,,,,,00049,001,2026-01-18_15h14.33.413,MST_task,2024.2.0,60.05472186675815,2026-01-18 15h14.54.790196 +0530,
,Objects\343a.jpg,73,0,74,,,,,,,f,None,,,2.2560259999881964,0.19273619999876246,,,,74,0,73,363.10713119999855,,,,,,,,,,,,,,,,,,,,,,,363.09374109999044,363.10713119999855,363.6075087999925,363.5917743000027,,,,,,,,,,,,,,,,,,,,,,,,,,363.597225000005,363.6075087999925,363.6075087999925,363.6075087999925,366.5921999999846,shoe,f,366.59238539999933,,,366.5924529999902,None,,,2.2560259999881964,0.19273619999876246,366.60714830001234,366.60714830001234,366.60714830001234,,,,,,,,,,00049,001,2026-01-18_15h14.33.413,MST_task,2024.2.0,60.05472186675815,2026-01-18 15h14.54.790196 +0530,
,Objects\115a.jpg,74,0,75,,,,,,,f,None,,,2.24239729999681,0.17538480000803247,,,,75,0,74,366.60714830001234,,,,,,,,,,,,,,,,,,,,,,,366.5927694000129,366.60714830001234,367.14205590001075,367.0914761000022,,,,,,,,,,,,,,,,,,,,,,,,,,367.1386773000122,367.14205590001075,367.14205590001075,367.14205590001075,370.1076569999859,shoe,f,370.10776429998805,,,370.1078042000008,None,,,2.24239729999681,0.17538480000803247,,,,,,,,,,,,,00049,001,2026-01-18_15h14.33.413,MST_task,2024.2.0,60.05472186675815,2026-01-18 15h14.54.790196 +0530,
,Objects\189a.jpg,75,0,76,,,,,,,None,j,1.6476084000023548,None,,,,,,76,0,75,370.1239334999991,,,,,,,,,,,,,,,,,,,,,,,370.108058599988,370.1239334999991,370.6239723000035,370.608103400009,,,,,,,,,,,,,,,,,,,,,,,,,,370.6152659000072,370.6239723000035,370.6239723000035,370.6239723000035,373.6089498999936,shoe,None,373.6091174999892,373.62390979999327,373.62390979999327,375.27572870001313,j,1.6476084000023548,None,,,373.62390979999327,373.62390979999327,373.62390979999327,,,,,,,,,,00049,001,2026-01-18_15h14.33.413,MST_task,2024.2.0,60.05472186675815,2026-01-18 15h14.54.790196 +0530,
,Objects\027a.jpg,76,0,77,,,,,,,None,f,0.5383738999953493,None,,,,,,77,0,76,375.29046389998985,,,,,,,,,,,,,,,,,,,,,,,375.2761664999998,375.29046389998985,375.79074309999123,375.7750612999953,,,,,,,,,,,,,,,,,,,,,,,,,,375.7809707999986,375.79074309999123,375.79074309999123,375.79074309999123,378.7754192999855,shoe,None,378.77556820001337,378.7901540999883,378.7901540999883,379.34221360000083,f,0.5383738999953493,None,,,378.7901540999883,378.7901540999883,378.7901540999883,,,,,,,,,,00049,001,2026-01-18_15h14.33.413,MST_task,2024.2.0,60.05472186675815,2026-01-18 15h14.54.790196 +0530,
,Objects\048a.jpg,77,0,78,,,,,,,j,None,,,2.1338951000070665,0.16864640000858344,,,,78,0,77,379.3570711000066,,,,,,,,,,,,,,,,,,,,,,,379.34260890001315,379.3570711000066,379.85712810000405,379.84167719999095,,,,,,,,,,,,,,,,,,,,,,,,,,379.85150359998806,379.85712810000405,379.85712810000405,379.85712810000405,382.8426633999916,indoor,j,382.84773430001223,,,382.84780849999515,None,,,2.1338951000070665,0.16864640000858344,382.8569768999878,382.8569768999878,382.8569768999878,,,,,,,,,,00049,001,2026-01-18_15h14.33.413,MST_task,2024.2.0,60.05472186675815,2026-01-18 15h14.54.790196 +0530,
,Objects\330a.jpg,78,0,79,,,,,,,j,None,,,2.581231399992248,0.21567099998355843,,,,79,0,78,382.8569768999878,,,,,,,,,,,,,,,,,,,,,,,382.84806099999696,382.8569768999878,383.3871192999941,383.34134990000166,,,,,,,,,,,,,,,,,,,,,,,,,,383.3826635000005,383.3871192999941,383.3871192999941,383.3871192999941,386.35741319999215,indoor,j,386.3576052999997,,,386.3576759999851,None,,,2.581231399992248,0.21567099998355843,,,,,,,,,,,,,00049,001,2026-01-18_15h14.33.413,MST_task,2024.2.0,60.05472186675815,2026-01-18 15h14.54.790196 +0530,
,Objects\031a.jpg,79,0,80,,,,,,,f,None,,,2.765364999999292,0.1514245000144001,,,,80,0,79,386.3737256999884,,,,,,,,,,,,,,,,,,,,,,,386.3579926000093,386.3737256999884,386.87430029999814,386.8580540000112,,,,,,,,,,,,,,,,,,,,,,,,,,386.8665861999907,386.87430029999814,386.87430029999814,386.87430029999814,389.8586262000026,indoor,f,389.8587636000011,,,389.8588063000061,None,,,2.765364999999292,0.1514245000144001,389.8737686999957,389.8737686999957,389.8737686999957,,,,,,,,,,00049,001,2026-01-18_15h14.33.413,MST_task,2024.2.0,60.05472186675815,2026-01-18 15h14.54.790196 +0530,
,Objects\177a.jpg,80,0,81,,,,,,,j,None,,,2.5851935999817215,0.16770250000990927,,,,81,0,80,389.8737686999957,,,,,,,,,,,,,,,,,,,,,,,389.8590957999986,389.8737686999957,390.3747349999903,390.3582536999893,,,,,,,,,,,,,,,,,,,,,,,,,,390.36684510001214,390.3747349999903,390.3747349999903,390.3747349999903,393.35887860000366,indoor,j,393.35905639998964,,,393.35912179999286,None,,,2.5851935999817215,0.16770250000990927,393.37405139999464,393.37405139999464,393.37405139999464,,,,,,,,,,00049,001,2026-01-18_15h14.33.413,MST_task,2024.2.0,60.05472186675815,2026-01-18 15h14.54.790196 +0530,
,Objects\299a.jpg,81,0,82,,,,,,,j,None,,,2.3263852999953087,0.13474610002595,,,,82,0,81,393.37405139999464,,,,,,,,,,,,,,,,,,,,,,,393.35931020000135,393.37405139999464,393.87430880000466,393.85829030000605,,,,,,,,,,,,,,,,,,,,,,,,,,393.86437349999323,393.87430880000466,393.87430880000466,393.87430880000466,396.8593359999941,indoor,j,396.85951360000763,,,396.85959370000637,None,,,2.3263852999953087,0.13474610002595,396.87375950001297,396.87375950001297,396.87375950001297,,,,,,,,,,00049,001,2026-01-18_15h14.33.413,MST_task,2024.2.0,60.05472186675815,2026-01-18 15h14.54.790196 +0530,
,Objects\200a.jpg,82,0,83,,,,,,,j,None,,,1.7494054999842774,0.12829160000546835,,,,83,0,82,396.87375950001297,,,,,,,,,,,,,,,,,,,,,,,396.85989600000903,396.87375950001297,397.3939446999866,397.35784059998696,,,,,,,,,,,,,,,,,,,,,,,,,,397.3896545000025,397.3939446999866,397.3939446999866,397.3939446999866,400.37412170000607,indoor,j,400.3742937000061,,,400.3743622000038,None,,,1.7494054999842774,0.12829160000546835,,,,,,,,,,,,,00049,001,2026-01-18_15h14.33.413,MST_task,2024.2.0,60.05472186675815,2026-01-18 15h14.54.790196 +0530,
,Objects\361a.jpg,83,0,84,,,,,,,f,None,,,1.3785447000118438,0.16736610000953078,,,,84,0,83,400.39040649999515,,,,,,,,,,,,,,,,,,,,,,,400.37467329998617,400.39040649999515,400.91752749998705,400.87492229999043,,,,,,,,,,,,,,,,,,,,,,,,,,400.914339400013,400.91752749998705,400.91752749998705,400.91752749998705,403.89057359998696,indoor,f,403.8906869000057,,,403.8907404000056,None,,,1.3785447000118438,0.16736610000953078,,,,,,,,,,,,,00049,001,2026-01-18_15h14.33.413,MST_task,2024.2.0,60.05472186675815,2026-01-18 15h14.54.790196 +0530,
,Objects\248a.jpg,84,0,85,,,,,,,None,f,0.9611640999792144,None,,,,,,85,0,84,403.90747000000556,,,,,,,,,,,,,,,,,,,,,,,403.89091129999724,403.90747000000556,404.4076451000001,404.39185280000675,,,,,,,,,,,,,,,,,,,,,,,,,,404.40181040001335,404.4076451000001,404.4076451000001,404.4076451000001,407.3918011999922,shoe,None,407.3967846999876,407.4071283999947,407.4071283999947,408.3754597000079,f,0.9611640999792144,None,,,407.4071283999947,407.4071283999947,407.4071283999947,,,,,,,,,,00049,001,2026-01-18_15h14.33.413,MST_task,2024.2.0,60.05472186675815,2026-01-18 15h14.54.790196 +0530,
,Objects\251a.jpg,85,0,86,,,,,,,None,f,0.6206391000014264,None,,,,,,86,0,85,408.39057620000676,,,,,,,,,,,,,,,,,,,,,,,408.3756822999858,408.39057620000676,408.8910901999916,408.8748082999955,,,,,,,,,,,,,,,,,,,,,,,,,,408.88265019998653,408.8910901999916,408.8910901999916,408.8910901999916,411.87511500000255,shoe,None,411.875197699992,411.89044449999346,411.89044449999346,412.5256287000084,f,0.6206391000014264,None,,,411.89044449999346,411.89044449999346,411.89044449999346,,,,,,,,,,00049,001,2026-01-18_15h14.33.413,MST_task,2024.2.0,60.05472186675815,2026-01-18 15h14.54.790196 +0530,
,Objects\006a.jpg,86,0,87,,,,,,,None,f,1.2071708000148647,None,,,,,,87,0,86,412.5404653000005,,,,,,,,,,,,,,,,,,,,,,,412.5258659000101,412.5404653000005,413.0594468000054,413.0248232999875,,,,,,,,,,,,,,,,,,,,,,,,,,413.0562724999909,413.0594468000054,413.0594468000054,413.0594468000054,416.04055780000635,shoe,None,416.0406812999863,416.05675799999153,416.05675799999153,417.2756725999934,f,1.2071708000148647,None,,,,,,,,,,,,,,,00049,001,2026-01-18_15h14.33.413,MST_task,2024.2.0,60.05472186675815,2026-01-18 15h14.54.790196 +0530,
,Objects\153a.jpg,87,0,88,,,,,,,None,f,0.4569357000000309,None,,,,,,88,0,87,417.2904481999867,,,,,,,,,,,,,,,,,,,,,,,417.275977399986,417.2904481999867,417.79067469999427,417.77504529998987,,,,,,,,,,,,,,,,,,,,,,,,,,417.78150209999876,417.79067469999427,417.79067469999427,417.79067469999427,420.776535699988,shoe,None,420.7766987000068,420.79049700000905,420.79049700000905,421.25884240001324,f,0.4569357000000309,None,,,420.79049700000905,420.79049700000905,420.79049700000905,,,,,,,,,,00049,001,2026-01-18_15h14.33.413,MST_task,2024.2.0,60.05472186675815,2026-01-18 15h14.54.790196 +0530,
,Objects\297a.jpg,88,0,89,,,,,,,None,j,0.3767826000112109,None,,,,,,89,0,88,421.27389020001283,,,,,,,,,,,,,,,,,,,,,,,421.25903789998847,421.27389020001283,421.7925493000075,421.7583835000114,,,,,,,,,,,,,,,,,,,,,,,,,,421.7897693999985,421.7925493000075,421.7925493000075,421.7925493000075,424.7742275999917,shoe,None,424.7743463999941,424.79037639999297,424.79037639999297,425.17551930001355,j,0.3767826000112109,None,,,,,,,,,,,,,,,00049,001,2026-01-18_15h14.33.413,MST_task,2024.2.0,60.05472186675815,2026-01-18 15h14.54.790196 +0530,
,Objects\102a.jpg,89,0,90,,,,,,,None,f,0.36550879999413155,None,,,,,,90,0,89,425.1903718000103,,,,,,,,,,,,,,,,,,,,,,,425.1758329999866,425.1903718000103,425.6908308999846,425.67582219999167,,,,,,,,,,,,,,,,,,,,,,,,,,425.68240869999863,425.6908308999846,425.6908308999846,425.6908308999846,428.67534409998916,shoe,None,428.67543490001117,428.69051169999875,428.69051169999875,429.0588090000092,f,0.36550879999413155,None,,,428.69051169999875,428.69051169999875,428.69051169999875,,,,,,,,,,00049,001,2026-01-18_15h14.33.413,MST_task,2024.2.0,60.05472186675815,2026-01-18 15h14.54.790196 +0530,
,Objects\050a.jpg,90,0,91,,,,,,,None,j,0.4569696999969892,None,,,,,,91,0,90,429.07373010000447,,,,,,,,,,,,,,,,,,,,,,,429.05917990001035,429.07373010000447,429.573996799998,429.55796229999396,,,,,,,,,,,,,,,,,,,,,,,,,,429.5667472000059,429.573996799998,429.573996799998,429.573996799998,432.5587225999916,shoe,None,432.55885649999254,432.5751978000044,432.5751978000044,433.042477400013,j,0.4569696999969892,None,,,432.5751978000044,432.5751978000044,432.5751978000044,,,,,,,,,,00049,001,2026-01-18_15h14.33.413,MST_task,2024.2.0,60.05472186675815,2026-01-18 15h14.54.790196 +0530,
,Objects\233a.jpg,91,0,92,,,,,,,f,None,,,2.072246700001415,0.19272520000231452,,,,92,0,91,433.0569817000069,,,,,,,,,,,,,,,,,,,,,,,433.04284599999664,433.0569817000069,433.59087330001057,433.54204239998944,,,,,,,,,,,,,,,,,,,,,,,,,,433.58767760000774,433.59087330001057,433.59087330001057,433.59087330001057,436.5574659999984,indoor,f,436.56038249999983,,,436.5604095000017,None,,,2.072246700001415,0.19272520000231452,,,,,,,,,,,,,00049,001,2026-01-18_15h14.33.413,MST_task,2024.2.0,60.05472186675815,2026-01-18 15h14.54.790196 +0530,
,Objects\321a.jpg,92,0,93,,,,,,,j,None,,,2.503466499998467,0.14383869999437593,,,,93,0,92,436.5735341999971,,,,,,,,,,,,,,,,,,,,,,,436.5605062000104,436.5735341999971,437.096435799991,437.05995709999115,,,,,,,,,,,,,,,,,,,,,,,,,,437.0927241999889,437.096435799991,437.096435799991,437.096435799991,440.0739934000012,indoor,j,440.07408120000036,,,440.0741138999874,None,,,2.503466499998467,0.14383869999437593,,,,,,,,,,,,,00049,001,2026-01-18_15h14.33.413,MST_task,2024.2.0,60.05472186675815,2026-01-18 15h14.54.790196 +0530,
,Objects\228a.jpg,93,0,94,,,,,,,None,j,0.4011188000149559,None,,,,,,94,0,93,440.090379900008,,,,,,,,,,,,,,,,,,,,,,,440.0742634999915,440.090379900008,,440.574260399997,,,,,,,,,,,,,,,,,,,,,,,,,,440.58283110000775,440.5908958000073,440.5908958000073,440.5908958000073,443.57543490000535,indoor,None,443.575588000007,443.59049689999665,443.59049689999665,444.00919370001066,j,0.4011188000149559,None,,,443.59049689999665,443.59049689999665,443.59049689999665,,,,,,,,,,00049,001,2026-01-18_15h14.33.413,MST_task,2024.2.0,60.05472186675815,2026-01-18 15h14.54.790196 +0530,
,Objects\215a.jpg,94,0,95,,,,,,,None,f,0.2996657000039704,None,,,,,,95,0,94,444.0236140000052,,,,,,,,,,,,,,,,,,,,,,,444.0095915000129,444.0236140000052,444.52401100000134,444.50820310000563,,,,,,,,,,,,,,,,,,,,,,,,,,444.51411990000634,444.52401100000134,444.52401100000134,444.52401100000134,447.5097070999909,indoor,None,447.50985919998493,447.52376079998794,447.52376079998794,447.82555989999673,f,0.2996657000039704,None,,,447.52376079998794,447.52376079998794,447.52376079998794,,,,,,,,,,00049,001,2026-01-18_15h14.33.413,MST_task,2024.2.0,60.05472186675815,2026-01-18 15h14.54.790196 +0530,
,Objects\060a.jpg,95,0,96,,,,,,,None,j,0.14728720000130124,None,,,,,,96,0,95,447.84158949999255,,,,,,,,,,,,,,,,,,,,,,,447.8259373999899,447.84158949999255,,448.34202750000986,,,,,,,,,,,,,,,,,,,,,,,,,,448.3500577000086,448.35734260000754,448.35734260000754,448.35734260000754,451.3410380000132,indoor,None,451.341191399988,451.35728130000643,451.35728130000643,451.50879110000096,j,0.14728720000130124,None,,,,,,,,,,,,,,,00049,001,2026-01-18_15h14.33.413,MST_task,2024.2.0,60.05472186675815,2026-01-18 15h14.54.790196 +0530,
,Objects\332a.jpg,96,0,97,,,,,,,j,None,,,1.4946067999990191,0.1597706000029575,,,,97,0,96,451.5246232000063,,,,,,,,,,,,,,,,,,,,,,,451.5090598000097,451.5246232000063,452.0251101999893,452.00830940000014,,,,,,,,,,,,,,,,,,,,,,,,,,452.01552270000684,452.0251101999893,452.0251101999893,452.0251101999893,455.0246586999856,indoor,j,455.02479520000634,,,455.02483810001286,None,,,1.4946067999990191,0.1597706000029575,,,,,,,,,,,,,00049,001,2026-01-18_15h14.33.413,MST_task,2024.2.0,60.05472186675815,2026-01-18 15h14.54.790196 +0530,
,Objects\307a.jpg,97,0,98,,,,,,,None,j,0.5477257999882568,None,,,,,,98,0,97,455.04036009998526,,,,,,,,,,,,,,,,,,,,,,,455.0250359000056,455.04036009998526,455.540883699985,455.52470489998814,,,,,,,,,,,,,,,,,,,,,,,,,,455.5307606999995,455.540883699985,455.540883699985,455.540883699985,458.5263042000006,indoor,None,458.5264637999935,458.5403077999945,458.5403077999945,459.0928270999866,j,0.5477257999882568,None,,,458.5403077999945,458.5403077999945,458.5403077999945,,,,,,,,,,00049,001,2026-01-18_15h14.33.413,MST_task,2024.2.0,60.05472186675815,2026-01-18 15h14.54.790196 +0530,
,Objects\094a.jpg,98,0,99,,,,,,,f,None,,,2.736506500019459,0.1517961999925319,,,,99,0,98,459.1070252000063,,,,,,,,,,,,,,,,,,,,,,,459.0931880999997,459.1070252000063,459.6070914999873,459.5913572999998,,,,,,,,,,,,,,,,,,,,,,,,,,459.60193179998896,459.6070914999873,459.6070914999873,459.6070914999873,462.5922809999902,shoe,f,462.59741970000323,,,462.59743799999706,None,,,2.736506500019459,0.1517961999925319,462.607090400008,462.607090400008,462.607090400008,,,,,,,,,,00049,001,2026-01-18_15h14.33.413,MST_task,2024.2.0,60.05472186675815,2026-01-18 15h14.54.790196 +0530,
,Objects\029a.jpg,99,0,100,,,,,,,None,f,0.40335929999127984,None,,,,,,100,0,99,462.607090400008,,,,,,,,,,,,,,,,,,,,,,,462.5975633999915,462.607090400008,463.13453139999183,463.09180759999435,,,,,,,,,,,,,,,,,,,,,,,,,,463.1309196999937,463.13453139999183,463.13453139999183,463.13453139999183,466.1074238999863,shoe,None,466.1075764000125,466.12368009999045,466.12368009999045,466.54221620000317,f,0.40335929999127984,None,,,,,,,,,,,,,,,00049,001,2026-01-18_15h14.33.413,MST_task,2024.2.0,60.05472186675815,2026-01-18 15h14.54.790196 +0530,
,Objects\213a.jpg,100,0,101,,,,,,,None,f,0.35031789998174645,None,,,,,,101,0,100,466.5572194000124,,,,,,,,,,,,,,,,,,,,,,,466.5426238999935,466.5572194000124,467.0576191,467.0426107000094,,,,,,,,,,,,,,,,,,,,,,,,,,467.0497067999968,467.0576191,467.0576191,467.0576191,470.0425141000014,shoe,None,470.04262399999425,470.0572050999908,470.0572050999908,470.40952089999337,f,0.35031789998174645,None,,,470.0572050999908,470.0572050999908,470.0572050999908,,,,,,,,,,00049,001,2026-01-18_15h14.33.413,MST_task,2024.2.0,60.05472186675815,2026-01-18 15h14.54.790196 +0530,
,Objects\241a.jpg,101,0,102,,,,,,,None,f,0.35469879998709075,None,,,,,,102,0,101,470.42361200001324,,,,,,,,,,,,,,,,,,,,,,,470.40974579998874,470.42361200001324,470.9253817999852,470.908220399986,,,,,,,,,,,,,,,,,,,,,,,,,,470.9151847999892,470.9253817999852,470.9253817999852,470.9253817999852,473.92404139999417,shoe,None,473.9241933999874,473.9403617999924,473.9403617999924,474.308992700011,f,0.35469879998709075,None,,,,,,,,,,,,,,,00049,001,2026-01-18_15h14.33.413,MST_task,2024.2.0,60.05472186675815,2026-01-18 15h14.54.790196 +0530,
,Objects\182a.jpg,102,0,103,,,,,,,None,j,None,None,,,,,,103,0,102,474.3238066000049,,,,,,,,,,,,,,,,,,,,,,,474.3092417999869,474.3238066000049,474.8643863000034,474.80819390001125,,,,,,,,,,,,,,,,,,,,,,,,,,474.86106510000536,474.8643863000034,474.8643863000034,474.8643863000034,477.8242084000085,shoe,None,477.8243460000085,477.84041539998725,477.84041539998725,478.0252855999861,j,None,None,,,,,,,,,,,,,,,00049,001,2026-01-18_15h14.33.413,MST_task,2024.2.0,60.05472186675815,2026-01-18 15h14.54.790196 +0530,
,Objects\140a.jpg,103,0,104,,,,,,,j,None,,,2.443455999979051,0.12676770001417026,,,,104,0,103,478.04027609998593,,,,,,,,,,,,,,,,,,,,,,,478.0255942000076,478.04027609998593,478.5406205999898,478.5243858000031,,,,,,,,,,,,,,,,,,,,,,,,,,478.53040560000227,478.5406205999898,478.5406205999898,478.5406205999898,481.52520959998947,shoe,j,481.52540809998754,,,481.5255937000038,None,,,2.443455999979051,0.12676770001417026,481.540334099991,481.540334099991,481.540334099991,,,,,,,,,,00049,001,2026-01-18_15h14.33.413,MST_task,2024.2.0,60.05472186675815,2026-01-18 15h14.54.790196 +0530,
,Objects\337a.jpg,104,0,105,,,,,,,None,j,0.2714628999819979,None,,,,,,105,0,104,481.540334099991,,,,,,,,,,,,,,,,,,,,,,,481.5259442999959,481.540334099991,482.0409445000114,482.02483730000677,,,,,,,,,,,,,,,,,,,,,,,,,,482.0316543999943,482.0409445000114,482.0409445000114,482.0409445000114,485.025936799997,shoe,None,485.0261070000124,485.0403332999849,485.0403332999849,485.3254457000003,j,0.2714628999819979,None,,,485.0403332999849,485.0403332999849,485.0403332999849,,,,,,,,,,00049,001,2026-01-18_15h14.33.413,MST_task,2024.2.0,60.05472186675815,2026-01-18 15h14.54.790196 +0530,
,Objects\290a.jpg,105,0,106,,,,,,,None,j,0.2949905999994371,None,,,,,,106,0,105,485.3402780999895,,,,,,,,,,,,,,,,,,,,,,,485.3257001999882,485.3402780999895,485.8407292999909,485.8245420999883,,,,,,,,,,,,,,,,,,,,,,,,,,485.83178300000145,485.8407292999909,485.8407292999909,485.8407292999909,488.8256556999986,indoor,None,488.8301812999998,488.8404284999997,488.8404284999997,489.1419336000108,j,0.2949905999994371,None,,,488.8404284999997,488.8404284999997,488.8404284999997,,,,,,,,,,00049,001,2026-01-18_15h14.33.413,MST_task,2024.2.0,60.05472186675815,2026-01-18 15h14.54.790196 +0530,
,Objects\212a.jpg,106,0,107,,,,,,,None,j,0.2707418000209145,None,,,,,,107,0,106,489.1570353000134,,,,,,,,,,,,,,,,,,,,,,,489.14223599998513,489.1570353000134,489.65749509999296,489.64124239998637,,,,,,,,,,,,,,,,,,,,,,,,,,489.6469810999988,489.65749509999296,489.65749509999296,489.65749509999296,492.64156970000477,indoor,None,492.64173430000665,492.65719709999394,492.65719709999394,492.94255750000593,j,0.2707418000209145,None,,,492.65719709999394,492.65719709999394,492.65719709999394,,,,,,,,,,00049,001,2026-01-18_15h14.33.413,MST_task,2024.2.0,60.05472186675815,2026-01-18 15h14.54.790196 +0530,
,Objects\288a.jpg,107,0,108,,,,,,,None,f,0.35857989999931306,None,,,,,,108,0,107,492.95696979999775,,,,,,,,,,,,,,,,,,,,,,,492.9428224999865,492.95696979999775,493.4576042999979,493.441745899996,,,,,,,,,,,,,,,,,,,,,,,,,,493.44795349999913,493.4576042999979,493.4576042999979,493.4576042999979,496.44201389999944,indoor,None,496.44217070000013,496.45724429999245,496.45724429999245,496.82539380001253,f,0.35857989999931306,None,,,496.45724429999245,496.45724429999245,496.45724429999245,,,,,,,,,,00049,001,2026-01-18_15h14.33.413,MST_task,2024.2.0,60.05472186675815,2026-01-18 15h14.54.790196 +0530,
,Objects\313a.jpg,108,0,109,,,,,,,None,f,0.8752922999847215,None,,,,,,109,0,108,496.8403702999931,,,,,,,,,,,,,,,,,,,,,,,496.8257322999998,496.8403702999931,497.340890099993,497.3250376000069,,,,,,,,,,,,,,,,,,,,,,,,,,497.3308032999921,497.340890099993,497.340890099993,497.340890099993,500.325256000011,indoor,None,500.32536170000094,500.34063640001114,500.34063640001114,501.22580300000845,f,0.8752922999847215,None,,,500.34063640001114,500.34063640001114,500.34063640001114,,,,,,,,,,00049,001,2026-01-18_15h14.33.413,MST_task,2024.2.0,60.05472186675815,2026-01-18 15h14.54.790196 +0530,
,Objects\171a.jpg,109,0,110,,,,,,,None,f,0.7157466000062414,None,,,,,,110,0,109,501.2403556999925,,,,,,,,,,,,,,,,,,,,,,,501.22611529999995,501.2403556999925,501.7406989999872,501.7248334999895,,,,,,,,,,,,,,,,,,,,,,,,,,501.73280080000404,501.7406989999872,501.7406989999872,501.7406989999872,504.72537430000375,indoor,None,504.72548170000664,504.7402964000066,504.7402964000066,505.4586917000124,f,0.7157466000062414,None,,,504.7402964000066,504.7402964000066,504.7402964000066,,,,,,,,,,00049,001,2026-01-18_15h14.33.413,MST_task,2024.2.0,60.05472186675815,2026-01-18 15h14.54.790196 +0530,
,Objects\113a.jpg,110,0,111,,,,,,,None,j,0.2645738999999594,None,,,,,,111,0,110,505.4757687000092,,,,,,,,,,,,,,,,,,,,,,,505.4589913999953,505.4757687000092,,505.9739607000083,,,,,,,,,,,,,,,,,,,,,,,,,,506.01445909999893,506.01778470000136,506.01778470000136,506.01778470000136,508.9740856999997,indoor,None,508.97422500001267,508.9902849000064,508.9902849000064,509.25845319998916,j,0.2645738999999594,None,,,,,,,,,,,,,,,00049,001,2026-01-18_15h14.33.413,MST_task,2024.2.0,60.05472186675815,2026-01-18 15h14.54.790196 +0530,
,Objects\066a.jpg,111,0,112,,,,,,,None,j,0.26571780000813305,None,,,,,,112,0,111,509.27400219999254,,,,,,,,,,,,,,,,,,,,,,,509.25879039999563,509.27400219999254,509.7739276000066,509.75819190000766,,,,,,,,,,,,,,,,,,,,,,,,,,509.7639482000086,509.7739276000066,509.7739276000066,509.7739276000066,512.7589300000109,indoor,None,512.759094100009,512.7737725999905,512.7737725999905,513.0421155999938,j,0.26571780000813305,None,,,512.7737725999905,512.7737725999905,512.7737725999905,,,,,,,,,,00049,001,2026-01-18_15h14.33.413,MST_task,2024.2.0,60.05472186675815,2026-01-18 15h14.54.790196 +0530,
,Objects\092a.jpg,112,0,113,,,,,,,None,f,0.4746932999987621,None,,,,,,113,0,112,513.0568879999919,,,,,,,,,,,,,,,,,,,,,,,513.0424320999882,513.0568879999919,513.5572931999923,513.5415180000127,,,,,,,,,,,,,,,,,,,,,,,,,,513.5506507999962,513.5572931999923,513.5572931999923,513.5572931999923,516.5423002000025,shoe,None,516.5470898000058,516.5569270999986,516.5569270999986,517.0421305999917,f,0.4746932999987621,None,,,516.5569270999986,516.5569270999986,516.5569270999986,,,,,,,,,,00049,001,2026-01-18_15h14.33.413,MST_task,2024.2.0,60.05472186675815,2026-01-18 15h14.54.790196 +0530,
,Objects\085a.jpg,113,0,114,,,,,,,None,j,0.27370210000663064,None,,,,,,114,0,113,517.0571899999923,,,,,,,,,,,,,,,,,,,,,,,517.0425359999936,517.0571899999923,517.5572336000041,517.5414530000126,,,,,,,,,,,,,,,,,,,,,,,,,,517.5480576000118,517.5572336000041,517.5572336000041,517.5572336000041,520.5422412999906,shoe,None,520.5424021999934,520.5570054000127,520.5570054000127,520.842324600002,j,0.27370210000663064,None,,,520.5570054000127,520.5570054000127,520.5570054000127,,,,,,,,,,00049,001,2026-01-18_15h14.33.413,MST_task,2024.2.0,60.05472186675815,2026-01-18 15h14.54.790196 +0530,
,Objects\335a.jpg,114,0,115,,,,,,,None,j,0.2502049999893643,None,,,,,,115,0,114,520.8571349999984,,,,,,,,,,,,,,,,,,,,,,,520.8428203999938,520.8571349999984,521.3575582999911,521.3411277999985,,,,,,,,,,,,,,,,,,,,,,,,,,521.3502686999855,521.3575582999911,521.3575582999911,521.3575582999911,524.3421780999925,shoe,None,524.3422875000106,524.3571457999933,524.3571457999933,524.6092138999957,j,0.2502049999893643,None,,,524.3571457999933,524.3571457999933,524.3571457999933,,,,,,,,,,00049,001,2026-01-18_15h14.33.413,MST_task,2024.2.0,60.05472186675815,2026-01-18 15h14.54.790196 +0530,
,Objects\257a.jpg,115,0,116,,,,,,,None,f,0.08381370001006871,None,,,,,,116,0,115,524.6237759999931,,,,,,,,,,,,,,,,,,,,,,,524.6096478000109,524.6237759999931,525.1240374000045,525.1081068000058,,,,,,,,,,,,,,,,,,,,,,,,,,525.1137017000001,525.1240374000045,525.1240374000045,525.1240374000045,528.1090155999991,shoe,None,528.1091954000003,528.1238193000027,528.1238193000027,528.2098104000033,f,0.08381370001006871,None,,,528.1238193000027,528.1238193000027,528.1238193000027,,,,,,,,,,00049,001,2026-01-18_15h14.33.413,MST_task,2024.2.0,60.05472186675815,2026-01-18 15h14.54.790196 +0530,
,Objects\192a.jpg,116,0,117,,,,,,,None,f,0.2992319999902975,None,,,,,,117,0,116,528.2237273000064,,,,,,,,,,,,,,,,,,,,,,,528.2100427999976,528.2237273000064,528.7241852000006,528.7081737999979,,,,,,,,,,,,,,,,,,,,,,,,,,528.7170483999944,528.7241852000006,528.7241852000006,528.7241852000006,531.7087458999886,shoe,None,531.70886839999,531.7240684000135,531.7240684000135,532.0257588000095,f,0.2992319999902975,None,,,531.7240684000135,531.7240684000135,531.7240684000135,,,,,,,,,,00049,001,2026-01-18_15h14.33.413,MST_task,2024.2.0,60.05472186675815,2026-01-18 15h14.54.790196 +0530,
,Objects\328a.jpg,117,0,118,,,,,,,None,j,0.4106690000044182,None,,,,,,118,0,117,532.0403186999902,,,,,,,,,,,,,,,,,,,,,,,532.0260845999874,532.0403186999902,532.5405790999939,532.5252363999898,,,,,,,,,,,,,,,,,,,,,,,,,,532.5313789999927,532.5405790999939,532.5405790999939,532.5405790999939,535.5255144000112,shoe,None,535.5256273999985,535.5404635999876,535.5404635999876,535.959010599996,j,0.4106690000044182,None,,,535.5404635999876,535.5404635999876,535.5404635999876,,,,,,,,,,00049,001,2026-01-18_15h14.33.413,MST_task,2024.2.0,60.05472186675815,2026-01-18 15h14.54.790196 +0530,
,Objects\242a.jpg,118,0,119,,,,,,,None,f,0.49219089999678545,None,,,,,,119,0,118,535.9739038000116,,,,,,,,,,,,,,,,,,,,,,,535.9593833000108,535.9739038000116,536.4739943000022,536.4582216000126,,,,,,,,,,,,,,,,,,,,,,,,,,536.4672397999966,536.4739943000022,536.4739943000022,536.4739943000022,539.459230700013,shoe,None,539.4594203000015,539.474740900012,539.474740900012,539.9756563999981,f,0.49219089999678545,None,,,539.474740900012,539.474740900012,539.474740900012,,,,,,,,,,00049,001,2026-01-18_15h14.33.413,MST_task,2024.2.0,60.05472186675815,2026-01-18 15h14.54.790196 +0530,
,Objects\378a.jpg,119,0,120,,,,,,,None,j,0.47707909997552633,None,,,,,,120,0,119,539.9903594999923,,,,,,,,,,,,,,,,,,,,,,,539.9759573999909,539.9903594999923,540.542637800012,540.4747543999983,,,,,,,,,,,,,,,,,,,,,,,,,,540.5393142999965,540.542637800012,540.542637800012,540.542637800012,543.4909214999934,indoor,None,543.4944534999959,543.5069089999888,543.5069089999888,543.9923288999998,j,0.47707909997552633,None,,,,,,,,,,,,,,,00049,001,2026-01-18_15h14.33.413,MST_task,2024.2.0,60.05472186675815,2026-01-18 15h14.54.790196 +0530,
,Objects\326a.jpg,120,0,121,,,,,,,None,f,0.30071380001027137,None,,,,,,121,0,120,544.00698440001,,,,,,,,,,,,,,,,,,,,,,,543.9925947999873,544.00698440001,544.5070602000051,544.4916613000096,,,,,,,,,,,,,,,,,,,,,,,,,,544.5020175999962,544.5070602000051,544.5070602000051,544.5070602000051,547.4924584999972,indoor,None,547.4926046000037,547.5070055999968,547.5070055999968,547.8089550999866,f,0.30071380001027137,None,,,547.5070055999968,547.5070055999968,547.5070055999968,,,,,,,,,,00049,001,2026-01-18_15h14.33.413,MST_task,2024.2.0,60.05472186675815,2026-01-18 15h14.54.790196 +0530,
,Objects\282a.jpg,121,0,122,,,,,,,None,j,0.2761245000001509,None,,,,,,122,0,121,547.8239242999989,,,,,,,,,,,,,,,,,,,,,,,547.8091092999966,547.8239242999989,548.3239509999985,548.3081641999888,,,,,,,,,,,,,,,,,,,,,,,,,,548.315237200004,548.3239509999985,548.3239509999985,548.3239509999985,551.3088814000075,indoor,None,551.3090404999966,551.3236629999883,551.3236629999883,551.6092119000095,j,0.2761245000001509,None,,,551.3236629999883,551.3236629999883,551.3236629999883,,,,,,,,,,00049,001,2026-01-18_15h14.33.413,MST_task,2024.2.0,60.05472186675815,2026-01-18 15h14.54.790196 +0530,
,Objects\132a.jpg,122,0,123,,,,,,,None,f,0.2912962999835145,None,,,,,,123,0,122,551.6237224999932,,,,,,,,,,,,,,,,,,,,,,,551.6094908000086,551.6237224999932,552.1240508999908,552.1083290000097,,,,,,,,,,,,,,,,,,,,,,,,,,552.1147433999868,552.1240508999908,552.1240508999908,552.1240508999908,555.1092568000022,indoor,None,555.1094165999966,555.1236168000032,555.1236168000032,555.4256407000066,f,0.2912962999835145,None,,,555.1236168000032,555.1236168000032,555.1236168000032,,,,,,,,,,00049,001,2026-01-18_15h14.33.413,MST_task,2024.2.0,60.05472186675815,2026-01-18 15h14.54.790196 +0530,
,Objects\065a.jpg,123,0,124,,,,,,,None,j,0.3228028000157792,None,,,,,,124,0,123,555.4403377000126,,,,,,,,,,,,,,,,,,,,,,,555.4259224999987,555.4403377000126,555.9406310000049,555.9248575000092,,,,,,,,,,,,,,,,,,,,,,,,,,555.9330988999864,555.9406310000049,555.9406310000049,555.9406310000049,558.9253655000066,indoor,None,558.9255263000086,558.9405252999859,558.9405252999859,559.2752174999914,j,0.3228028000157792,None,,,558.9405252999859,558.9405252999859,558.9405252999859,,,,,,,,,,00049,001,2026-01-18_15h14.33.413,MST_task,2024.2.0,60.05472186675815,2026-01-18 15h14.54.790196 +0530,
,Objects\107a.jpg,124,0,125,,,,,,,None,j,0.40953750000335276,None,,,,,,125,0,124,559.290522299998,,,,,,,,,,,,,,,,,,,,,,,559.2756077999948,559.290522299998,559.7906003000098,559.7748406000028,,,,,,,,,,,,,,,,,,,,,,,,,,559.7810541999934,559.7906003000098,559.7906003000098,559.7906003000098,562.7752127000131,indoor,None,562.7753029000014,562.7904628000106,562.7904628000106,563.2085088999884,j,0.40953750000335276,None,,,562.7904628000106,562.7904628000106,562.7904628000106,,,,,,,,,,00049,001,2026-01-18_15h14.33.413,MST_task,2024.2.0,60.05472186675815,2026-01-18 15h14.54.790196 +0530,
,Objects\143a.jpg,125,0,126,,,,,,,None,j,0.2283332000079099,None,,,,,,126,0,125,563.2239460999845,,,,,,,,,,,,,,,,,,,,,,,563.2087470999977,563.2239460999845,563.7239215000009,563.7083834999939,,,,,,,,,,,,,,,,,,,,,,,,,,563.7140583999862,563.7239215000009,563.7239215000009,563.7239215000009,566.7087922999926,indoor,None,566.7089432000066,566.7235797999892,566.7235797999892,566.9592176000006,j,0.2283332000079099,None,,,566.7235797999892,566.7235797999892,566.7235797999892,,,,,,,,,,00049,001,2026-01-18_15h14.33.413,MST_task,2024.2.0,60.05472186675815,2026-01-18 15h14.54.790196 +0530,
,Objects\315a.jpg,126,0,127,,,,,,,None,f,0.7898685000254773,None,,,,,,127,0,126,566.9740434999985,,,,,,,,,,,,,,,,,,,,,,,566.9595948999922,566.9740434999985,567.4743661000102,567.4582064000133,,,,,,,,,,,,,,,,,,,,,,,,,,567.4657986999955,567.4743661000102,567.4743661000102,567.4743661000102,570.4591645000037,shoe,None,570.4632686999976,570.4736721999943,570.4736721999943,571.2752361999883,f,0.7898685000254773,None,,,570.4736721999943,570.4736721999943,570.4736721999943,,,,,,,,,,00049,001,2026-01-18_15h14.33.413,MST_task,2024.2.0,60.05472186675815,2026-01-18 15h14.54.790196 +0530,
,Objects\161a.jpg,127,0,128,,,,,,,None,j,0.0961836000205949,None,,,,,,128,0,127,571.290490799991,,,,,,,,,,,,,,,,,,,,,,,571.2754577999876,571.290490799991,571.7908234999923,571.7747762000072,,,,,,,,,,,,,,,,,,,,,,,,,,571.7842914999928,571.7908234999923,571.7908234999923,571.7908234999923,574.7751133999845,shoe,None,574.775215600006,574.7906578000111,574.7906578000111,574.8925786000036,j,0.0961836000205949,None,,,574.7906578000111,574.7906578000111,574.7906578000111,,,,,,,,,,00049,001,2026-01-18_15h14.33.413,MST_task,2024.2.0,60.05472186675815,2026-01-18 15h14.54.790196 +0530,
,Objects\073a.jpg,128,0,129,,,,,,,None,f,0.37645479998900555,None,,,,,,129,0,128,574.9071553999966,,,,,,,,,,,,,,,,,,,,,,,574.8929492000025,574.9071553999966,575.4074864999857,575.3918024000013,,,,,,,,,,,,,,,,,,,,,,,,,,575.4000471000036,575.4074864999857,575.4074864999857,575.4074864999857,578.3920781000052,shoe,None,578.3922421000025,578.4072450000094,578.4072450000094,578.792191399989,f,0.37645479998900555,None,,,578.4072450000094,578.4072450000094,578.4072450000094,,,,,,,,,,00049,001,2026-01-18_15h14.33.413,MST_task,2024.2.0,60.05472186675815,2026-01-18 15h14.54.790196 +0530,
,Objects\369a.jpg,129,0,130,,,,,,,None,f,0.36412009998457506,None,,,,,,130,0,129,578.8071767000074,,,,,,,,,,,,,,,,,,,,,,,578.7925549999927,578.8071767000074,579.3074060000072,579.2916888000036,,,,,,,,,,,,,,,,,,,,,,,,,,579.300006800011,579.3074060000072,579.3074060000072,579.3074060000072,582.2926257000072,shoe,None,582.2927916999906,582.3071465000103,582.3071465000103,582.675508299988,f,0.36412009998457506,None,,,582.3071465000103,582.3071465000103,582.3071465000103,,,,,,,,,,00049,001,2026-01-18_15h14.33.413,MST_task,2024.2.0,60.05472186675815,2026-01-18 15h14.54.790196 +0530,
,Objects\079a.jpg,130,0,131,,,,,,,j,None,,,2.0650716999953147,0.14381110001704656,,,,131,0,130,582.6905004,,,,,,,,,,,,,,,,,,,,,,,582.6758690999995,582.6905004,583.190712999989,583.1747540000069,,,,,,,,,,,,,,,,,,,,,,,,,,583.18375560001,583.190712999989,583.190712999989,583.190712999989,586.1756177000061,shoe,j,586.1758401000116,,,586.175891299994,None,,,2.0650716999953147,0.14381110001704656,586.1904098000086,586.1904098000086,586.1904098000086,,,,,,,,,,00049,001,2026-01-18_15h14.33.413,MST_task,2024.2.0,60.05472186675815,2026-01-18 15h14.54.790196 +0530,
,Objects\250a.jpg,131,0,132,,,,,,,None,j,0.3558224000153132,None,,,,,,132,0,131,586.1904098000086,,,,,,,,,,,,,,,,,,,,,,,586.1762113999866,586.1904098000086,586.7133147999994,586.6745256999857,,,,,,,,,,,,,,,,,,,,,,,,,,586.7101377999934,586.7133147999994,586.7133147999994,586.7133147999994,589.691033799987,shoe,None,589.6911947999906,589.7071071999962,589.7071071999962,590.0756063000008,j,0.3558224000153132,None,,,,,,,,,,,,,,,00049,001,2026-01-18_15h14.33.413,MST_task,2024.2.0,60.05472186675815,2026-01-18 15h14.54.790196 +0530,
,Objects\120a.jpg,132,0,133,,,,,,,None,f,0.305050900002243,None,,,,,,133,0,132,590.0903403999982,,,,,,,,,,,,,,,,,,,,,,,590.0759456999949,590.0903403999982,590.5908541000099,590.5747373999911,,,,,,,,,,,,,,,,,,,,,,,,,,590.5846222999971,590.5908541000099,590.5908541000099,590.5908541000099,593.5753586000064,shoe,None,593.5754963000072,593.5903650000109,593.5903650000109,593.9086026999867,f,0.305050900002243,None,,,593.5903650000109,593.5903650000109,593.5903650000109,,,,,,,,,,00049,001,2026-01-18_15h14.33.413,MST_task,2024.2.0,60.05472186675815,2026-01-18 15h14.54.790196 +0530,
,Objects\302a.jpg,133,0,134,,,,,,,None,j,0.27123880002181977,None,,,,,,134,0,133,593.9237823000003,,,,,,,,,,,,,,,,,,,,,,,593.9088344000047,593.9237823000003,594.4241808000079,594.40816240001,,,,,,,,,,,,,,,,,,,,,,,,,,594.4164688999881,594.4241808000079,594.4241808000079,594.4241808000079,597.4093618000043,indoor,None,597.413900399988,597.4236289999972,597.4236289999972,597.7086730999872,j,0.27123880002181977,None,,,597.4236289999972,597.4236289999972,597.4236289999972,,,,,,,,,,00049,001,2026-01-18_15h14.33.413,MST_task,2024.2.0,60.05472186675815,2026-01-18 15h14.54.790196 +0530,
,Objects\296a.jpg,134,0,135,,,,,,,None,j,0.19043600000441074,None,,,,,,135,0,134,597.7235574999941,,,,,,,,,,,,,,,,,,,,,,,597.7089605999936,597.7235574999941,598.2519937999896,598.2081016000011,,,,,,,,,,,,,,,,,,,,,,,,,,598.2471695000131,598.2519937999896,598.2519937999896,598.2519937999896,601.2242254999874,indoor,None,601.2243431000097,601.240415999986,601.240415999986,601.4420514999947,j,0.19043600000441074,None,,,,,,,,,,,,,,,00049,001,2026-01-18_15h14.33.413,MST_task,2024.2.0,60.05472186675815,2026-01-18 15h14.54.790196 +0530,
,Objects\375a.jpg,135,0,136,,,,,,,None,f,0.2905738999834284,None,,,,,,136,0,135,601.4571545000072,,,,,,,,,,,,,,,,,,,,,,,601.4423590000079,601.4571545000072,601.9572953000024,601.941567700007,,,,,,,,,,,,,,,,,,,,,,,,,,601.9495883999916,601.9572953000024,601.9572953000024,601.9572953000024,604.9424857000122,indoor,None,604.9426579999854,604.9571766000008,604.9571766000008,605.258101799991,f,0.2905738999834284,None,,,604.9571766000008,604.9571766000008,604.9571766000008,,,,,,,,,,00049,001,2026-01-18_15h14.33.413,MST_task,2024.2.0,60.05472186675815,2026-01-18 15h14.54.790196 +0530,
,Objects\358a.jpg,136,0,137,,,,,,,None,j,0.24843760000658222,None,,,,,,137,0,136,605.2737879999913,,,,,,,,,,,,,,,,,,,,,,,605.2582107000053,605.2737879999913,605.7744429000013,605.7582306000113,,,,,,,,,,,,,,,,,,,,,,,,,,605.7669180000084,605.7744429000013,605.7744429000013,605.7744429000013,608.7586982999928,indoor,None,608.7588560000004,608.7749659999972,608.7749659999972,609.0255485000089,j,0.24843760000658222,None,,,608.7749659999972,608.7749659999972,608.7749659999972,,,,,,,,,,00049,001,2026-01-18_15h14.33.413,MST_task,2024.2.0,60.05472186675815,2026-01-18 15h14.54.790196 +0530,
,Objects\323a.jpg,137,0,138,,,,,,,None,j,0.4114195000147447,None,,,,,,138,0,137,609.040567899996,,,,,,,,,,,,,,,,,,,,,,,609.0257780000102,609.040567899996,609.5409600999847,609.5247663999908,,,,,,,,,,,,,,,,,,,,,,,,,,609.5302587999904,609.5409600999847,609.5409600999847,609.5409600999847,612.5251139999891,indoor,None,612.5252576000057,612.5404021999857,612.5404021999857,612.9588489999878,j,0.4114195000147447,None,,,612.5404021999857,612.5404021999857,612.5404021999857,,,,,,,,,,00049,001,2026-01-18_15h14.33.413,MST_task,2024.2.0,60.05472186675815,2026-01-18 15h14.54.790196 +0530,
,Objects\069a.jpg,138,0,139,,,,,,,None,j,0.32600380000076257,None,,,,,,139,0,138,612.9736646999954,,,,,,,,,,,,,,,,,,,,,,,612.959134100005,612.9736646999954,613.4743424000044,613.4585588999907,,,,,,,,,,,,,,,,,,,,,,,,,,613.4645477999875,613.4743424000044,613.4743424000044,613.4743424000044,616.4590070999984,indoor,None,616.4591684000043,616.4735796999885,616.4735796999885,616.8089252999926,j,0.32600380000076257,None,,,616.4735796999885,616.4735796999885,616.4735796999885,,,,,,,,,,00049,001,2026-01-18_15h14.33.413,MST_task,2024.2.0,60.05472186675815,2026-01-18 15h14.54.790196 +0530,
,Objects\198a.jpg,139,0,140,,,,,,,None,f,1.2760265000106301,None,,,,,,140,0,139,616.8236171999888,,,,,,,,,,,,,,,,,,,,,,,616.8092976000044,616.8236171999888,617.3238682000083,617.3085304000124,,,,,,,,,,,,,,,,,,,,,,,,,,617.3135996999918,617.3238682000083,617.3238682000083,617.3238682000083,620.3086805999919,indoor,None,620.3087888000009,620.3236349000072,620.3236349000072,621.608779400005,f,1.2760265000106301,None,,,620.3236349000072,620.3236349000072,620.3236349000072,,,,,,,,,,00049,001,2026-01-18_15h14.33.413,MST_task,2024.2.0,60.05472186675815,2026-01-18 15h14.54.790196 +0530,
,Objects\374a.jpg,140,0,141,,,,,,,None,f,0.9077416000072844,None,,,,,,141,0,140,621.6236424999952,,,,,,,,,,,,,,,,,,,,,,,621.6089969000022,621.6236424999952,622.1242336999858,622.1081484000024,,,,,,,,,,,,,,,,,,,,,,,,,,622.1159509000136,622.1242336999858,622.1242336999858,622.1242336999858,625.1089315999998,shoe,None,625.1133437000099,625.1238351000065,625.1238351000065,626.042263100011,f,0.9077416000072844,None,,,625.1238351000065,625.1238351000065,625.1238351000065,,,,,,,,,,00049,001,2026-01-18_15h14.33.413,MST_task,2024.2.0,60.05472186675815,2026-01-18 15h14.54.790196 +0530,
,Objects\154a.jpg,141,0,142,,,,,,,j,None,,,2.7461092000012286,0.11929699999745935,,,,142,0,141,626.057355099998,,,,,,,,,,,,,,,,,,,,,,,626.0427708000061,626.057355099998,626.5581412999891,626.5426173000014,,,,,,,,,,,,,,,,,,,,,,,,,,626.5476343999908,626.5581412999891,626.5581412999891,626.5581412999891,629.54221829999,shoe,j,629.5423951999983,,,629.5425036000088,None,,,2.7461092000012286,0.11929699999745935,629.5581256999867,629.5581256999867,629.5581256999867,,,,,,,,,,00049,001,2026-01-18_15h14.33.413,MST_task,2024.2.0,60.05472186675815,2026-01-18 15h14.54.790196 +0530,
,Objects\100a.jpg,142,0,143,,,,,,,None,f,0.3579211000178475,None,,,,,,143,0,142,629.5581256999867,,,,,,,,,,,,,,,,,,,,,,,629.54277249999,629.5581256999867,630.1025568000041,630.0416510000068,,,,,,,,,,,,,,,,,,,,,,,,,,630.0997139000101,630.1025568000041,630.1025568000041,630.1025568000041,633.0583027999965,shoe,None,633.0584024999989,633.0736895999871,633.0736895999871,633.4420792000019,f,0.3579211000178475,None,,,,,,,,,,,,,,,00049,001,2026-01-18_15h14.33.413,MST_task,2024.2.0,60.05472186675815,2026-01-18 15h14.54.790196 +0530,
,Objects\118a.jpg,143,0,144,,,,,,,None,f,0.2588238000171259,None,,,,,,144,0,143,633.457006200013,,,,,,,,,,,,,,,,,,,,,,,633.4423190999951,633.457006200013,633.9574553999992,633.9414277999895,,,,,,,,,,,,,,,,,,,,,,,,,,633.9482975999999,633.9574553999992,633.9574553999992,633.9574553999992,636.9421334000072,shoe,None,636.9422920999932,636.9569731999945,636.9569731999945,637.2258017999993,f,0.2588238000171259,None,,,636.9569731999945,636.9569731999945,636.9569731999945,,,,,,,,,,00049,001,2026-01-18_15h14.33.413,MST_task,2024.2.0,60.05472186675815,2026-01-18 15h14.54.790196 +0530,
,Objects\033a.jpg,144,0,145,,,,,,,None,j,0.5863428000011481,None,,,,,,145,0,144,637.240612499998,,,,,,,,,,,,,,,,,,,,,,,637.2260344999959,637.240612499998,637.7407036999939,637.7248161000025,,,,,,,,,,,,,,,,,,,,,,,,,,637.7335118000046,637.7407036999939,637.7407036999939,637.7407036999939,640.7256131999893,shoe,None,640.7257422000112,640.7402867999917,640.7402867999917,641.3425031999941,j,0.5863428000011481,None,,,640.7402867999917,640.7402867999917,640.7402867999917,,,,,,,,,,00049,001,2026-01-18_15h14.33.413,MST_task,2024.2.0,60.05472186675815,2026-01-18 15h14.54.790196 +0530,
,Objects\203a.jpg,145,0,146,,,,,,,None,j,0.2941949999949429,None,,,,,,146,0,145,641.3571413999889,,,,,,,,,,,,,,,,,,,,,,,641.3427620999864,641.3571413999889,641.8805896000122,641.8416245999979,,,,,,,,,,,,,,,,,,,,,,,,,,641.8775114000018,641.8805896000122,641.8805896000122,641.8805896000122,644.8583562999847,shoe,None,644.8584766999993,644.8738909999956,644.8738909999956,645.1758983999898,j,0.2941949999949429,None,,,,,,,,,,,,,,,00049,001,2026-01-18_15h14.33.413,MST_task,2024.2.0,60.05472186675815,2026-01-18 15h14.54.790196 +0530,
,Objects\169a.jpg,146,0,147,,,,,,,None,j,0.3002511000086088,None,,,,,,147,0,146,645.1903254000063,,,,,,,,,,,,,,,,,,,,,,,645.176180599985,645.1903254000063,645.7228579999937,645.6747010000108,,,,,,,,,,,,,,,,,,,,,,,,,,645.7194637999928,645.7228579999937,645.7228579999937,645.7228579999937,648.6907385000086,shoe,None,648.6908888999897,648.7070263999922,648.7070263999922,649.0095048999938,j,0.3002511000086088,None,,,,,,,,,,,,,,,00049,001,2026-01-18_15h14.33.413,MST_task,2024.2.0,60.05472186675815,2026-01-18 15h14.54.790196 +0530,
,Objects\357a.jpg,147,0,148,,,,,,,None,j,0.2758227000012994,None,,,,,,148,0,147,649.0237624000001,,,,,,,,,,,,,,,,,,,,,,,649.009750199999,649.0237624000001,649.5240789999953,649.5091559999855,,,,,,,,,,,,,,,,,,,,,,,,,,649.5163007999945,649.5240789999953,649.5240789999953,649.5240789999953,652.5090010999993,indoor,None,652.5122499999998,652.5237331000098,652.5237331000098,652.8084872000036,j,0.2758227000012994,None,,,652.5237331000098,652.5237331000098,652.5237331000098,,,,,,,,,,00049,001,2026-01-18_15h14.33.413,MST_task,2024.2.0,60.05472186675815,2026-01-18 15h14.54.790196 +0530,
,Objects\049a.jpg,148,0,149,,,,,,,None,j,0.35573609999846667,None,,,,,,149,0,148,652.8238336000068,,,,,,,,,,,,,,,,,,,,,,,652.808861700003,652.8238336000068,653.3241341999965,653.3081111999927,,,,,,,,,,,,,,,,,,,,,,,,,,653.3138719999988,653.3241341999965,653.3241341999965,653.3241341999965,656.3086262999859,indoor,None,656.308775100013,656.3238511999953,656.3238511999953,656.6920794000034,j,0.35573609999846667,None,,,656.3238511999953,656.3238511999953,656.3238511999953,,,,,,,,,,00049,001,2026-01-18_15h14.33.413,MST_task,2024.2.0,60.05472186675815,2026-01-18 15h14.54.790196 +0530,
,Objects\030a.jpg,149,0,150,,,,,,,None,f,0.3927452999923844,None,,,,,,150,0,149,656.7068669,,,,,,,,,,,,,,,,,,,,,,,656.6923428000009,656.7068669,657.2075840999896,657.1913337000005,,,,,,,,,,,,,,,,,,,,,,,,,,657.1989956999896,657.2075840999896,657.2075840999896,657.2075840999896,660.1921338000102,indoor,None,660.1922918999917,660.2072283999878,660.2072283999878,660.6090666000091,f,0.3927452999923844,None,,,660.2072283999878,660.2072283999878,660.2072283999878,,,,,,,,,,00049,001,2026-01-18_15h14.33.413,MST_task,2024.2.0,60.05472186675815,2026-01-18 15h14.54.790196 +0530,
,Objects\205a.jpg,150,0,151,,,,,,,None,f,0.25044260002323426,None,,,,,,151,0,150,660.6237091000075,,,,,,,,,,,,,,,,,,,,,,,660.6093382000108,660.6237091000075,661.1596016999974,661.1084764999978,,,,,,,,,,,,,,,,,,,,,,,,,,661.1557437999872,661.1596016999974,661.1596016999974,661.1596016999974,664.1240326999978,indoor,None,664.1241570000129,664.1403905999905,664.1403905999905,664.3925017000001,f,0.25044260002323426,None,,,,,,,,,,,,,,,00049,001,2026-01-18_15h14.33.413,MST_task,2024.2.0,60.05472186675815,2026-01-18 15h14.54.790196 +0530,
,Objects\034a.jpg,151,0,152,,,,,,,None,f,0.30771829999866895,None,,,,,,152,0,151,664.4070624999877,,,,,,,,,,,,,,,,,,,,,,,664.3927360000089,664.4070624999877,664.936990999995,664.8918902000005,,,,,,,,,,,,,,,,,,,,,,,,,,664.9338857000112,664.936990999995,664.936990999995,664.936990999995,667.9074823000119,indoor,None,667.9076257999986,667.9235294999962,667.9235294999962,668.242553899996,f,0.30771829999866895,None,,,,,,,,,,,,,,,00049,001,2026-01-18_15h14.33.413,MST_task,2024.2.0,60.05472186675815,2026-01-18 15h14.54.790196 +0530,
,Objects\384a.jpg,152,0,153,,,,,,,None,j,0.35310199999366887,None,,,,,,153,0,152,668.2572826000105,,,,,,,,,,,,,,,,,,,,,,,668.2428074000054,668.2572826000105,668.7572399000055,668.7418710000056,,,,,,,,,,,,,,,,,,,,,,,,,,668.749412300007,668.7572399000055,668.7572399000055,668.7572399000055,671.742533200013,indoor,None,671.7426626000088,671.7587818999891,671.7587818999891,672.1255635000125,j,0.35310199999366887,None,,,671.7587818999891,671.7587818999891,671.7587818999891,,,,,,,,,,00049,001,2026-01-18_15h14.33.413,MST_task,2024.2.0,60.05472186675815,2026-01-18 15h14.54.790196 +0530,
,Objects\133a.jpg,153,0,154,,,,,,,None,j,0.2698501999839209,None,,,,,,154,0,153,672.1404118000064,,,,,,,,,,,,,,,,,,,,,,,672.1257959000068,672.1404118000064,672.669636400009,672.6249621000024,,,,,,,,,,,,,,,,,,,,,,,,,,672.6665752000117,672.669636400009,672.669636400009,672.669636400009,675.6407417999872,indoor,None,675.6409104999912,675.6573573999922,675.6573573999922,675.9419723000028,j,0.2698501999839209,None,,,,,,,,,,,,,,,00049,001,2026-01-18_15h14.33.413,MST_task,2024.2.0,60.05472186675815,2026-01-18 15h14.54.790196 +0530,
,Objects\253a.jpg,154,0,155,,,,,,,None,f,0.30111860000761226,None,,,,,,155,0,154,675.9572687000036,,,,,,,,,,,,,,,,,,,,,,,675.9421896999993,675.9572687000036,676.4585463000112,676.4418223999965,,,,,,,,,,,,,,,,,,,,,,,,,,676.4524593999959,676.4585463000112,676.4585463000112,676.4585463000112,679.4574133999995,shoe,None,679.461430299998,679.4736665000091,679.4736665000091,679.792400300008,f,0.30111860000761226,None,,,,,,,,,,,,,,,00049,001,2026-01-18_15h14.33.413,MST_task,2024.2.0,60.05472186675815,2026-01-18 15h14.54.790196 +0530,
,Objects\068a.jpg,155,0,156,,,,,,,None,j,0.2673603000002913,None,,,,,,156,0,155,679.8070363999868,,,,,,,,,,,,,,,,,,,,,,,679.7929098999884,679.8070363999868,680.3074626000016,680.2911268000025,,,,,,,,,,,,,,,,,,,,,,,,,,680.2978765000007,680.3074626000016,680.3074626000016,680.3074626000016,683.292351000011,shoe,None,683.2925356999913,683.307149100001,683.307149100001,683.5920587999863,j,0.2673603000002913,None,,,683.307149100001,683.307149100001,683.307149100001,,,,,,,,,,00049,001,2026-01-18_15h14.33.413,MST_task,2024.2.0,60.05472186675815,2026-01-18 15h14.54.790196 +0530,
,Objects\333a.jpg,156,0,157,,,,,,,None,f,0.44465930000296794,None,,,,,,157,0,156,683.6072526999924,,,,,,,,,,,,,,,,,,,,,,,683.5923780000012,683.6072526999924,684.1072352000047,684.0915724000079,,,,,,,,,,,,,,,,,,,,,,,,,,684.099427899986,684.1072352000047,684.1072352000047,684.1072352000047,687.0924956999952,shoe,None,687.0926168999868,687.1071104999864,687.1071104999864,687.5592232999916,f,0.44465930000296794,None,,,687.1071104999864,687.1071104999864,687.1071104999864,,,,,,,,,,00049,001,2026-01-18_15h14.33.413,MST_task,2024.2.0,60.05472186675815,2026-01-18 15h14.54.790196 +0530,
,Objects\062a.jpg,157,0,158,,,,,,,None,j,0.27753560000564903,None,,,,,,158,0,157,687.5736167999858,,,,,,,,,,,,,,,,,,,,,,,687.5595953000011,687.5736167999858,688.0740148999903,688.058323300007,,,,,,,,,,,,,,,,,,,,,,,,,,688.0645136999956,688.0740148999903,688.0740148999903,688.0740148999903,691.0585206999967,shoe,None,691.0586138000072,691.0737705999927,691.0737705999927,691.3581276999903,j,0.27753560000564903,None,,,691.0737705999927,691.0737705999927,691.0737705999927,,,,,,,,,,00049,001,2026-01-18_15h14.33.413,MST_task,2024.2.0,60.05472186675815,2026-01-18 15h14.54.790196 +0530,
,Objects\368a.jpg,158,0,159,,,,,,,None,f,0.26956079999217764,None,,,,,,159,0,158,691.3737155999988,,,,,,,,,,,,,,,,,,,,,,,691.3582278999966,691.3737155999988,691.8744128000108,691.8577268999943,,,,,,,,,,,,,,,,,,,,,,,,,,691.8610171999899,691.8744128000108,691.8744128000108,691.8744128000108,694.859068699996,shoe,None,694.8591778000118,694.8737680999911,694.8737680999911,695.1591513000021,f,0.26956079999217764,None,,,694.8737680999911,694.8737680999911,694.8737680999911,,,,,,,,,,00049,001,2026-01-18_15h14.33.413,MST_task,2024.2.0,60.05472186675815,2026-01-18 15h14.54.790196 +0530,
,Objects\098a.jpg,159,0,160,,,,,,,f,None,,,1.4257655999972485,0.15137080001295544,,,,160,0,159,695.1736471999902,,,,,,,,,,,,,,,,,,,,,,,695.1594545000116,695.1736471999902,695.7015761999937,695.658127200004,,,,,,,,,,,,,,,,,,,,,,,,,,695.6981385000108,695.7015761999937,695.7015761999937,695.7015761999937,698.6742058999953,shoe,f,698.6743975999998,,,698.6744695999951,None,,,1.4257655999972485,0.15137080001295544,,,,,,,,,,,,,00049,001,2026-01-18_15h14.33.413,MST_task,2024.2.0,60.05472186675815,2026-01-18 15h14.54.790196 +0530,
