thisN,thisTrialN,thisRepN,key_resp_3.keys,key_resp_3.rt,key_resp_3.duration,trials.thisRepN,trials.thisTrialN,trials.thisN,thisRow.t,notes,intro_page.started,text.started,key_resp.started,intro_page.stopped,key_resp.keys,key_resp.rt,key_resp.duration,instructions.started,text_2.started,key_resp_2.started,instructions.stopped,key_resp_2.keys,key_resp_2.rt,key_resp_2.duration,demo1.started,image_1.started,image_2.started,text_7.started,key_resp_6.started,text_9.started,demo1.stopped,key_resp_6.keys,key_resp_6.rt,key_resp_6.duration,demo3.started,image_5.started,image_6.started,text_11.started,text_12.started,key_resp_8.started,demo3.stopped,key_resp_8.keys,key_resp_8.rt,key_resp_8.duration,demo_conclusion.started,text_13.started,key_resp_9.started,demo_conclusion.stopped,key_resp_9.keys,key_resp_9.rt,key_resp_9.duration,start_test.started,text_6.started,key_resp_5.started,start_test.stopped,key_resp_5.keys,key_resp_5.rt,key_resp_5.duration,ISI.started,text_4.started,text_4.stopped,ISI.stopped,routine_1.started,image.started,text_3.started,key_resp_3.started,routine_1.stopped,image_path,position_of_stimuli,trials.key_resp_3.keys,trials.key_resp_3.rt,trials.key_resp_3.duration,End_page.started,text_5.started,key_resp_4.started,End_page.stopped,key_resp_4.keys,key_resp_4.rt,key_resp_4.duration,participant,session,date,expName,psychopyVersion,frameRate,expStart,
,,,,,,,,,,,0.0012455999967642128,0.002769699989585206,0.002769699989585206,2.6974776000133716,space,2.69118160000653,None,,,,,,,,,,,,,,,,,,,,,,,,,,,,,,,,,,,,,,,,,,,,,,,,,,,,,,,,,,,,,,,00040,001,2026-01-17_15h41.52.844,MST_test,2024.2.0,59.9522899672833,2026-01-17 15h42.04.006133 +0530,
,,,,,,,,,,,,,,,,,,2.697511000005761,2.712123300007079,2.712123300007079,13.012677299993811,space,10.286547199997585,None,,,,,,,,,,,,,,,,,,,,,,,,,,,,,,,,,,,,,,,,,,,,,,,,,,,,,,,,00040,001,2026-01-17_15h41.52.844,MST_test,2024.2.0,59.9522899672833,2026-01-17 15h42.04.006133 +0530,
,,,,,,,,,,,,,,,,,,,,,,,,,13.012702100008028,13.029184499988332,13.029184499988332,13.029184499988332,13.029184499988332,13.029184499988332,18.396265899995342,space,5.362527099990984,None,,,,,,,,,,,,,,,,,,,,,,,,,,,,,,,,,,,,,,,,,,,,,,00040,001,2026-01-17_15h41.52.844,MST_test,2024.2.0,59.9522899672833,2026-01-17 15h42.04.006133 +0530,
,,,,,,,,,,,,,,,,,,,,,,,,,,,,,,,,,,,18.396296599996276,18.412558000010904,18.412558000010904,18.412558000010904,18.412558000010904,18.412558000010904,25.630102199997054,space,7.201260200003162,None,,,,,,,,,,,,,,,,,,,,,,,,,,,,,,,,,,,,00040,001,2026-01-17_15h41.52.844,MST_test,2024.2.0,59.9522899672833,2026-01-17 15h42.04.006133 +0530,
,,,,,,,,,,,,,,,,,,,,,,,,,,,,,,,,,,,,,,,,,,,,,25.630132699996466,25.6455971999967,25.6455971999967,123.09590630000457,space,97.44031149998773,None,,,,,,,,,,,,,,,,,,,,,,,,,,,,,00040,001,2026-01-17_15h41.52.844,MST_test,2024.2.0,59.9522899672833,2026-01-17 15h42.04.006133 +0530,
,,,,,,,,,,,,,,,,,,,,,,,,,,,,,,,,,,,,,,,,,,,,,,,,,,,,123.09594689999358,123.11910189999617,123.11910189999617,190.91255320000346,space,67.78359730000375,None,,,,,,,,,,,,,,,,,,,,,,00040,001,2026-01-17_15h41.52.844,MST_test,2024.2.0,59.9522899672833,2026-01-17 15h42.04.006133 +0530,
0,0,1,o,4.755280400015181,None,1,0,0,190.92858229999547,,,,,,,,,,,,,,,,,,,,,,,,,,,,,,,,,,,,,,,,,,,,,,,,,,190.91727649999666,190.92858229999547,191.43486070001381,191.41232629999286,191.43218999999226,191.43486070001381,191.43486070001381,191.43486070001381,196.19600160000846,Objects\205b.jpg,pre,o,4.755280400015181,None,,,,,,,,00040,001,2026-01-17_15h41.52.844,MST_test,2024.2.0,59.9522899672833,2026-01-17 15h42.04.006133 +0530,
1,0,2,n,6.550442600011593,None,2,0,1,196.21210569998948,,,,,,,,,,,,,,,,,,,,,,,,,,,,,,,,,,,,,,,,,,,,,,,,,,196.19613769999705,196.21210569998948,196.71247259998927,196.69569890000275,196.70129110000562,196.71247259998927,196.71247259998927,196.71247259998927,203.27929770000628,Foils\034a.jpg,none,n,6.550442600011593,None,,,,,,,,00040,001,2026-01-17_15h41.52.844,MST_test,2024.2.0,59.9522899672833,2026-01-17 15h42.04.006133 +0530,
2,0,3,o,3.0029200999997556,None,3,0,2,203.2953642999928,,,,,,,,,,,,,,,,,,,,,,,,,,,,,,,,,,,,,,,,,,,,,,,,,,203.2793881999969,203.2953642999928,203.795818100014,203.7788823999872,203.7882469999895,203.795818100014,203.795818100014,203.795818100014,206.81266230001347,Objects\277b.jpg,mid,o,3.0029200999997556,None,,,,,,,,00040,001,2026-01-17_15h41.52.844,MST_test,2024.2.0,59.9522899672833,2026-01-17 15h42.04.006133 +0530,
3,0,4,s,4.477257200021995,None,4,0,3,206.82859779999126,,,,,,,,,,,,,,,,,,,,,,,,,,,,,,,,,,,,,,,,,,,,,,,,,,206.81275989999995,206.82859779999126,207.3291545000102,207.31233330001123,207.3250859999971,207.3291545000102,207.3291545000102,207.3291545000102,211.81269240000984,Objects\108b.jpg,post,s,4.477257200021995,None,,,,,,,,00040,001,2026-01-17_15h41.52.844,MST_test,2024.2.0,59.9522899672833,2026-01-17 15h42.04.006133 +0530,
4,0,5,o,4.876948799996171,None,5,0,4,211.82863490001182,,,,,,,,,,,,,,,,,,,,,,,,,,,,,,,,,,,,,,,,,,,,,,,,,,211.81278300000122,211.82863490001182,212.3288729999913,212.31230540000251,212.31492539998726,212.3288729999913,212.3288729999913,212.3288729999913,217.21295509999618,Objects\216a.jpg,mid,o,4.876948799996171,None,,,,,,,,00040,001,2026-01-17_15h41.52.844,MST_test,2024.2.0,59.9522899672833,2026-01-17 15h42.04.006133 +0530,
5,0,6,s,6.221929399995133,None,6,0,5,217.2286155000038,,,,,,,,,,,,,,,,,,,,,,,,,,,,,,,,,,,,,,,,,,,,,,,,,,217.21305039999424,217.2286155000038,217.7288594999991,217.712463200005,217.72387789998902,217.7288594999991,217.7288594999991,217.7288594999991,223.9626919000002,Objects\010b.jpg,pre,s,6.221929399995133,None,,,,,,,,00040,001,2026-01-17_15h41.52.844,MST_test,2024.2.0,59.9522899672833,2026-01-17 15h42.04.006133 +0530,
6,0,7,o,1.7758803000033367,None,7,0,6,223.97860239999136,,,,,,,,,,,,,,,,,,,,,,,,,,,,,,,,,,,,,,,,,,,,,,,,,,223.96278850000817,223.97860239999136,224.4788089999929,224.46240379998926,224.46570569998585,224.4788089999929,224.4788089999929,224.4788089999929,226.26272950001294,Objects\126a.jpg,post,o,1.7758803000033367,None,,,,,,,,00040,001,2026-01-17_15h41.52.844,MST_test,2024.2.0,59.9522899672833,2026-01-17 15h42.04.006133 +0530,
7,0,8,o,1.72396029997617,None,8,0,7,226.27864259999478,,,,,,,,,,,,,,,,,,,,,,,,,,,,,,,,,,,,,,,,,,,,,,,,,,226.26282370000263,226.27864259999478,226.77888739999617,226.7623564999958,226.76493880001362,226.77888739999617,226.77888739999617,226.77888739999617,228.5128698000044,Objects\025a.jpg,pre,o,1.72396029997617,None,,,,,,,,00040,001,2026-01-17_15h41.52.844,MST_test,2024.2.0,59.9522899672833,2026-01-17 15h42.04.006133 +0530,
8,0,9,o,2.0491353000106756,None,9,0,8,228.52859309999621,,,,,,,,,,,,,,,,,,,,,,,,,,,,,,,,,,,,,,,,,,,,,,,,,,228.5129608999996,228.52859309999621,229.0290449000022,229.01228580001043,229.0148649000039,229.0290449000022,229.0290449000022,229.0290449000022,231.07912199999555,Objects\027b.jpg,pre,o,2.0491353000106756,None,,,,,,,,00040,001,2026-01-17_15h41.52.844,MST_test,2024.2.0,59.9522899672833,2026-01-17 15h42.04.006133 +0530,
9,0,10,s,3.0106013000186067,None,10,0,9,231.0953748000029,,,,,,,,,,,,,,,,,,,,,,,,,,,,,,,,,,,,,,,,,,,,,,,,,,231.07922469999176,231.0953748000029,231.59561449999455,231.5789330000116,231.58837459998904,231.59561449999455,231.59561449999455,231.59561449999455,234.6130598000018,Objects\276b.jpg,post,s,3.0106013000186067,None,,,,,,,,00040,001,2026-01-17_15h41.52.844,MST_test,2024.2.0,59.9522899672833,2026-01-17 15h42.04.006133 +0530,
10,0,11,o,3.109410499979276,None,11,0,10,234.62860259998706,,,,,,,,,,,,,,,,,,,,,,,,,,,,,,,,,,,,,,,,,,,,,,,,,,234.61316450001323,234.62860259998706,235.12892729998566,235.11234170000535,235.11475330000394,235.12892729998566,235.12892729998566,235.12892729998566,238.24597099999664,Objects\313a.jpg,post,o,3.109410499979276,None,,,,,,,,00040,001,2026-01-17_15h41.52.844,MST_test,2024.2.0,59.9522899672833,2026-01-17 15h42.04.006133 +0530,
11,0,12,n,2.772123400005512,None,12,0,11,238.26209870001185,,,,,,,,,,,,,,,,,,,,,,,,,,,,,,,,,,,,,,,,,,,,,,,,,,238.24606299999868,238.26209870001185,238.76247280000825,238.74569340000744,238.7482902999909,238.76247280000825,238.76247280000825,238.76247280000825,241.5460887000081,Foils\098a.jpg,none,n,2.772123400005512,None,,,,,,,,00040,001,2026-01-17_15h41.52.844,MST_test,2024.2.0,59.9522899672833,2026-01-17 15h42.04.006133 +0530,
12,0,13,o,1.2007088999962434,None,13,0,12,241.56211850000545,,,,,,,,,,,,,,,,,,,,,,,,,,,,,,,,,,,,,,,,,,,,,,,,,,241.5461864999961,241.56211850000545,242.06234249999397,242.04580739999074,242.05537789998925,242.06234249999397,242.06234249999397,242.06234249999397,243.27933630000916,Objects\234b.jpg,pre,o,1.2007088999962434,None,,,,,,,,00040,001,2026-01-17_15h41.52.844,MST_test,2024.2.0,59.9522899672833,2026-01-17 15h42.04.006133 +0530,
13,0,14,s,4.026531400013482,None,14,0,13,243.2954316000105,,,,,,,,,,,,,,,,,,,,,,,,,,,,,,,,,,,,,,,,,,,,,,,,,,243.27942919998895,243.2954316000105,243.79567379999207,243.77900670000236,243.78154409999843,243.79567379999207,243.79567379999207,243.79567379999207,247.82928820000961,Foils\058a.jpg,none,s,4.026531400013482,None,,,,,,,,00040,001,2026-01-17_15h41.52.844,MST_test,2024.2.0,59.9522899672833,2026-01-17 15h42.04.006133 +0530,
14,0,15,n,2.140748600009829,None,15,0,14,247.8454430999991,,,,,,,,,,,,,,,,,,,,,,,,,,,,,,,,,,,,,,,,,,,,,,,,,,247.82939619998797,247.8454430999991,248.34587270001066,248.32890769999358,248.3321539000026,248.34587270001066,248.34587270001066,248.34587270001066,250.49624310000218,Objects\366b.jpg,mid,n,2.140748600009829,None,,,,,,,,00040,001,2026-01-17_15h41.52.844,MST_test,2024.2.0,59.9522899672833,2026-01-17 15h42.04.006133 +0530,
15,0,16,s,2.5060889999731444,None,16,0,15,250.51232619999791,,,,,,,,,,,,,,,,,,,,,,,,,,,,,,,,,,,,,,,,,,,,,,,,,,250.49633910000557,250.51232619999791,251.01260210000328,250.9958379000018,250.99939859998995,251.01260210000328,251.01260210000328,251.01260210000328,253.52965370001039,Objects\080b.jpg,post,s,2.5060889999731444,None,,,,,,,,00040,001,2026-01-17_15h41.52.844,MST_test,2024.2.0,59.9522899672833,2026-01-17 15h42.04.006133 +0530,
16,0,17,o,1.408944499999052,None,17,0,16,253.545595100004,,,,,,,,,,,,,,,,,,,,,,,,,,,,,,,,,,,,,,,,,,,,,,,,,,253.5297516999999,253.545595100004,254.04575459999614,254.0291605000093,254.03172229998745,254.04575459999614,254.04575459999614,254.04575459999614,255.46288559999084,Objects\112a.jpg,post,o,1.408944499999052,None,,,,,,,,00040,001,2026-01-17_15h41.52.844,MST_test,2024.2.0,59.9522899672833,2026-01-17 15h42.04.006133 +0530,
17,0,18,s,2.7792214000073727,None,18,0,17,255.4787490000017,,,,,,,,,,,,,,,,,,,,,,,,,,,,,,,,,,,,,,,,,,,,,,,,,,255.46297409999534,255.4787490000017,255.97907229998964,255.9624415000144,255.9716300999862,255.97907229998964,255.97907229998964,255.97907229998964,258.76277890001074,Objects\058b.jpg,mid,s,2.7792214000073727,None,,,,,,,,00040,001,2026-01-17_15h41.52.844,MST_test,2024.2.0,59.9522899672833,2026-01-17 15h42.04.006133 +0530,
18,0,19,o,1.4552192999981344,None,19,0,18,258.77887189999456,,,,,,,,,,,,,,,,,,,,,,,,,,,,,,,,,,,,,,,,,,,,,,,,,,258.76286889999756,258.77887189999456,259.27940020000096,259.2625180000032,259.2727123000077,259.27940020000096,259.27940020000096,259.27940020000096,260.74609649999184,Objects\300b.jpg,pre,o,1.4552192999981344,None,,,,,,,,00040,001,2026-01-17_15h41.52.844,MST_test,2024.2.0,59.9522899672833,2026-01-17 15h42.04.006133 +0530,
19,0,20,o,1.1679982999921776,None,20,0,19,260.76223140000366,,,,,,,,,,,,,,,,,,,,,,,,,,,,,,,,,,,,,,,,,,,,,,,,,,260.7461891999992,260.76223140000366,261.2626067000092,261.2458195000072,261.2491560000053,261.2626067000092,261.2626067000092,261.2626067000092,262.4460575999983,Objects\124a.jpg,pre,o,1.1679982999921776,None,,,,,,,,00040,001,2026-01-17_15h41.52.844,MST_test,2024.2.0,59.9522899672833,2026-01-17 15h42.04.006133 +0530,
20,0,21,n,2.9082234999805223,None,21,0,20,262.46228020000854,,,,,,,,,,,,,,,,,,,,,,,,,,,,,,,,,,,,,,,,,,,,,,,,,,262.4461476000142,262.46228020000854,262.9624291000073,262.94584870000836,262.9481750999985,262.9624291000073,262.9624291000073,262.9624291000073,265.87930920001236,Foils\050a.jpg,none,n,2.9082234999805223,None,,,,,,,,00040,001,2026-01-17_15h41.52.844,MST_test,2024.2.0,59.9522899672833,2026-01-17 15h42.04.006133 +0530,
21,0,22,o,1.530686499987496,None,22,0,21,265.89585860000807,,,,,,,,,,,,,,,,,,,,,,,,,,,,,,,,,,,,,,,,,,,,,,,,,,265.8793983999931,265.89585860000807,266.39576809998835,266.37903159999405,266.38131289999,266.39576809998835,266.39576809998835,266.39576809998835,267.9309626999893,Objects\046a.jpg,post,o,1.530686499987496,None,,,,,,,,00040,001,2026-01-17_15h41.52.844,MST_test,2024.2.0,59.9522899672833,2026-01-17 15h42.04.006133 +0530,
22,0,23,o,1.1532108999963384,None,23,0,22,267.94551029999275,,,,,,,,,,,,,,,,,,,,,,,,,,,,,,,,,,,,,,,,,,,,,,,,,,267.93106120001175,267.94551029999275,268.44572630000766,268.4292533000116,268.4319644999923,268.44572630000766,268.44572630000766,268.44572630000766,269.61270830000285,Objects\030a.jpg,pre,o,1.1532108999963384,None,,,,,,,,00040,001,2026-01-17_15h41.52.844,MST_test,2024.2.0,59.9522899672833,2026-01-17 15h42.04.006133 +0530,
23,0,24,o,1.4293016000010539,None,24,0,23,269.62886190001154,,,,,,,,,,,,,,,,,,,,,,,,,,,,,,,,,,,,,,,,,,,,,,,,,,269.6127974000119,269.62886190001154,270.12899850000395,270.1125030000112,270.11490929999854,270.12899850000395,270.12899850000395,270.12899850000395,271.5629271999933,Foils\026a.jpg,none,o,1.4293016000010539,None,,,,,,,,00040,001,2026-01-17_15h41.52.844,MST_test,2024.2.0,59.9522899672833,2026-01-17 15h42.04.006133 +0530,
24,0,25,o,1.58380359999137,None,25,0,24,271.5788416999858,,,,,,,,,,,,,,,,,,,,,,,,,,,,,,,,,,,,,,,,,,,,,,,,,,271.56302040000446,271.5788416999858,272.0790982999897,272.0624925000011,272.0651198000123,272.0790982999897,272.0790982999897,272.0790982999897,273.67949889999,Objects\084a.jpg,post,o,1.58380359999137,None,,,,,,,,00040,001,2026-01-17_15h41.52.844,MST_test,2024.2.0,59.9522899672833,2026-01-17 15h42.04.006133 +0530,
25,0,26,s,1.474182700010715,None,26,0,25,273.6955277000088,,,,,,,,,,,,,,,,,,,,,,,,,,,,,,,,,,,,,,,,,,,,,,,,,,273.679589700012,273.6955277000088,274.1960024999862,274.1791560999991,274.1824642000138,274.1960024999862,274.1960024999862,274.1960024999862,275.67945580001106,Objects\325b.jpg,pre,s,1.474182700010715,None,,,,,,,,00040,001,2026-01-17_15h41.52.844,MST_test,2024.2.0,59.9522899672833,2026-01-17 15h42.04.006133 +0530,
26,0,27,o,1.4182037999853492,None,27,0,26,275.6955109999981,,,,,,,,,,,,,,,,,,,,,,,,,,,,,,,,,,,,,,,,,,,,,,,,,,275.6795454999956,275.6955109999981,276.19585620000726,276.1791275999858,276.1824132000038,276.19585620000726,276.19585620000726,276.19585620000726,277.6294240000134,Objects\255a.jpg,mid,o,1.4182037999853492,None,,,,,,,,00040,001,2026-01-17_15h41.52.844,MST_test,2024.2.0,59.9522899672833,2026-01-17 15h42.04.006133 +0530,
27,0,28,n,2.1320986000064295,None,28,0,27,277.6455813999928,,,,,,,,,,,,,,,,,,,,,,,,,,,,,,,,,,,,,,,,,,,,,,,,,,277.6295136999979,277.6455813999928,278.1459365999908,278.12913169999956,278.13306280001416,278.1459365999908,278.1459365999908,278.1459365999908,280.27944650000427,Foils\081a.jpg,none,n,2.1320986000064295,None,,,,,,,,00040,001,2026-01-17_15h41.52.844,MST_test,2024.2.0,59.9522899672833,2026-01-17 15h42.04.006133 +0530,
28,0,29,n,1.7309872999903746,None,29,0,28,280.29556570001296,,,,,,,,,,,,,,,,,,,,,,,,,,,,,,,,,,,,,,,,,,,,,,,,,,280.2795363999903,280.29556570001296,280.7956600000034,280.7790456000075,280.7819915,280.7956600000034,280.7956600000034,280.7956600000034,282.5293887000007,Objects\282b.jpg,post,n,1.7309872999903746,None,,,,,,,,00040,001,2026-01-17_15h41.52.844,MST_test,2024.2.0,59.9522899672833,2026-01-17 15h42.04.006133 +0530,
29,0,30,s,2.0080273000057787,None,30,0,29,282.54559419999714,,,,,,,,,,,,,,,,,,,,,,,,,,,,,,,,,,,,,,,,,,,,,,,,,,282.5294792999921,282.54559419999714,283.04590830000234,283.02908589999424,283.0403459999943,283.04590830000234,283.04590830000234,283.04590830000234,285.0626850000117,Objects\215b.jpg,mid,s,2.0080273000057787,None,,,,,,,,00040,001,2026-01-17_15h41.52.844,MST_test,2024.2.0,59.9522899672833,2026-01-17 15h42.04.006133 +0530,
30,0,31,s,2.0589705999882426,None,31,0,30,285.0788720000128,,,,,,,,,,,,,,,,,,,,,,,,,,,,,,,,,,,,,,,,,,,,,,,,,,285.06277700001374,285.0788720000128,285.5793570000096,285.5625918000005,285.5654487000138,285.5793570000096,285.5793570000096,285.5793570000096,287.64604570000665,Objects\087a.jpg,post,s,2.0589705999882426,None,,,,,,,,00040,001,2026-01-17_15h41.52.844,MST_test,2024.2.0,59.9522899672833,2026-01-17 15h42.04.006133 +0530,
31,0,32,o,1.2844729000062216,None,32,0,31,287.66212039999664,,,,,,,,,,,,,,,,,,,,,,,,,,,,,,,,,,,,,,,,,,,,,,,,,,287.64614379999693,287.66212039999664,288.16267640001024,288.14580999998725,288.14889250000124,288.16267640001024,288.16267640001024,288.16267640001024,289.4627312000084,Objects\289a.jpg,pre,o,1.2844729000062216,None,,,,,,,,00040,001,2026-01-17_15h41.52.844,MST_test,2024.2.0,59.9522899672833,2026-01-17 15h42.04.006133 +0530,
32,0,33,o,1.5072490999882575,None,33,0,32,289.47889170001145,,,,,,,,,,,,,,,,,,,,,,,,,,,,,,,,,,,,,,,,,,,,,,,,,,289.4628231000097,289.47889170001145,289.9791026999883,289.96244629999273,289.965312299988,289.9791026999883,289.9791026999883,289.9791026999883,291.4960349999892,Objects\305a.jpg,pre,o,1.5072490999882575,None,,,,,,,,00040,001,2026-01-17_15h41.52.844,MST_test,2024.2.0,59.9522899672833,2026-01-17 15h42.04.006133 +0530,
33,0,34,o,1.1288428000116255,None,34,0,33,291.5122135000129,,,,,,,,,,,,,,,,,,,,,,,,,,,,,,,,,,,,,,,,,,,,,,,,,,291.49612719999277,291.5122135000129,292.0129910999967,291.995720100007,292.00503930001287,292.0129910999967,292.0129910999967,292.0129910999967,293.14616199999,Objects\057b.jpg,mid,o,1.1288428000116255,None,,,,,,,,00040,001,2026-01-17_15h41.52.844,MST_test,2024.2.0,59.9522899672833,2026-01-17 15h42.04.006133 +0530,
34,0,35,o,1.5207169000059366,None,35,0,34,293.16225100000156,,,,,,,,,,,,,,,,,,,,,,,,,,,,,,,,,,,,,,,,,,,,,,,,,,293.14625290001277,293.16225100000156,293.66253979998874,293.64583250001306,293.6555071999901,293.66253979998874,293.66253979998874,293.66253979998874,295.1963306000107,Objects\100b.jpg,mid,o,1.5207169000059366,None,,,,,,,,00040,001,2026-01-17_15h41.52.844,MST_test,2024.2.0,59.9522899672833,2026-01-17 15h42.04.006133 +0530,
35,0,36,o,1.2937296999734826,None,36,0,35,295.2121877000027,,,,,,,,,,,,,,,,,,,,,,,,,,,,,,,,,,,,,,,,,,,,,,,,,,295.19643489999,295.2121877000027,295.7126517999859,295.69582389999414,295.6988655999885,295.7126517999859,295.7126517999859,295.7126517999859,297.01296359999105,Objects\291a.jpg,mid,o,1.2937296999734826,None,,,,,,,,00040,001,2026-01-17_15h41.52.844,MST_test,2024.2.0,59.9522899672833,2026-01-17 15h42.04.006133 +0530,
36,0,37,s,1.8205874999985099,None,37,0,36,297.0286148999876,,,,,,,,,,,,,,,,,,,,,,,,,,,,,,,,,,,,,,,,,,,,,,,,,,297.0130695000116,297.0286148999876,297.5292383999913,297.5123920000042,297.5230745000008,297.5292383999913,297.5292383999913,297.5292383999913,299.362827200006,Objects\250b.jpg,post,s,1.8205874999985099,None,,,,,,,,00040,001,2026-01-17_15h41.52.844,MST_test,2024.2.0,59.9522899672833,2026-01-17 15h42.04.006133 +0530,
37,0,38,o,1.0786774999869522,None,38,0,37,299.3786308999988,,,,,,,,,,,,,,,,,,,,,,,,,,,,,,,,,,,,,,,,,,,,,,,,,,299.36292380001396,299.3786308999988,299.8792723999941,299.8624247999978,299.8653738000139,299.8792723999941,299.8792723999941,299.8792723999941,300.96272780001163,Objects\239a.jpg,mid,o,1.0786774999869522,None,,,,,,,,00040,001,2026-01-17_15h41.52.844,MST_test,2024.2.0,59.9522899672833,2026-01-17 15h42.04.006133 +0530,
38,0,39,o,1.2786806999938563,None,39,0,38,300.97887379999156,,,,,,,,,,,,,,,,,,,,,,,,,,,,,,,,,,,,,,,,,,,,,,,,,,300.96282240000437,300.97887379999156,301.4791690999991,301.46248479999485,301.4661125999992,301.4791690999991,301.4791690999991,301.4791690999991,302.76288779999595,Objects\319a.jpg,post,o,1.2786806999938563,None,,,,,,,,00040,001,2026-01-17_15h41.52.844,MST_test,2024.2.0,59.9522899672833,2026-01-17 15h42.04.006133 +0530,
39,0,40,o,0.9746876999852248,None,40,0,39,302.77885719999904,,,,,,,,,,,,,,,,,,,,,,,,,,,,,,,,,,,,,,,,,,,,,,,,,,302.7629767000035,302.77885719999904,303.2791531000112,303.2624826999963,303.2657283000008,303.2791531000112,303.2791531000112,303.2791531000112,304.2628732000012,Objects\149a.jpg,post,o,0.9746876999852248,None,,,,,,,,00040,001,2026-01-17_15h41.52.844,MST_test,2024.2.0,59.9522899672833,2026-01-17 15h42.04.006133 +0530,
40,0,41,o,1.154813600005582,None,41,0,40,304.27886099999887,,,,,,,,,,,,,,,,,,,,,,,,,,,,,,,,,,,,,,,,,,,,,,,,,,304.2629675999924,304.27886099999887,304.7790135999967,304.7625083999883,304.77215130001423,304.7790135999967,304.7790135999967,304.7790135999967,305.9461464000051,Objects\157b.jpg,mid,o,1.154813600005582,None,,,,,,,,00040,001,2026-01-17_15h41.52.844,MST_test,2024.2.0,59.9522899672833,2026-01-17 15h42.04.006133 +0530,
41,0,42,n,2.35152699999162,None,42,0,41,305.9622396999912,,,,,,,,,,,,,,,,,,,,,,,,,,,,,,,,,,,,,,,,,,,,,,,,,,305.94623649999266,305.9622396999912,306.4623678000062,306.44585930000176,306.44876299999305,306.4623678000062,306.4623678000062,306.4623678000062,308.8293851999915,Foils\086a.jpg,none,n,2.35152699999162,None,,,,,,,,00040,001,2026-01-17_15h41.52.844,MST_test,2024.2.0,59.9522899672833,2026-01-17 15h42.04.006133 +0530,
42,0,43,o,1.0533942999900319,None,43,0,42,308.84548019999056,,,,,,,,,,,,,,,,,,,,,,,,,,,,,,,,,,,,,,,,,,,,,,,,,,308.82948700001,308.84548019999056,309.3456781000132,309.3289891000022,309.33173639999586,309.3456781000132,309.3456781000132,309.3456781000132,310.4126035000081,Objects\118a.jpg,mid,o,1.0533942999900319,None,,,,,,,,00040,001,2026-01-17_15h41.52.844,MST_test,2024.2.0,59.9522899672833,2026-01-17 15h42.04.006133 +0530,
43,0,44,s,1.3973698999907356,None,44,0,43,310.42863509999006,,,,,,,,,,,,,,,,,,,,,,,,,,,,,,,,,,,,,,,,,,,,,,,,,,310.4126915000088,310.42863509999006,310.9288297999883,310.91234829998575,310.9154606999946,310.9288297999883,310.9288297999883,310.9288297999883,312.32935360001284,Foils\105a.jpg,none,s,1.3973698999907356,None,,,,,,,,00040,001,2026-01-17_15h41.52.844,MST_test,2024.2.0,59.9522899672833,2026-01-17 15h42.04.006133 +0530,
44,0,45,o,1.1049204000155441,None,45,0,44,312.34539929998573,,,,,,,,,,,,,,,,,,,,,,,,,,,,,,,,,,,,,,,,,,,,,,,,,,312.3294472999987,312.34539929998573,312.84568359999685,312.8289684999909,312.8316700000141,312.84568359999685,312.84568359999685,312.84568359999685,313.9626622000069,Objects\214a.jpg,mid,o,1.1049204000155441,None,,,,,,,,00040,001,2026-01-17_15h41.52.844,MST_test,2024.2.0,59.9522899672833,2026-01-17 15h42.04.006133 +0530,
45,0,46,s,2.7114766000013333,None,46,0,45,313.97864180000033,,,,,,,,,,,,,,,,,,,,,,,,,,,,,,,,,,,,,,,,,,,,,,,,,,313.96275110001443,313.97864180000033,314.47915999998804,314.4623505999916,314.4718608999974,314.47915999998804,314.47915999998804,314.47915999998804,317.1961719999963,Objects\338b.jpg,mid,s,2.7114766000013333,None,,,,,,,,00040,001,2026-01-17_15h41.52.844,MST_test,2024.2.0,59.9522899672833,2026-01-17 15h42.04.006133 +0530,
46,0,47,n,1.2221358999959193,None,47,0,46,317.21212439998635,,,,,,,,,,,,,,,,,,,,,,,,,,,,,,,,,,,,,,,,,,,,,,,,,,317.19626860000426,317.21212439998635,317.71249750000425,317.6957841000112,317.6995278999966,317.71249750000425,317.71249750000425,317.71249750000425,318.94608309998875,Foils\002a.jpg,none,n,1.2221358999959193,None,,,,,,,,00040,001,2026-01-17_15h41.52.844,MST_test,2024.2.0,59.9522899672833,2026-01-17 15h42.04.006133 +0530,
47,0,48,o,1.623572399985278,None,48,0,47,318.9621010000119,,,,,,,,,,,,,,,,,,,,,,,,,,,,,,,,,,,,,,,,,,,,,,,,,,318.9461730000039,318.9621010000119,319.4623264000111,319.4457572000101,319.4482243999955,319.4623264000111,319.4623264000111,319.4623264000111,321.0960691999935,Objects\093a.jpg,mid,o,1.623572399985278,None,,,,,,,,00040,001,2026-01-17_15h41.52.844,MST_test,2024.2.0,59.9522899672833,2026-01-17 15h42.04.006133 +0530,
48,0,49,s,4.8352570999995805,None,49,0,48,321.1120646999916,,,,,,,,,,,,,,,,,,,,,,,,,,,,,,,,,,,,,,,,,,,,,,,,,,321.0961634000123,321.1120646999916,321.6123780999915,321.5957389000105,321.60521089998656,321.6123780999915,321.6123780999915,321.6123780999915,326.46276480000233,Objects\089b.jpg,pre,s,4.8352570999995805,None,,,,,,,,00040,001,2026-01-17_15h41.52.844,MST_test,2024.2.0,59.9522899672833,2026-01-17 15h42.04.006133 +0530,
49,0,50,n,1.8668868000095244,None,50,0,49,326.47865159998764,,,,,,,,,,,,,,,,,,,,,,,,,,,,,,,,,,,,,,,,,,,,,,,,,,326.4628537000099,326.47865159998764,326.9789568000124,326.9624002999917,326.9723437000066,326.9789568000124,326.9789568000124,326.9789568000124,328.8625621999963,Objects\187b.jpg,mid,n,1.8668868000095244,None,,,,,,,,00040,001,2026-01-17_15h41.52.844,MST_test,2024.2.0,59.9522899672833,2026-01-17 15h42.04.006133 +0530,
50,0,51,o,1.1399308000109158,None,51,0,50,328.87863190000644,,,,,,,,,,,,,,,,,,,,,,,,,,,,,,,,,,,,,,,,,,,,,,,,,,328.8626517000084,328.87863190000644,329.37889839999843,329.3623041000101,329.3650112999894,329.37889839999843,329.37889839999843,329.37889839999843,330.52928379998775,Objects\024a.jpg,pre,o,1.1399308000109158,None,,,,,,,,00040,001,2026-01-17_15h41.52.844,MST_test,2024.2.0,59.9522899672833,2026-01-17 15h42.04.006133 +0530,
51,0,52,s,2.024715200008359,None,52,0,51,330.54547670000466,,,,,,,,,,,,,,,,,,,,,,,,,,,,,,,,,,,,,,,,,,,,,,,,,,330.5293715999869,330.54547670000466,331.04586169999675,331.02901289999136,331.04042720000143,331.04586169999675,331.04586169999675,331.04586169999675,333.07930410001427,Objects\310b.jpg,post,s,2.024715200008359,None,,,,,,,,00040,001,2026-01-17_15h41.52.844,MST_test,2024.2.0,59.9522899672833,2026-01-17 15h42.04.006133 +0530,
52,0,53,s,2.530446500022663,None,53,0,52,333.0954599000106,,,,,,,,,,,,,,,,,,,,,,,,,,,,,,,,,,,,,,,,,,,,,,,,,,333.07939599998645,333.0954599000106,333.59584940000786,333.5789749000105,333.58917349998956,333.59584940000786,333.59584940000786,333.59584940000786,336.12954829999944,Objects\047b.jpg,post,s,2.530446500022663,None,,,,,,,,00040,001,2026-01-17_15h41.52.844,MST_test,2024.2.0,59.9522899672833,2026-01-17 15h42.04.006133 +0530,
53,0,54,o,2.3926308999944013,None,54,0,53,336.14558569999645,,,,,,,,,,,,,,,,,,,,,,,,,,,,,,,,,,,,,,,,,,,,,,,,,,336.1296459999867,336.14558569999645,336.6456307999906,336.628862499987,336.6384209000098,336.6456307999906,336.6456307999906,336.6456307999906,339.04608989998815,Objects\011b.jpg,pre,o,2.3926308999944013,None,,,,,,,,00040,001,2026-01-17_15h41.52.844,MST_test,2024.2.0,59.9522899672833,2026-01-17 15h42.04.006133 +0530,
54,0,55,o,1.5404626000090502,None,55,0,54,339.0621250999975,,,,,,,,,,,,,,,,,,,,,,,,,,,,,,,,,,,,,,,,,,,,,,,,,,339.04618559998926,339.0621250999975,339.56230709998636,339.5457536999893,339.55550940000103,339.56230709998636,339.56230709998636,339.56230709998636,341.11270930001047,Objects\173b.jpg,pre,o,1.5404626000090502,None,,,,,,,,00040,001,2026-01-17_15h41.52.844,MST_test,2024.2.0,59.9522899672833,2026-01-17 15h42.04.006133 +0530,
55,0,56,s,1.8491261000162922,None,56,0,55,341.1286384999985,,,,,,,,,,,,,,,,,,,,,,,,,,,,,,,,,,,,,,,,,,,,,,,,,,341.11279909999575,341.1286384999985,341.6289473999932,341.6123390000139,341.6145675999869,341.6289473999932,341.6289473999932,341.6289473999932,343.47926299998653,Objects\083b.jpg,post,s,1.8491261000162922,None,,,,,,,,00040,001,2026-01-17_15h41.52.844,MST_test,2024.2.0,59.9522899672833,2026-01-17 15h42.04.006133 +0530,
56,0,57,o,1.066768199991202,None,57,0,56,343.49543589999666,,,,,,,,,,,,,,,,,,,,,,,,,,,,,,,,,,,,,,,,,,,,,,,,,,343.47935139999026,343.49543589999666,343.9958992000029,343.9789921999909,343.98214830001234,343.9958992000029,343.9958992000029,343.9958992000029,345.07919059999404,Objects\263a.jpg,mid,o,1.066768199991202,None,,,,,,,,00040,001,2026-01-17_15h41.52.844,MST_test,2024.2.0,59.9522899672833,2026-01-17 15h42.04.006133 +0530,
57,0,58,o,1.3780566999921575,None,58,0,57,345.09547189998557,,,,,,,,,,,,,,,,,,,,,,,,,,,,,,,,,,,,,,,,,,,,,,,,,,345.0792794000008,345.09547189998557,345.5960253000085,345.5790793999913,345.5906424999994,345.5960253000085,345.5960253000085,345.5960253000085,346.9791955999972,Objects\051b.jpg,mid,o,1.3780566999921575,None,,,,,,,,00040,001,2026-01-17_15h41.52.844,MST_test,2024.2.0,59.9522899672833,2026-01-17 15h42.04.006133 +0530,
58,0,59,s,1.670354200003203,None,59,0,58,346.99546649999684,,,,,,,,,,,,,,,,,,,,,,,,,,,,,,,,,,,,,,,,,,,,,,,,,,346.97928729999694,346.99546649999684,347.4961021000054,347.47900839999784,347.4886329000001,347.4961021000054,347.4961021000054,347.4961021000054,349.17927520000376,Objects\068b.jpg,pre,s,1.670354200003203,None,,,,,,,,00040,001,2026-01-17_15h41.52.844,MST_test,2024.2.0,59.9522899672833,2026-01-17 15h42.04.006133 +0530,
59,0,60,o,1.7265306000190321,None,60,0,59,349.1954345999984,,,,,,,,,,,,,,,,,,,,,,,,,,,,,,,,,,,,,,,,,,,,,,,,,,349.1793824000051,349.1954345999984,349.6957903000002,349.6790856999869,349.6818716000125,349.6957903000002,349.6957903000002,349.6957903000002,351.4293245000008,Objects\131a.jpg,post,o,1.7265306000190321,None,,,,,,,,00040,001,2026-01-17_15h41.52.844,MST_test,2024.2.0,59.9522899672833,2026-01-17 15h42.04.006133 +0530,
60,0,61,n,2.2369297000113875,None,61,0,60,351.4454332999885,,,,,,,,,,,,,,,,,,,,,,,,,,,,,,,,,,,,,,,,,,,,,,,,,,351.4294157999975,351.4454332999885,351.94578010000987,351.92910189999384,351.93850859999657,351.94578010000987,351.94578010000987,351.94578010000987,354.1960179999878,Objects\345b.jpg,pre,n,2.2369297000113875,None,,,,,,,,00040,001,2026-01-17_15h41.52.844,MST_test,2024.2.0,59.9522899672833,2026-01-17 15h42.04.006133 +0530,
61,0,62,s,1.3413449999934528,None,62,0,61,354.21212849998847,,,,,,,,,,,,,,,,,,,,,,,,,,,,,,,,,,,,,,,,,,,,,,,,,,354.1961088000098,354.21212849998847,354.7125449999876,354.69573020000826,354.7056881999888,354.7125449999876,354.7125449999876,354.7125449999876,356.0631493999972,Objects\304b.jpg,pre,s,1.3413449999934528,None,,,,,,,,00040,001,2026-01-17_15h41.52.844,MST_test,2024.2.0,59.9522899672833,2026-01-17 15h42.04.006133 +0530,
62,0,63,n,1.8435490999836475,None,63,0,62,356.07870909999474,,,,,,,,,,,,,,,,,,,,,,,,,,,,,,,,,,,,,,,,,,,,,,,,,,356.06325199999264,356.07870909999474,356.57905500000925,356.56239460001234,356.565958399995,356.57905500000925,356.57905500000925,356.57905500000925,358.42912929999875,Objects\114a.jpg,post,n,1.8435490999836475,None,,,,,,,,00040,001,2026-01-17_15h41.52.844,MST_test,2024.2.0,59.9522899672833,2026-01-17 15h42.04.006133 +0530,
63,0,64,n,1.70922249997966,None,64,0,63,358.445770899998,,,,,,,,,,,,,,,,,,,,,,,,,,,,,,,,,,,,,,,,,,,,,,,,,,358.42921860000934,358.445770899998,358.9456594999938,358.9289698000066,358.93851119998726,358.9456594999938,358.9456594999938,358.9456594999938,360.6626646000077,Foils\049a.jpg,none,n,1.70922249997966,None,,,,,,,,00040,001,2026-01-17_15h41.52.844,MST_test,2024.2.0,59.9522899672833,2026-01-17 15h42.04.006133 +0530,
64,0,65,n,1.4595555000123568,None,65,0,64,360.67866440000944,,,,,,,,,,,,,,,,,,,,,,,,,,,,,,,,,,,,,,,,,,,,,,,,,,360.66275529999984,360.67866440000944,361.17894969999907,361.1623840999964,361.16470789999585,361.17894969999907,361.17894969999907,361.17894969999907,362.6462146000122,Foils\074a.jpg,none,n,1.4595555000123568,None,,,,,,,,00040,001,2026-01-17_15h41.52.844,MST_test,2024.2.0,59.9522899672833,2026-01-17 15h42.04.006133 +0530,
65,0,66,n,1.4763961000135168,None,66,0,65,362.66215809999267,,,,,,,,,,,,,,,,,,,,,,,,,,,,,,,,,,,,,,,,,,,,,,,,,,362.64631250000093,362.66215809999267,363.16249449999304,363.14564179998706,363.1551657000091,363.16249449999304,363.16249449999304,363.16249449999304,364.6460999000119,Objects\221b.jpg,post,n,1.4763961000135168,None,,,,,,,,00040,001,2026-01-17_15h41.52.844,MST_test,2024.2.0,59.9522899672833,2026-01-17 15h42.04.006133 +0530,
66,0,67,s,7.499800499994308,None,67,0,66,364.66214649999165,,,,,,,,,,,,,,,,,,,,,,,,,,,,,,,,,,,,,,,,,,,,,,,,,,364.6461915000109,364.66214649999165,365.16256870000507,365.14574529998936,365.1552163999877,365.16256870000507,365.16256870000507,365.16256870000507,372.6632091999927,Objects\049b.jpg,post,s,7.499800499994308,None,,,,,,,,00040,001,2026-01-17_15h41.52.844,MST_test,2024.2.0,59.9522899672833,2026-01-17 15h42.04.006133 +0530,
67,0,68,n,1.8427119000116363,None,68,0,67,372.67891710001277,,,,,,,,,,,,,,,,,,,,,,,,,,,,,,,,,,,,,,,,,,,,,,,,,,372.663352500007,372.67891710001277,373.179398999986,373.1625515999913,373.17291339999065,373.179398999986,373.179398999986,373.179398999986,375.0294649999996,Objects\339b.jpg,mid,n,1.8427119000116363,None,,,,,,,,00040,001,2026-01-17_15h41.52.844,MST_test,2024.2.0,59.9522899672833,2026-01-17 15h42.04.006133 +0530,
68,0,69,n,2.252241200010758,None,69,0,68,375.0455682000029,,,,,,,,,,,,,,,,,,,,,,,,,,,,,,,,,,,,,,,,,,,,,,,,,,375.0295550999872,375.0455682000029,375.54602519999025,375.5291434999963,375.53874079999514,375.54602519999025,375.54602519999025,375.54602519999025,377.81275809998624,Foils\065a.jpg,none,n,2.252241200010758,None,,,,,,,,00040,001,2026-01-17_15h41.52.844,MST_test,2024.2.0,59.9522899672833,2026-01-17 15h42.04.006133 +0530,
69,0,70,n,1.1811890000244603,None,70,0,69,377.8289378999907,,,,,,,,,,,,,,,,,,,,,,,,,,,,,,,,,,,,,,,,,,,,,,,,,,377.81285200000275,377.8289378999907,378.3291404999909,378.31253299998934,378.31528690000414,378.3291404999909,378.3291404999909,378.3291404999909,379.5128293999878,Foils\090a.jpg,none,n,1.1811890000244603,None,,,,,,,,00040,001,2026-01-17_15h41.52.844,MST_test,2024.2.0,59.9522899672833,2026-01-17 15h42.04.006133 +0530,
70,0,71,o,1.3455090000061318,None,71,0,70,379.5289253999945,,,,,,,,,,,,,,,,,,,,,,,,,,,,,,,,,,,,,,,,,,,,,,,,,,379.5129205000121,379.5289253999945,380.02897390001453,380.0125013999932,380.0149558999983,380.02897390001453,380.02897390001453,380.02897390001453,381.3796614999883,Objects\146a.jpg,pre,o,1.3455090000061318,None,,,,,,,,00040,001,2026-01-17_15h41.52.844,MST_test,2024.2.0,59.9522899672833,2026-01-17 15h42.04.006133 +0530,
71,0,72,s,3.958051499997964,None,72,0,71,381.39560530000017,,,,,,,,,,,,,,,,,,,,,,,,,,,,,,,,,,,,,,,,,,,,,,,,,,381.37976149999304,381.39560530000017,381.8961307000136,381.8791501999949,381.88248639999074,381.8961307000136,381.8961307000136,381.8961307000136,385.86292849999154,Objects\322b.jpg,post,s,3.958051499997964,None,,,,,,,,00040,001,2026-01-17_15h41.52.844,MST_test,2024.2.0,59.9522899672833,2026-01-17 15h42.04.006133 +0530,
72,0,73,s,1.875569900003029,None,73,0,72,385.87868719999096,,,,,,,,,,,,,,,,,,,,,,,,,,,,,,,,,,,,,,,,,,,,,,,,,,385.86302960000467,385.87868719999096,386.3792433000053,386.3625746000034,386.37246310000774,386.3792433000053,386.3792433000053,386.3792433000053,388.26304920000257,Objects\152b.jpg,mid,s,1.875569900003029,None,,,,,,,,00040,001,2026-01-17_15h41.52.844,MST_test,2024.2.0,59.9522899672833,2026-01-17 15h42.04.006133 +0530,
73,0,74,o,2.610704999999143,None,74,0,73,388.2788365999877,,,,,,,,,,,,,,,,,,,,,,,,,,,,,,,,,,,,,,,,,,,,,,,,,,388.2631420000107,388.2788365999877,388.7791614999878,388.76241429999936,388.7717985000054,388.7791614999878,388.7791614999878,388.7791614999878,391.3961292000022,Objects\180b.jpg,post,o,2.610704999999143,None,,,,,,,,00040,001,2026-01-17_15h41.52.844,MST_test,2024.2.0,59.9522899672833,2026-01-17 15h42.04.006133 +0530,
74,0,75,s,2.6864367999951355,None,75,0,74,391.4122912999883,,,,,,,,,,,,,,,,,,,,,,,,,,,,,,,,,,,,,,,,,,,,,,,,,,391.39622059999965,391.4122912999883,391.91247430001386,391.8957437000063,391.89814969999134,391.91247430001386,391.91247430001386,391.91247430001386,394.61288110000896,Objects\002a.jpg,post,s,2.6864367999951355,None,,,,,,,,00040,001,2026-01-17_15h41.52.844,MST_test,2024.2.0,59.9522899672833,2026-01-17 15h42.04.006133 +0530,
75,0,76,s,4.6856246999814175,None,76,0,75,394.6288353000127,,,,,,,,,,,,,,,,,,,,,,,,,,,,,,,,,,,,,,,,,,,,,,,,,,394.61296880000737,394.6288353000127,395.1292073999939,395.11253310000757,395.1149266999855,395.1292073999939,395.1292073999939,395.1292073999939,399.8293640000047,Objects\168a.jpg,pre,s,4.6856246999814175,None,,,,,,,,00040,001,2026-01-17_15h41.52.844,MST_test,2024.2.0,59.9522899672833,2026-01-17 15h42.04.006133 +0530,
76,0,77,o,1.5966158999945037,None,77,0,76,399.84550689999014,,,,,,,,,,,,,,,,,,,,,,,,,,,,,,,,,,,,,,,,,,,,,,,,,,399.82945469999686,399.84550689999014,400.3457720000006,400.32918440000503,400.33269760000985,400.3457720000006,400.3457720000006,400.3457720000006,401.9460548000061,Objects\059a.jpg,pre,o,1.5966158999945037,None,,,,,,,,00040,001,2026-01-17_15h41.52.844,MST_test,2024.2.0,59.9522899672833,2026-01-17 15h42.04.006133 +0530,
77,0,78,n,1.7760100000014063,None,78,0,77,401.96224270001403,,,,,,,,,,,,,,,,,,,,,,,,,,,,,,,,,,,,,,,,,,,,,,,,,,401.9461476000142,401.96224270001403,402.4626369999896,402.44568929998786,402.4482124999922,402.4626369999896,402.4626369999896,402.4626369999896,404.24617020000005,Foils\042a.jpg,none,n,1.7760100000014063,None,,,,,,,,00040,001,2026-01-17_15h41.52.844,MST_test,2024.2.0,59.9522899672833,2026-01-17 15h42.04.006133 +0530,
78,0,79,o,1.5394744999939576,None,79,0,78,404.2622667000105,,,,,,,,,,,,,,,,,,,,,,,,,,,,,,,,,,,,,,,,,,,,,,,,,,404.2462600999861,404.2622667000105,404.76239290001104,404.7457960000029,404.7483113000053,404.76239290001104,404.76239290001104,404.76239290001104,406.3128226000117,Objects\129a.jpg,pre,o,1.5394744999939576,None,,,,,,,,00040,001,2026-01-17_15h41.52.844,MST_test,2024.2.0,59.9522899672833,2026-01-17 15h42.04.006133 +0530,
79,0,80,o,1.201946399989538,None,80,0,79,406.3288059000042,,,,,,,,,,,,,,,,,,,,,,,,,,,,,,,,,,,,,,,,,,,,,,,,,,406.31291430001147,406.3288059000042,406.8291353000095,406.8124904000142,406.8237147000036,406.8291353000095,406.8291353000095,406.8291353000095,408.04619180000736,Objects\153b.jpg,post,o,1.201946399989538,None,,,,,,,,00040,001,2026-01-17_15h41.52.844,MST_test,2024.2.0,59.9522899672833,2026-01-17 15h42.04.006133 +0530,
80,0,81,s,1.6114187999919523,None,81,0,80,408.0621928999899,,,,,,,,,,,,,,,,,,,,,,,,,,,,,,,,,,,,,,,,,,,,,,,,,,408.0462821999972,408.0621928999899,408.56260149998707,408.5458967000013,408.5563006000011,408.56260149998707,408.56260149998707,408.56260149998707,410.17966329999035,Objects\232b.jpg,pre,s,1.6114187999919523,None,,,,,,,,00040,001,2026-01-17_15h41.52.844,MST_test,2024.2.0,59.9522899672833,2026-01-17 15h42.04.006133 +0530,
81,0,82,s,2.806475599994883,None,82,0,81,410.1956091999891,,,,,,,,,,,,,,,,,,,,,,,,,,,,,,,,,,,,,,,,,,,,,,,,,,410.1797552999924,410.1956091999891,410.695939199999,410.6791837000055,410.6824486000114,410.695939199999,410.695939199999,410.695939199999,413.5127919999941,Objects\212a.jpg,mid,s,2.806475599994883,None,,,,,,,,00040,001,2026-01-17_15h41.52.844,MST_test,2024.2.0,59.9522899672833,2026-01-17 15h42.04.006133 +0530,
82,0,83,n,2.0490980000176933,None,83,0,82,413.5289281999867,,,,,,,,,,,,,,,,,,,,,,,,,,,,,,,,,,,,,,,,,,,,,,,,,,413.51288260001456,413.5289281999867,414.029289099999,414.01242049998837,414.02311209999607,414.029289099999,414.029289099999,414.029289099999,416.07981460000155,Objects\110b.jpg,mid,n,2.0490980000176933,None,,,,,,,,00040,001,2026-01-17_15h41.52.844,MST_test,2024.2.0,59.9522899672833,2026-01-17 15h42.04.006133 +0530,
83,0,84,n,1.1783248000137974,None,84,0,83,416.09552030000486,,,,,,,,,,,,,,,,,,,,,,,,,,,,,,,,,,,,,,,,,,,,,,,,,,416.07992349998676,416.09552030000486,416.59580569999525,416.579109000013,416.58169220000855,416.59580569999525,416.59580569999525,416.59580569999525,417.77958440000657,Foils\017a.jpg,none,n,1.1783248000137974,None,,,,,,,,00040,001,2026-01-17_15h41.52.844,MST_test,2024.2.0,59.9522899672833,2026-01-17 15h42.04.006133 +0530,
84,0,85,o,1.2629413999966346,None,85,0,84,417.79561000000103,,,,,,,,,,,,,,,,,,,,,,,,,,,,,,,,,,,,,,,,,,,,,,,,,,417.7796759000048,417.79561000000103,418.29571519998717,418.27914359999704,418.28156989999115,418.29571519998717,418.29571519998717,418.29571519998717,419.56289080000715,Objects\064a.jpg,pre,o,1.2629413999966346,None,,,,,,,,00040,001,2026-01-17_15h41.52.844,MST_test,2024.2.0,59.9522899672833,2026-01-17 15h42.04.006133 +0530,
85,0,86,s,1.799012399977073,None,86,0,85,419.57882110000355,,,,,,,,,,,,,,,,,,,,,,,,,,,,,,,,,,,,,,,,,,,,,,,,,,419.5629845999938,419.57882110000355,420.07912050001323,420.0624650999962,420.06515050001326,420.07912050001323,420.07912050001323,420.07912050001323,421.87945440001204,Objects\023b.jpg,pre,s,1.799012399977073,None,,,,,,,,00040,001,2026-01-17_15h41.52.844,MST_test,2024.2.0,59.9522899672833,2026-01-17 15h42.04.006133 +0530,
86,0,87,n,2.9862319999956526,None,87,0,86,421.89559709999594,,,,,,,,,,,,,,,,,,,,,,,,,,,,,,,,,,,,,,,,,,,,,,,,,,421.87954409999656,421.89559709999594,422.3958757999935,422.3791732999962,422.38172360000317,422.3958757999935,422.3958757999935,422.3958757999935,425.3962111999863,Foils\093b.jpg,none,n,2.9862319999956526,None,,,,,,,,00040,001,2026-01-17_15h41.52.844,MST_test,2024.2.0,59.9522899672833,2026-01-17 15h42.04.006133 +0530,
87,0,88,o,1.5261906000087038,None,88,0,87,425.41224350000266,,,,,,,,,,,,,,,,,,,,,,,,,,,,,,,,,,,,,,,,,,,,,,,,,,425.3963053000043,425.41224350000266,425.9124185999972,425.8958180999907,425.8982668000099,425.9124185999972,425.9124185999972,425.9124185999972,427.4461044000054,Objects\185a.jpg,mid,o,1.5261906000087038,None,,,,,,,,00040,001,2026-01-17_15h41.52.844,MST_test,2024.2.0,59.9522899672833,2026-01-17 15h42.04.006133 +0530,
88,0,89,n,1.396303200017428,None,89,0,88,427.46226979998755,,,,,,,,,,,,,,,,,,,,,,,,,,,,,,,,,,,,,,,,,,,,,,,,,,427.4461939999892,427.46226979998755,427.9624668000033,427.9459942000103,427.94862979999743,427.9624668000033,427.9624668000033,427.9624668000033,429.36281900000176,Foils\097a.jpg,none,n,1.396303200017428,None,,,,,,,,00040,001,2026-01-17_15h41.52.844,MST_test,2024.2.0,59.9522899672833,2026-01-17 15h42.04.006133 +0530,
89,0,90,o,1.463072699989425,None,90,0,89,429.37866859999485,,,,,,,,,,,,,,,,,,,,,,,,,,,,,,,,,,,,,,,,,,,,,,,,,,429.3629123000137,429.37866859999485,429.8791838999896,429.8623523999995,429.8721171999932,429.8791838999896,429.8791838999896,429.8791838999896,431.345985699998,Objects\373b.jpg,post,o,1.463072699989425,None,,,,,,,,00040,001,2026-01-17_15h41.52.844,MST_test,2024.2.0,59.9522899672833,2026-01-17 15h42.04.006133 +0530,
90,0,91,n,7.087961500015808,None,91,0,90,431.3621725999983,,,,,,,,,,,,,,,,,,,,,,,,,,,,,,,,,,,,,,,,,,,,,,,,,,431.3460764999909,431.3621725999983,431.8625221000111,431.8457738000143,431.85577240001294,431.8625221000111,431.8625221000111,431.8625221000111,438.962812200014,Objects\077b.jpg,post,n,7.087961500015808,None,,,,,,,,00040,001,2026-01-17_15h41.52.844,MST_test,2024.2.0,59.9522899672833,2026-01-17 15h42.04.006133 +0530,
91,0,92,n,1.760197600000538,None,92,0,91,438.978706599999,,,,,,,,,,,,,,,,,,,,,,,,,,,,,,,,,,,,,,,,,,,,,,,,,,438.9629072000098,438.978706599999,439.47911549999844,439.4625844999973,439.47236189999967,439.47911549999844,439.47911549999844,439.47911549999844,441.24619430000894,Objects\121b.jpg,post,n,1.760197600000538,None,,,,,,,,00040,001,2026-01-17_15h41.52.844,MST_test,2024.2.0,59.9522899672833,2026-01-17 15h42.04.006133 +0530,
92,0,93,s,5.036914299998898,None,93,0,92,441.26217709999764,,,,,,,,,,,,,,,,,,,,,,,,,,,,,,,,,,,,,,,,,,,,,,,,,,441.24630729999626,441.26217709999764,441.7623162000091,441.7457393000077,441.74855769998976,441.7623162000091,441.7623162000091,441.7623162000091,446.81278760000714,Objects\189a.jpg,post,s,5.036914299998898,None,,,,,,,,00040,001,2026-01-17_15h41.52.844,MST_test,2024.2.0,59.9522899672833,2026-01-17 15h42.04.006133 +0530,
93,0,94,s,1.7732970000070054,None,94,0,93,446.82868679999956,,,,,,,,,,,,,,,,,,,,,,,,,,,,,,,,,,,,,,,,,,,,,,,,,,446.8128907000064,446.82868679999956,447.32892170001287,447.312473900005,447.31544730000314,447.32892170001287,447.32892170001287,447.32892170001287,449.1129748999956,Foils\010a.jpg,none,s,1.7732970000070054,None,,,,,,,,00040,001,2026-01-17_15h41.52.844,MST_test,2024.2.0,59.9522899672833,2026-01-17 15h42.04.006133 +0530,
94,0,95,s,3.497283200005768,None,95,0,94,449.1287001000019,,,,,,,,,,,,,,,,,,,,,,,,,,,,,,,,,,,,,,,,,,,,,,,,,,449.1130698999914,449.1287001000019,449.6289132999955,449.6123488000012,449.6149221000087,449.6289132999955,449.6289132999955,449.6289132999955,453.1292564999894,Foils\057a.jpg,none,s,3.497283200005768,None,,,,,,,,00040,001,2026-01-17_15h41.52.844,MST_test,2024.2.0,59.9522899672833,2026-01-17 15h42.04.006133 +0530,
95,0,96,n,2.2321328000107314,None,96,0,95,453.1454972999927,,,,,,,,,,,,,,,,,,,,,,,,,,,,,,,,,,,,,,,,,,,,,,,,,,453.129350800009,453.1454972999927,453.6459111000004,453.62902130000293,453.6344734999875,453.6459111000004,453.6459111000004,453.6459111000004,455.8792848000012,Objects\248a.jpg,pre,n,2.2321328000107314,None,,,,,,,,00040,001,2026-01-17_15h41.52.844,MST_test,2024.2.0,59.9522899672833,2026-01-17 15h42.04.006133 +0530,
96,0,97,n,2.402588900004048,None,97,0,96,455.8955077000137,,,,,,,,,,,,,,,,,,,,,,,,,,,,,,,,,,,,,,,,,,,,,,,,,,455.87937440001406,455.8955077000137,456.3959330999933,456.37894600001164,456.38222349999705,456.3959330999933,456.3959330999933,456.3959330999933,458.8127671999973,Objects\143a.jpg,pre,n,2.402588900004048,None,,,,,,,,00040,001,2026-01-17_15h41.52.844,MST_test,2024.2.0,59.9522899672833,2026-01-17 15h42.04.006133 +0530,
97,0,98,n,2.237804000003962,None,98,0,97,458.8287081999879,,,,,,,,,,,,,,,,,,,,,,,,,,,,,,,,,,,,,,,,,,,,,,,,,,458.81286360000377,458.8287081999879,459.32900629998767,459.3124425999995,459.31529820000287,459.32900629998767,459.32900629998767,459.32900629998767,461.5791971999861,Objects\113a.jpg,mid,n,2.237804000003962,None,,,,,,,,00040,001,2026-01-17_15h41.52.844,MST_test,2024.2.0,59.9522899672833,2026-01-17 15h42.04.006133 +0530,
98,0,99,o,1.2239135000272654,None,99,0,98,461.5954703000025,,,,,,,,,,,,,,,,,,,,,,,,,,,,,,,,,,,,,,,,,,,,,,,,,,461.57928659999743,461.5954703000025,462.095727900014,462.0789950999897,462.0814243000059,462.095727900014,462.095727900014,462.095727900014,463.32946969999466,Objects\166a.jpg,post,o,1.2239135000272654,None,,,,,,,,00040,001,2026-01-17_15h41.52.844,MST_test,2024.2.0,59.9522899672833,2026-01-17 15h42.04.006133 +0530,
99,0,100,o,1.2251197999867145,None,100,0,99,463.3455612999969,,,,,,,,,,,,,,,,,,,,,,,,,,,,,,,,,,,,,,,,,,,,,,,,,,463.32956290000584,463.3455612999969,463.845719200006,463.8290360000101,463.831958499999,463.845719200006,463.845719200006,463.845719200006,465.0795608999906,Objects\311a.jpg,mid,o,1.2251197999867145,None,,,,,,,,00040,001,2026-01-17_15h41.52.844,MST_test,2024.2.0,59.9522899672833,2026-01-17 15h42.04.006133 +0530,
100,0,101,o,1.1943084999802522,None,101,0,100,465.09551959999953,,,,,,,,,,,,,,,,,,,,,,,,,,,,,,,,,,,,,,,,,,,,,,,,,,465.07966019999003,465.09551959999953,465.5957155000069,465.57902370000375,465.5818995999871,465.5957155000069,465.5957155000069,465.5957155000069,466.796141800005,Objects\370a.jpg,pre,o,1.1943084999802522,None,,,,,,,,00040,001,2026-01-17_15h41.52.844,MST_test,2024.2.0,59.9522899672833,2026-01-17 15h42.04.006133 +0530,
101,0,102,n,1.3417775999987498,None,102,0,101,466.8121800000081,,,,,,,,,,,,,,,,,,,,,,,,,,,,,,,,,,,,,,,,,,,,,,,,,,466.7962295000034,466.8121800000081,467.31239589999313,467.2957619999943,467.2985395999858,467.31239589999313,467.31239589999313,467.31239589999313,468.6627965999942,Foils\082a.jpg,none,n,1.3417775999987498,None,,,,,,,,00040,001,2026-01-17_15h41.52.844,MST_test,2024.2.0,59.9522899672833,2026-01-17 15h42.04.006133 +0530,
102,0,103,s,1.5956672999891452,None,103,0,102,468.6788132000074,,,,,,,,,,,,,,,,,,,,,,,,,,,,,,,,,,,,,,,,,,,,,,,,,,468.66288910000003,468.6788132000074,469.17911150000873,469.1623401000106,469.1755781999964,469.17911150000873,469.17911150000873,469.17911150000873,470.7792962999956,Objects\363b.jpg,post,s,1.5956672999891452,None,,,,,,,,00040,001,2026-01-17_15h41.52.844,MST_test,2024.2.0,59.9522899672833,2026-01-17 15h42.04.006133 +0530,
103,0,104,n,3.5267986999824643,None,104,0,103,470.79550979999476,,,,,,,,,,,,,,,,,,,,,,,,,,,,,,,,,,,,,,,,,,,,,,,,,,470.77938759999233,470.79550979999476,471.29590160000953,471.2789729000069,471.28955009998754,471.29590160000953,471.29590160000953,471.29590160000953,474.8297200000088,Objects\079b.jpg,pre,n,3.5267986999824643,None,,,,,,,,00040,001,2026-01-17_15h41.52.844,MST_test,2024.2.0,59.9522899672833,2026-01-17 15h42.04.006133 +0530,
104,0,105,n,1.0609987000061665,None,105,0,104,474.84551750001265,,,,,,,,,,,,,,,,,,,,,,,,,,,,,,,,,,,,,,,,,,,,,,,,,,474.82981409999775,474.84551750001265,475.3460083999962,475.329033099988,475.3316175999935,475.3460083999962,475.3460083999962,475.3460083999962,476.41281609999714,Objects\360a.jpg,post,n,1.0609987000061665,None,,,,,,,,00040,001,2026-01-17_15h41.52.844,MST_test,2024.2.0,59.9522899672833,2026-01-17 15h42.04.006133 +0530,
105,0,106,o,2.197094900009688,None,106,0,105,476.4287905000092,,,,,,,,,,,,,,,,,,,,,,,,,,,,,,,,,,,,,,,,,,,,,,,,,,476.4129105999891,476.4287905000092,476.92914150000433,476.91242569999304,476.9161529999983,476.92914150000433,476.92914150000433,476.92914150000433,479.12929189999704,Objects\211a.jpg,post,o,2.197094900009688,None,,,,,,,,00040,001,2026-01-17_15h41.52.844,MST_test,2024.2.0,59.9522899672833,2026-01-17 15h42.04.006133 +0530,
106,0,107,n,1.5609593999979552,None,107,0,106,479.1455212000001,,,,,,,,,,,,,,,,,,,,,,,,,,,,,,,,,,,,,,,,,,,,,,,,,,479.12938239998766,479.1455212000001,479.6457439000078,479.62912970001344,479.6383586000011,479.6457439000078,479.6457439000078,479.6457439000078,481.212846600014,Objects\268b.jpg,pre,n,1.5609593999979552,None,,,,,,,,00040,001,2026-01-17_15h41.52.844,MST_test,2024.2.0,59.9522899672833,2026-01-17 15h42.04.006133 +0530,
107,0,108,n,5.893743499997072,None,108,0,107,481.2287159000116,,,,,,,,,,,,,,,,,,,,,,,,,,,,,,,,,,,,,,,,,,,,,,,,,,481.21293660000083,481.2287159000116,481.72903789998963,481.7123782999988,481.71563580000657,481.72903789998963,481.72903789998963,481.72903789998963,487.62927509998553,Foils\020b.jpg,none,n,5.893743499997072,None,,,,,,,,00040,001,2026-01-17_15h41.52.844,MST_test,2024.2.0,59.9522899672833,2026-01-17 15h42.04.006133 +0530,
108,0,109,n,1.1562734000035562,None,109,0,108,487.64554739999585,,,,,,,,,,,,,,,,,,,,,,,,,,,,,,,,,,,,,,,,,,,,,,,,,,487.6293641999946,487.64554739999585,488.1457100000116,488.12893899998744,488.1316921999969,488.1457100000116,488.1457100000116,488.1457100000116,489.3128000999859,Foils\113a.jpg,none,n,1.1562734000035562,None,,,,,,,,00040,001,2026-01-17_15h41.52.844,MST_test,2024.2.0,59.9522899672833,2026-01-17 15h42.04.006133 +0530,
109,0,110,o,1.2652062999841291,None,110,0,109,489.3289378999907,,,,,,,,,,,,,,,,,,,,,,,,,,,,,,,,,,,,,,,,,,,,,,,,,,489.31289470000775,489.3289378999907,489.8293227000104,489.8124981999863,489.82240420000744,489.8293227000104,489.8293227000104,489.8293227000104,491.0961429000017,Objects\371b.jpg,pre,o,1.2652062999841291,None,,,,,,,,00040,001,2026-01-17_15h41.52.844,MST_test,2024.2.0,59.9522899672833,2026-01-17 15h42.04.006133 +0530,
110,0,111,o,1.1613958000089042,None,111,0,110,491.1122933999868,,,,,,,,,,,,,,,,,,,,,,,,,,,,,,,,,,,,,,,,,,,,,,,,,,491.09623570000986,491.1122933999868,491.61270649998914,491.59593720000703,491.60120400000596,491.61270649998914,491.61270649998914,491.61270649998914,492.7796040000103,Objects\288a.jpg,mid,o,1.1613958000089042,None,,,,,,,,00040,001,2026-01-17_15h41.52.844,MST_test,2024.2.0,59.9522899672833,2026-01-17 15h42.04.006133 +0530,
111,0,112,o,0.7337999000155833,None,112,0,111,492.7956742999959,,,,,,,,,,,,,,,,,,,,,,,,,,,,,,,,,,,,,,,,,,,,,,,,,,492.77969419999863,492.7956742999959,493.29602079998585,493.27914020000026,493.2838667999895,493.29602079998585,493.29602079998585,493.29602079998585,494.04619550000643,Objects\264a.jpg,mid,o,0.7337999000155833,None,,,,,,,,00040,001,2026-01-17_15h41.52.844,MST_test,2024.2.0,59.9522899672833,2026-01-17 15h42.04.006133 +0530,
112,0,113,o,2.363638200011337,None,113,0,112,494.0623728999926,,,,,,,,,,,,,,,,,,,,,,,,,,,,,,,,,,,,,,,,,,,,,,,,,,494.0462858999963,494.0623728999926,494.5626712999947,494.54592070000945,494.5494439000031,494.5626712999947,494.5626712999947,494.5626712999947,496.9296056999883,Objects\031a.jpg,pre,o,2.363638200011337,None,,,,,,,,00040,001,2026-01-17_15h41.52.844,MST_test,2024.2.0,59.9522899672833,2026-01-17 15h42.04.006133 +0530,
113,0,114,o,0.9284650000045076,None,114,0,113,496.9457684000081,,,,,,,,,,,,,,,,,,,,,,,,,,,,,,,,,,,,,,,,,,,,,,,,,,496.92970649999916,496.9457684000081,497.4458362000005,497.4291661999887,497.43856740000774,497.4458362000005,497.4458362000005,497.4458362000005,498.37951520000934,Objects\040b.jpg,pre,o,0.9284650000045076,None,,,,,,,,00040,001,2026-01-17_15h41.52.844,MST_test,2024.2.0,59.9522899672833,2026-01-17 15h42.04.006133 +0530,
114,0,115,o,0.8540896000049543,None,115,0,114,498.39549850000185,,,,,,,,,,,,,,,,,,,,,,,,,,,,,,,,,,,,,,,,,,,,,,,,,,498.379614400008,498.39549850000185,498.8957608999917,498.87925440000254,498.88217880000593,498.8957608999917,498.8957608999917,498.8957608999917,499.7629017000145,Objects\036a.jpg,mid,o,0.8540896000049543,None,,,,,,,,00040,001,2026-01-17_15h41.52.844,MST_test,2024.2.0,59.9522899672833,2026-01-17 15h42.04.006133 +0530,
115,0,116,o,0.9025568000215571,None,116,0,115,499.7788320000109,,,,,,,,,,,,,,,,,,,,,,,,,,,,,,,,,,,,,,,,,,,,,,,,,,499.7629910999967,499.7788320000109,500.2793466000003,500.26253099998576,500.26559719999204,500.2793466000003,500.2793466000003,500.2793466000003,501.1962732000102,Objects\377a.jpg,pre,o,0.9025568000215571,None,,,,,,,,00040,001,2026-01-17_15h41.52.844,MST_test,2024.2.0,59.9522899672833,2026-01-17 15h42.04.006133 +0530,
116,0,117,n,1.8777398000238463,None,117,0,116,501.2123230000143,,,,,,,,,,,,,,,,,,,,,,,,,,,,,,,,,,,,,,,,,,,,,,,,,,501.19636949998676,501.2123230000143,501.71267830001307,501.6958806999901,501.698679299996,501.71267830001307,501.71267830001307,501.71267830001307,503.59604430000763,Objects\257a.jpg,post,n,1.8777398000238463,None,,,,,,,,00040,001,2026-01-17_15h41.52.844,MST_test,2024.2.0,59.9522899672833,2026-01-17 15h42.04.006133 +0530,
117,0,118,o,1.4703007999924012,None,118,0,117,503.61214690000634,,,,,,,,,,,,,,,,,,,,,,,,,,,,,,,,,,,,,,,,,,,,,,,,,,503.5961391000019,503.61214690000634,504.1126510000031,504.0959300000104,504.0987283999857,504.1126510000031,504.1126510000031,504.1126510000031,505.5962228999997,Objects\331a.jpg,post,o,1.4703007999924012,None,,,,,,,,00040,001,2026-01-17_15h41.52.844,MST_test,2024.2.0,59.9522899672833,2026-01-17 15h42.04.006133 +0530,
118,0,119,o,2.5575240000034682,None,119,0,118,505.6122328999918,,,,,,,,,,,,,,,,,,,,,,,,,,,,,,,,,,,,,,,,,,,,,,,,,,505.5963383000053,505.6122328999918,506.1126196999976,506.0958332000009,506.1056288999971,506.1126196999976,506.1126196999976,506.1126196999976,508.6795265999972,Objects\375b.jpg,mid,o,2.5575240000034682,None,,,,,,,,00040,001,2026-01-17_15h41.52.844,MST_test,2024.2.0,59.9522899672833,2026-01-17 15h42.04.006133 +0530,
119,0,120,n,1.1783670000149868,None,120,0,119,508.69561789999716,,,,,,,,,,,,,,,,,,,,,,,,,,,,,,,,,,,,,,,,,,,,,,,,,,508.67961520000244,508.69561789999716,509.1959124999994,509.1790723000013,509.1823893999972,509.1959124999994,509.1959124999994,509.1959124999994,510.3796022000024,Foils\009a.jpg,none,n,1.1783670000149868,None,,,,,,,,00040,001,2026-01-17_15h41.52.844,MST_test,2024.2.0,59.9522899672833,2026-01-17 15h42.04.006133 +0530,
120,0,121,n,2.381926600006409,None,121,0,120,510.3955277999921,,,,,,,,,,,,,,,,,,,,,,,,,,,,,,,,,,,,,,,,,,,,,,,,,,510.3796990000119,510.3955277999921,510.8959801000019,510.8792604999908,510.88146619999316,510.8959801000019,510.8959801000019,510.8959801000019,513.2794911999954,Foils\f6.jpg,none,n,2.381926600006409,None,,,,,,,,00040,001,2026-01-17_15h41.52.844,MST_test,2024.2.0,59.9522899672833,2026-01-17 15h42.04.006133 +0530,
121,0,122,o,1.7298541000054684,None,122,0,121,513.2956241999927,,,,,,,,,,,,,,,,,,,,,,,,,,,,,,,,,,,,,,,,,,,,,,,,,,513.2795794999984,513.2956241999927,513.7959574999986,513.7792943000095,513.7825224999979,513.7959574999986,513.7959574999986,513.7959574999986,515.5294731000031,Objects\008a.jpg,post,o,1.7298541000054684,None,,,,,,,,00040,001,2026-01-17_15h41.52.844,MST_test,2024.2.0,59.9522899672833,2026-01-17 15h42.04.006133 +0530,
122,0,123,o,1.1438779000018258,None,123,0,122,515.5455645000038,,,,,,,,,,,,,,,,,,,,,,,,,,,,,,,,,,,,,,,,,,,,,,,,,,515.5296284999931,515.5455645000038,516.0460403999896,516.0293710000115,516.0324098000128,516.0460403999896,516.0460403999896,516.0460403999896,517.1962424000085,Objects\236a.jpg,mid,o,1.1438779000018258,None,,,,,,,,00040,001,2026-01-17_15h41.52.844,MST_test,2024.2.0,59.9522899672833,2026-01-17 15h42.04.006133 +0530,
123,0,124,s,2.197877599974163,None,124,0,123,517.2121788999939,,,,,,,,,,,,,,,,,,,,,,,,,,,,,,,,,,,,,,,,,,,,,,,,,,517.1963391999889,517.2121788999939,517.7127389000088,517.695914699987,517.6989504999947,517.7127389000088,517.7127389000088,517.7127389000088,519.9128384999931,Objects\078b.jpg,pre,s,2.197877599974163,None,,,,,,,,00040,001,2026-01-17_15h41.52.844,MST_test,2024.2.0,59.9522899672833,2026-01-17 15h42.04.006133 +0530,
124,0,125,s,2.5532102000142913,None,125,0,124,519.9287374000123,,,,,,,,,,,,,,,,,,,,,,,,,,,,,,,,,,,,,,,,,,,,,,,,,,519.9129288000113,519.9287374000123,520.4291716000007,520.4124740000116,520.4238516000041,520.4291716000007,520.4291716000007,520.4291716000007,522.9960311999894,Objects\230b.jpg,mid,s,2.5532102000142913,None,,,,,,,,00040,001,2026-01-17_15h41.52.844,MST_test,2024.2.0,59.9522899672833,2026-01-17 15h42.04.006133 +0530,
125,0,126,o,1.061284199997317,None,126,0,125,523.0122083000024,,,,,,,,,,,,,,,,,,,,,,,,,,,,,,,,,,,,,,,,,,,,,,,,,,522.9961192999908,523.0122083000024,523.5125611000112,523.4957326999865,523.4992401000054,523.5125611000112,523.5125611000112,523.5125611000112,524.5792136999953,Objects\178a.jpg,post,o,1.061284199997317,None,,,,,,,,00040,001,2026-01-17_15h41.52.844,MST_test,2024.2.0,59.9522899672833,2026-01-17 15h42.04.006133 +0530,
126,0,127,s,6.646641700004693,None,127,0,126,524.5955290000129,,,,,,,,,,,,,,,,,,,,,,,,,,,,,,,,,,,,,,,,,,,,,,,,,,524.5793056999973,524.5955290000129,525.0959020000009,525.0789869999862,525.0896209999919,525.0959020000009,525.0959020000009,525.0959020000009,531.7460622999934,Objects\383b.jpg,mid,s,6.646641700004693,None,,,,,,,,00040,001,2026-01-17_15h41.52.844,MST_test,2024.2.0,59.9522899672833,2026-01-17 15h42.04.006133 +0530,
127,0,128,o,1.0474634999991395,None,128,0,127,531.7621734999993,,,,,,,,,,,,,,,,,,,,,,,,,,,,,,,,,,,,,,,,,,,,,,,,,,531.7461529000138,531.7621734999993,532.2626409000077,532.2457974000135,532.2495376000006,532.2626409000077,532.2626409000077,532.2626409000077,533.3127325999958,Objects\267a.jpg,mid,o,1.0474634999991395,None,,,,,,,,00040,001,2026-01-17_15h41.52.844,MST_test,2024.2.0,59.9522899672833,2026-01-17 15h42.04.006133 +0530,
128,0,129,o,0.9047905000043102,None,129,0,128,533.3288067000103,,,,,,,,,,,,,,,,,,,,,,,,,,,,,,,,,,,,,,,,,,,,,,,,,,533.3128227000125,533.3288067000103,533.8291165000119,533.8125418999989,533.8161568999931,533.8291165000119,533.8291165000119,533.8291165000119,534.7463690000004,Objects\336a.jpg,pre,o,0.9047905000043102,None,,,,,,,,00040,001,2026-01-17_15h41.52.844,MST_test,2024.2.0,59.9522899672833,2026-01-17 15h42.04.006133 +0530,
129,0,130,s,2.0722130999783985,None,130,0,129,534.7621729999955,,,,,,,,,,,,,,,,,,,,,,,,,,,,,,,,,,,,,,,,,,,,,,,,,,534.7464586000133,534.7621729999955,535.2625461000134,535.2457248000137,535.2487409999885,535.2625461000134,535.2625461000134,535.2625461000134,537.3463483999949,Objects\272a.jpg,mid,s,2.0722130999783985,None,,,,,,,,00040,001,2026-01-17_15h41.52.844,MST_test,2024.2.0,59.9522899672833,2026-01-17 15h42.04.006133 +0530,
130,0,131,n,3.6001008999883197,None,131,0,130,537.3622873999993,,,,,,,,,,,,,,,,,,,,,,,,,,,,,,,,,,,,,,,,,,,,,,,,,,537.346454100014,537.3622873999993,537.8625261000125,537.8457655000093,537.8490991999861,537.8625261000125,537.8625261000125,537.8625261000125,541.4791713999875,Foils\066a.jpg,none,n,3.6001008999883197,None,,,,,,,,00040,001,2026-01-17_15h41.52.844,MST_test,2024.2.0,59.9522899672833,2026-01-17 15h42.04.006133 +0530,
131,0,132,o,2.003851100016618,None,132,0,131,541.4955366000067,,,,,,,,,,,,,,,,,,,,,,,,,,,,,,,,,,,,,,,,,,,,,,,,,,541.4792612000019,541.4955366000067,541.9958049000124,541.9790726999927,541.9890257999941,541.9958049000124,541.9958049000124,541.9958049000124,544.0126670000027,Objects\076b.jpg,mid,o,2.003851100016618,None,,,,,,,,00040,001,2026-01-17_15h41.52.844,MST_test,2024.2.0,59.9522899672833,2026-01-17 15h42.04.006133 +0530,
132,0,133,n,1.5019533000013325,None,133,0,132,544.0287943999865,,,,,,,,,,,,,,,,,,,,,,,,,,,,,,,,,,,,,,,,,,,,,,,,,,544.0127576999948,544.0287943999865,544.5289308000065,544.5124424000096,544.5151274999953,544.5289308000065,544.5289308000065,544.5289308000065,546.0460923000064,Foils\033a.jpg,none,n,1.5019533000013325,None,,,,,,,,00040,001,2026-01-17_15h41.52.844,MST_test,2024.2.0,59.9522899672833,2026-01-17 15h42.04.006133 +0530,
133,0,134,o,1.8759632000001147,None,134,0,133,546.0621507999895,,,,,,,,,,,,,,,,,,,,,,,,,,,,,,,,,,,,,,,,,,,,,,,,,,546.0461809000117,546.0621507999895,546.5624118999986,546.5457803999889,546.5482154999918,546.5624118999986,546.5624118999986,546.5624118999986,548.4460718999908,Objects\252a.jpg,post,o,1.8759632000001147,None,,,,,,,,00040,001,2026-01-17_15h41.52.844,MST_test,2024.2.0,59.9522899672833,2026-01-17 15h42.04.006133 +0530,
134,0,135,o,1.0600908999913372,None,135,0,134,548.4621989000007,,,,,,,,,,,,,,,,,,,,,,,,,,,,,,,,,,,,,,,,,,,,,,,,,,548.44617380001,548.4621989000007,548.9623383000144,548.9457581999886,548.9482787000015,548.9623383000144,548.9623383000144,548.9623383000144,550.0293373999884,Objects\081a.jpg,pre,o,1.0600908999913372,None,,,,,,,,00040,001,2026-01-17_15h41.52.844,MST_test,2024.2.0,59.9522899672833,2026-01-17 15h42.04.006133 +0530,
135,0,136,n,3.429045800003223,None,136,0,135,550.0455098999955,,,,,,,,,,,,,,,,,,,,,,,,,,,,,,,,,,,,,,,,,,,,,,,,,,550.0294340999972,550.0455098999955,550.5457207,550.5290002000111,550.5314612000075,550.5457207,550.5457207,550.5457207,553.9793938999937,Foils\018a.jpg,none,n,3.429045800003223,None,,,,,,,,00040,001,2026-01-17_15h41.52.844,MST_test,2024.2.0,59.9522899672833,2026-01-17 15h42.04.006133 +0530,
136,0,137,s,2.19856940000318,None,137,0,136,553.9955708000052,,,,,,,,,,,,,,,,,,,,,,,,,,,,,,,,,,,,,,,,,,,,,,,,,,553.9794921000139,553.9955708000052,554.4957532999979,554.4788762000098,554.4882326000079,554.4957532999979,554.4957532999979,554.4957532999979,556.6960608999943,Objects\109b.jpg,post,s,2.19856940000318,None,,,,,,,,00040,001,2026-01-17_15h41.52.844,MST_test,2024.2.0,59.9522899672833,2026-01-17 15h42.04.006133 +0530,
137,0,138,n,1.8417635000078008,None,138,0,137,556.712191300001,,,,,,,,,,,,,,,,,,,,,,,,,,,,,,,,,,,,,,,,,,,,,,,,,,556.6961525999941,556.712191300001,557.2125366000109,557.1957188000088,557.2001091999991,557.2125366000109,557.2125366000109,557.2125366000109,559.0627634999983,Objects\231b.jpg,pre,n,1.8417635000078008,None,,,,,,,,00040,001,2026-01-17_15h41.52.844,MST_test,2024.2.0,59.9522899672833,2026-01-17 15h42.04.006133 +0530,
138,0,139,o,1.1791928999882657,None,139,0,138,559.0787300000084,,,,,,,,,,,,,,,,,,,,,,,,,,,,,,,,,,,,,,,,,,,,,,,,,,559.0628563000064,559.0787300000084,559.5792060999956,559.5624505000014,559.5661044000008,559.5792060999956,559.5792060999956,559.5792060999956,560.7628401000111,Objects\160a.jpg,pre,o,1.1791928999882657,None,,,,,,,,00040,001,2026-01-17_15h41.52.844,MST_test,2024.2.0,59.9522899672833,2026-01-17 15h42.04.006133 +0530,
139,0,140,n,1.495648700016318,None,140,0,139,560.7787972000078,,,,,,,,,,,,,,,,,,,,,,,,,,,,,,,,,,,,,,,,,,,,,,,,,,560.7629293999926,560.7787972000078,561.279051999998,561.2627459999931,561.265379599994,561.279051999998,561.279051999998,561.279051999998,562.7793004999985,Foils\121a.jpg,none,n,1.495648700016318,None,,,,,,,,00040,001,2026-01-17_15h41.52.844,MST_test,2024.2.0,59.9522899672833,2026-01-17 15h42.04.006133 +0530,
140,0,141,o,1.167148400010774,None,141,0,140,562.7955274000124,,,,,,,,,,,,,,,,,,,,,,,,,,,,,,,,,,,,,,,,,,,,,,,,,,562.7793896000076,562.7955274000124,563.2959409999894,563.278994399996,563.2891193999967,563.2959409999894,563.2959409999894,563.2959409999894,564.4795413000102,Objects\199b.jpg,mid,o,1.167148400010774,None,,,,,,,,00040,001,2026-01-17_15h41.52.844,MST_test,2024.2.0,59.9522899672833,2026-01-17 15h42.04.006133 +0530,
141,0,142,n,3.962723199976608,None,142,0,141,564.4955830000108,,,,,,,,,,,,,,,,,,,,,,,,,,,,,,,,,,,,,,,,,,,,,,,,,,564.479639600002,564.4955830000108,564.9959131999931,564.9791274000017,564.9820892999996,564.9959131999931,564.9959131999931,564.9959131999931,568.9629705999978,Foils\101b.jpg,none,n,3.962723199976608,None,,,,,,,,00040,001,2026-01-17_15h41.52.844,MST_test,2024.2.0,59.9522899672833,2026-01-17 15h42.04.006133 +0530,
142,0,143,o,1.3683038000017405,None,143,0,142,568.978721499996,,,,,,,,,,,,,,,,,,,,,,,,,,,,,,,,,,,,,,,,,,,,,,,,,,568.9630658999959,568.978721499996,569.4791982999886,569.4625702000048,569.4654906000069,569.4791982999886,569.4791982999886,569.4791982999886,570.8628483999928,Objects\195a.jpg,mid,o,1.3683038000017405,None,,,,,,,,00040,001,2026-01-17_15h41.52.844,MST_test,2024.2.0,59.9522899672833,2026-01-17 15h42.04.006133 +0530,
143,0,144,n,2.2439518999890424,None,144,0,143,570.8787577000039,,,,,,,,,,,,,,,,,,,,,,,,,,,,,,,,,,,,,,,,,,,,,,,,,,570.8629407999979,570.8787577000039,571.379158900003,571.3624175000004,571.3645101999864,571.379158900003,571.379158900003,571.379158900003,573.6297582999978,Foils\f7.jpg,none,n,2.2439518999890424,None,,,,,,,,00040,001,2026-01-17_15h41.52.844,MST_test,2024.2.0,59.9522899672833,2026-01-17 15h42.04.006133 +0530,
144,0,145,n,2.212142300006235,None,145,0,144,573.6455923999893,,,,,,,,,,,,,,,,,,,,,,,,,,,,,,,,,,,,,,,,,,,,,,,,,,573.629860999994,573.6455923999893,574.1457940000109,574.1290494000132,574.1405126999889,574.1457940000109,574.1457940000109,574.1457940000109,576.3627510000078,Objects\071b.jpg,mid,n,2.212142300006235,None,,,,,,,,00040,001,2026-01-17_15h41.52.844,MST_test,2024.2.0,59.9522899672833,2026-01-17 15h42.04.006133 +0530,
145,0,146,o,1.6151490999909583,None,146,0,145,576.3787477999867,,,,,,,,,,,,,,,,,,,,,,,,,,,,,,,,,,,,,,,,,,,,,,,,,,576.3628424000053,576.3787477999867,576.8791254000098,576.8624273999885,576.8723527000111,576.8791254000098,576.8791254000098,576.8791254000098,578.4961710000061,Objects\297b.jpg,post,o,1.6151490999909583,None,,,,,,,,00040,001,2026-01-17_15h41.52.844,MST_test,2024.2.0,59.9522899672833,2026-01-17 15h42.04.006133 +0530,
146,0,147,o,1.0585506999923382,None,147,0,146,578.5121973000059,,,,,,,,,,,,,,,,,,,,,,,,,,,,,,,,,,,,,,,,,,,,,,,,,,578.4962743000069,578.5121973000059,579.0125424000144,578.9957626000105,578.9989867999975,579.0125424000144,579.0125424000144,579.0125424000144,580.0794687999878,Objects\043a.jpg,mid,o,1.0585506999923382,None,,,,,,,,00040,001,2026-01-17_15h41.52.844,MST_test,2024.2.0,59.9522899672833,2026-01-17 15h42.04.006133 +0530,
147,0,148,s,1.62625040000421,None,148,0,147,580.095539300004,,,,,,,,,,,,,,,,,,,,,,,,,,,,,,,,,,,,,,,,,,,,,,,,,,580.0795602000144,580.095539300004,580.5957352000114,580.579044699989,580.5814139999857,580.5957352000114,580.5957352000114,580.5957352000114,582.2293447999982,Objects\106a.jpg,pre,s,1.62625040000421,None,,,,,,,,00040,001,2026-01-17_15h41.52.844,MST_test,2024.2.0,59.9522899672833,2026-01-17 15h42.04.006133 +0530,
148,0,149,s,1.5081462999805808,None,149,0,148,582.2455421999912,,,,,,,,,,,,,,,,,,,,,,,,,,,,,,,,,,,,,,,,,,,,,,,,,,582.2294416000077,582.2455421999912,582.7458480999921,582.7291035999951,582.7312676000001,582.7458480999921,582.7458480999921,582.7458480999921,584.2627414999879,Objects\356b.jpg,post,s,1.5081462999805808,None,,,,,,,,00040,001,2026-01-17_15h41.52.844,MST_test,2024.2.0,59.9522899672833,2026-01-17 15h42.04.006133 +0530,
149,0,150,s,2.3957286000077147,None,150,0,149,584.2788022999885,,,,,,,,,,,,,,,,,,,,,,,,,,,,,,,,,,,,,,,,,,,,,,,,,,584.2628324000107,584.2788022999885,584.7791932999971,584.7625337000063,584.7654011000122,584.7791932999971,584.7791932999971,584.7791932999971,587.1792647000111,Objects\138b.jpg,mid,s,2.3957286000077147,None,,,,,,,,00040,001,2026-01-17_15h41.52.844,MST_test,2024.2.0,59.9522899672833,2026-01-17 15h42.04.006133 +0530,
,,,,,,,,,,,,,,,,,,,,,,,,,,,,,,,,,,,,,,,,,,,,,,,,,,,,,,,,,,,,,,,,,,,,,,,,,587.1793255000084,587.1955663000117,587.1955663000117,631.5961942999857,space,44.386625899991486,None,00040,001,2026-01-17_15h41.52.844,MST_test,2024.2.0,59.9522899672833,2026-01-17 15h42.04.006133 +0530,
