Sl_no,image_path,thisN,thisTrialN,thisRepN,key_resp_5.keys,key_resp_7.keys,key_resp_7.rt,key_resp_7.duration,key_resp_5.rt,key_resp_5.duration,key_resp_9.keys,key_resp_9.rt,key_resp_9.duration,key_resp_8.keys,key_resp_8.rt,key_resp_8.duration,practice.thisRepN,practice.thisTrialN,practice.thisN,trials.thisRepN,trials.thisTrialN,trials.thisN,thisRow.t,notes,welcome_page.started,text.started,key_resp.started,welcome_page.stopped,key_resp.keys,key_resp.rt,key_resp.duration,instructions.started,ins.started,key_resp_2.started,instructions.stopped,key_resp_2.keys,key_resp_2.rt,key_resp_2.duration,objects_only_instruction.started,text_3.started,key_resp_3.started,objects_only_instruction.stopped,key_resp_3.keys,key_resp_3.rt,key_resp_3.duration,ISI.started,text_4.started,ISI.stopped,practice_block.started,image.started,key_resp_5.started,text_5.started,practice_block.stopped,practice.key_resp_5.keys,indoor_outdoor.started,text_7.started,key_resp_7.started,indoor_outdoor.stopped,practice.key_resp_7.keys,practice.key_resp_7.rt,practice.key_resp_7.duration,text_4.stopped,image.stopped,key_resp_5.stopped,text_5.stopped,practice.key_resp_5.rt,practice.key_resp_5.duration,practice_to_main.started,text_2.started,key_resp_4.started,practice_to_main.stopped,key_resp_4.keys,key_resp_4.rt,key_resp_4.duration,objects.started,image_2.started,text_9.started,key_resp_9.started,objects.stopped,category,trials.key_resp_9.keys,trials.key_resp_9.rt,trials.key_resp_9.duration,encoding_task.started,encoding_task.stopped,trials.key_resp_8.keys,image_2.stopped,text_9.stopped,key_resp_9.stopped,text_8.started,key_resp_8.started,trials.key_resp_8.rt,trials.key_resp_8.duration,end_experiment.started,text_6.started,key_resp_6.started,end_experiment.stopped,key_resp_6.keys,key_resp_6.rt,key_resp_6.duration,list_of_stimuli,encoding_task_accuracy,participant,session,date,expName,psychopyVersion,frameRate,expStart,
,,,,,,,,,,,,,,,,,,,,,,,,,0.0012439999845810235,0.00410110002849251,0.00410110002849251,16.30353340000147,space,16.24080369999865,None,,,,,,,,,,,,,,,,,,,,,,,,,,,,,,,,,,,,,,,,,,,,,,,,,,,,,,,,,,,,,,,,,,,,,,,,00045,001,2026-01-18_10h35.39.680,MST_task,2024.2.0,59.83548829571322,2026-01-18 10h35.54.433386 +0530,
,,,,,,,,,,,,,,,,,,,,,,,,,,,,,,,,16.303573600016534,16.314326899999287,16.314326899999287,41.675113299977966,space,25.346893100009765,None,,,,,,,,,,,,,,,,,,,,,,,,,,,,,,,,,,,,,,,,,,,,,,,,,,,,,,,,,,,,,,,,,00045,001,2026-01-18_10h35.39.680,MST_task,2024.2.0,59.83548829571322,2026-01-18 10h35.54.433386 +0530,
,,,,,,,,,,,,,,,,,,,,,,,,,,,,,,,,,,,,,,,41.67514810001012,41.691028799978085,41.691028799978085,51.108514600025956,space,9.409953300026245,None,,,,,,,,,,,,,,,,,,,,,,,,,,,,,,,,,,,,,,,,,,,,,,,,,,,,,,,,,,00045,001,2026-01-18_10h35.39.680,MST_task,2024.2.0,59.83548829571322,2026-01-18 10h35.54.433386 +0530,
4,practice_images/002b.jpg,0,0,1,None,f,0.7875509000150487,None,,,,,,,,,1,0,0,,,,51.13036800001282,,,,,,,,,,,,,,,,,,,,,,,51.12825240002712,51.13036800001282,51.6245982000255,51.640269000025,51.652250199986156,51.652250199986156,51.652250199986156,54.62497170001734,None,54.62670329998946,54.641226699983235,54.641226699983235,55.441853300028015,f,0.7875509000150487,None,,,,,,,,,,,,,,,,,,,,,,,,,,,,,,,,,,,,,,,,,,00045,001,2026-01-18_10h35.39.680,MST_task,2024.2.0,59.83548829571322,2026-01-18 10h35.54.433386 +0530,
9,practice_images/180a.jpg,1,1,1,f,None,,,1.6943253999925219,0.19950089999474585,,,,,,,1,1,1,,,,55.45783269999083,,,,,,,,,,,,,,,,,,,,,,,55.44193979998818,55.45783269999083,55.94145500002196,55.95007020002231,55.95813250000356,55.95813250000356,55.95813250000356,58.941668200015556,f,58.94170419999864,,,58.94171629997436,None,,,55.95813250000356,58.95791649998864,58.95791649998864,58.95791649998864,1.6943253999925219,0.19950089999474585,,,,,,,,,,,,,,,,,,,,,,,,,,,,,,,,,,,,00045,001,2026-01-18_10h35.39.680,MST_task,2024.2.0,59.83548829571322,2026-01-18 10h35.54.433386 +0530,
2,practice_images/031a.jpg,2,2,1,f,None,,,2.1139261999633163,0.20910490001551807,,,,,,,1,2,2,,,,58.95791649998864,,,,,,,,,,,,,,,,,,,,,,,58.9417782999808,58.95791649998864,59.441478200023994,59.45012829999905,59.45811050001066,59.45811050001066,59.45811050001066,62.44156419998035,f,62.4416016000323,,,62.441613300004974,None,,,59.45811050001066,62.457968799979426,62.457968799979426,62.457968799979426,2.1139261999633163,0.20910490001551807,,,,,,,,,,,,,,,,,,,,,,,,,,,,,,,,,,,,00045,001,2026-01-18_10h35.39.680,MST_task,2024.2.0,59.83548829571322,2026-01-18 10h35.54.433386 +0530,
6,practice_images/158a.jpg,3,3,1,j,None,,,1.1578414000105113,0.2559272000216879,,,,,,,1,3,3,,,,62.457968799979426,,,,,,,,,,,,,,,,,,,,,,,62.44167390000075,62.457968799979426,62.94156930001918,62.950092100014444,62.95815110002877,62.95815110002877,62.95815110002877,65.94156649999786,j,65.9416095999768,,,65.94162260001758,None,,,62.95815110002877,65.95782750000944,65.95782750000944,65.95782750000944,1.1578414000105113,0.2559272000216879,,,,,,,,,,,,,,,,,,,,,,,,,,,,,,,,,,,,00045,001,2026-01-18_10h35.39.680,MST_task,2024.2.0,59.83548829571322,2026-01-18 10h35.54.433386 +0530,
10,practice_images/182a.jpg,4,4,1,f,None,,,1.4667237999965437,0.21821980003733188,,,,,,,1,4,4,,,,65.95782750000944,,,,,,,,,,,,,,,,,,,,,,,65.94168729998637,65.95782750000944,66.44148989999667,66.45010140002705,66.45817009999882,66.45817009999882,66.45817009999882,69.44171949999873,f,69.44175609998638,,,69.44176750001498,None,,,66.45817009999882,69.45794069999829,69.45794069999829,69.45794069999829,1.4667237999965437,0.21821980003733188,,,,,,,,,,,,,,,,,,,,,,,,,,,,,,,,,,,,00045,001,2026-01-18_10h35.39.680,MST_task,2024.2.0,59.83548829571322,2026-01-18 10h35.54.433386 +0530,
5,practice_images/139a.jpg,5,5,1,None,j,0.6544911999953911,None,,,,,,,,,1,5,5,,,,69.45794069999829,,,,,,,,,,,,,,,,,,,,,,,69.44182830001228,69.45794069999829,69.94153800001368,69.9530861999956,69.95791200001258,69.95791200001258,69.95791200001258,72.94173339998815,None,72.94390549999662,72.958011300012,72.958011300012,73.62501519999932,j,0.6544911999953911,None,69.95791200001258,72.958011300012,72.958011300012,72.958011300012,,,,,,,,,,,,,,,,,,,,,,,,,,,,,,,,,,,,,,00045,001,2026-01-18_10h35.39.680,MST_task,2024.2.0,59.83548829571322,2026-01-18 10h35.54.433386 +0530,
8,practice_images/178a.jpg,6,6,1,None,f,0.07141759997466579,None,,,,,,,,,1,6,6,,,,73.64127449999796,,,,,,,,,,,,,,,,,,,,,,,73.62509839999257,73.64127449999796,74.12484230002156,74.13360010000179,74.14131570002064,74.14131570002064,74.14131570002064,77.12498590000905,None,77.12501840002369,77.14118299999973,77.14118299999973,77.2251258000033,f,0.07141759997466579,None,74.14131570002064,77.14118299999973,77.14118299999973,77.14118299999973,,,,,,,,,,,,,,,,,,,,,,,,,,,,,,,,,,,,,,00045,001,2026-01-18_10h35.39.680,MST_task,2024.2.0,59.83548829571322,2026-01-18 10h35.54.433386 +0530,
1,practice_images/013a.jpg,7,7,1,j,None,,,1.9587217000080273,0.2080087999929674,,,,,,,1,7,7,,,,77.24131880002096,,,,,,,,,,,,,,,,,,,,,,,77.22520390001591,77.24131880002096,77.7248328999849,77.73315789998742,77.74132680002367,77.74132680002367,77.74132680002367,80.7248786999844,j,80.7249201000086,,,80.72493289998965,None,,,77.74132680002367,80.74111509998329,80.74111509998329,80.74111509998329,1.9587217000080273,0.2080087999929674,,,,,,,,,,,,,,,,,,,,,,,,,,,,,,,,,,,,00045,001,2026-01-18_10h35.39.680,MST_task,2024.2.0,59.83548829571322,2026-01-18 10h35.54.433386 +0530,
3,practice_images/037a.jpg,8,8,1,j,None,,,1.9311862000031397,0.24007820000406355,,,,,,,1,8,8,,,,80.74111509998329,,,,,,,,,,,,,,,,,,,,,,,80.72499429999152,80.74111509998329,81.22486050002044,81.23374990001321,81.24137010000413,81.24137010000413,81.24137010000413,84.22496159997536,j,84.22499960003188,,,84.22501200000988,None,,,81.24137010000413,84.24102439999115,84.24102439999115,84.24102439999115,1.9311862000031397,0.24007820000406355,,,,,,,,,,,,,,,,,,,,,,,,,,,,,,,,,,,,00045,001,2026-01-18_10h35.39.680,MST_task,2024.2.0,59.83548829571322,2026-01-18 10h35.54.433386 +0530,
7,practice_images/166a.jpg,9,9,1,None,j,0.7364932000054978,None,,,,,,,,,1,9,9,,,,84.24102439999115,,,,,,,,,,,,,,,,,,,,,,,84.22508499998366,84.24102439999115,84.72484749997966,84.73334239999531,84.74148109997623,84.74148109997623,84.74148109997623,87.72498820000328,None,87.72503179998603,87.74122899997747,87.74122899997747,88.49152709997725,j,0.7364932000054978,None,84.74148109997623,87.74122899997747,87.74122899997747,87.74122899997747,,,,,,,,,,,,,,,,,,,,,,,,,,,,,,,,,,,,,,00045,001,2026-01-18_10h35.39.680,MST_task,2024.2.0,59.83548829571322,2026-01-18 10h35.54.433386 +0530,
,,,,,,,,,,,,,,,,,,,,,,,,,,,,,,,,,,,,,,,,,,,,,,,,,,,,,,,,,,,,,,,,,,,,88.49158969998825,88.50782639998943,88.50782639998943,129.90830850001657,space,41.384906899998896,None,,,,,,,,,,,,,,,,,,,,,,,,,,,,,00045,001,2026-01-18_10h35.39.680,MST_task,2024.2.0,59.83548829571322,2026-01-18 10h35.54.433386 +0530,
,Objects\015a.jpg,0,0,1,,,,,,,j,1.7562298999982886,0.15909900004044175,None,,,,,,1,0,0,129.9245411999873,,,,,,,,,,,,,,,,,,,,,,,129.90897819999373,129.9245411999873,130.408149600029,,,,,,,,,,,,,,130.43279950000579,,,,,,,,,,,,,130.42944590002298,130.43279950000579,130.43279950000579,130.43279950000579,133.42475110001396,shoe,j,1.7562298999982886,0.15909900004044175,133.4273577000131,133.42738030001055,None,,,,,,,,,,,,,,,,,00045,001,2026-01-18_10h35.39.680,MST_task,2024.2.0,59.83548829571322,2026-01-18 10h35.54.433386 +0530,
,Objects\173a.jpg,1,0,2,,,,,,,f,2.2713109999895096,0.2634777000057511,None,,,,,,2,0,1,133.44121050002286,,,,,,,,,,,,,,,,,,,,,,,133.42748920002487,133.44121050002286,133.92470929998672,,,,,,,,,,,,,,133.94129879999673,,,,,,,,,,,,,133.93480180000188,133.94129879999673,133.94129879999673,133.94129879999673,136.92532129999017,shoe,f,2.2713109999895096,0.2634777000057511,136.92536529997597,136.92537750001065,None,136.94114549999358,136.94114549999358,136.94114549999358,,,,,,,,,,,,,,00045,001,2026-01-18_10h35.39.680,MST_task,2024.2.0,59.83548829571322,2026-01-18 10h35.54.433386 +0530,
,Objects\263a.jpg,2,0,3,,,,,,,j,1.4190971999778412,0.26394830003846437,None,,,,,,3,0,2,136.94114549999358,,,,,,,,,,,,,,,,,,,,,,,136.92547299998114,136.94114549999358,137.42480500001693,,,,,,,,,,,,,,137.44162090000464,,,,,,,,,,,,,137.438178899989,137.44162090000464,137.44162090000464,137.44162090000464,140.4251872000168,shoe,j,1.4190971999778412,0.26394830003846437,140.4252333000186,140.42524589999812,None,140.44107499998063,140.44107499998063,140.44107499998063,,,,,,,,,,,,,,00045,001,2026-01-18_10h35.39.680,MST_task,2024.2.0,59.83548829571322,2026-01-18 10h35.54.433386 +0530,
,Objects\382a.jpg,3,0,4,,,,,,,j,2.1517146000405774,0.26344819995574653,None,,,,,,4,0,3,140.44107499998063,,,,,,,,,,,,,,,,,,,,,,,140.4253538000048,140.44107499998063,140.92495289997896,,,,,,,,,,,,,,140.94144730002154,,,,,,,,,,,,,140.93773740000324,140.94144730002154,140.94144730002154,140.94144730002154,143.92517340002814,shoe,j,2.1517146000405774,0.26344819995574653,143.92521549999947,143.92522660002578,None,143.9413125999854,143.9413125999854,143.9413125999854,,,,,,,,,,,,,,00045,001,2026-01-18_10h35.39.680,MST_task,2024.2.0,59.83548829571322,2026-01-18 10h35.54.433386 +0530,
,Objects\021a.jpg,4,0,5,,,,,,,None,,,j,0.14752350002527237,None,,,,5,0,4,143.9413125999854,,,,,,,,,,,,,,,,,,,,,,,143.92529039998772,143.9413125999854,144.4248779999907,,,,,,,,,,,,,,144.44178900000406,,,,,,,,,,,,,144.43575320002856,144.44178900000406,144.44178900000406,144.44178900000406,147.4251425000257,shoe,None,,,147.42518090002704,147.59156720002647,j,147.44133489998057,147.44133489998057,147.44133489998057,147.44133489998057,147.44133489998057,0.14752350002527237,None,,,,,,,,,,00045,001,2026-01-18_10h35.39.680,MST_task,2024.2.0,59.83548829571322,2026-01-18 10h35.54.433386 +0530,
,Objects\259a.jpg,5,0,6,,,,,,,j,1.3532810999895446,0.26231110002845526,None,,,,,,6,0,5,147.60787609999534,,,,,,,,,,,,,,,,,,,,,,,147.59166249999544,147.60787609999534,148.09162010002183,,,,,,,,,,,,,,148.10837640002137,,,,,,,,,,,,,148.10253730003024,148.10837640002137,148.10837640002137,148.10837640002137,151.09173649997683,shoe,j,1.3532810999895446,0.26231110002845526,151.0917793000117,151.09179109998513,None,151.10798969998723,151.10798969998723,151.10798969998723,,,,,,,,,,,,,,00045,001,2026-01-18_10h35.39.680,MST_task,2024.2.0,59.83548829571322,2026-01-18 10h35.54.433386 +0530,
,Objects\296a.jpg,6,0,7,,,,,,,j,1.3964911999646574,0.2631538000423461,None,,,,,,7,0,6,151.10798969998723,,,,,,,,,,,,,,,,,,,,,,,151.0918548000045,151.10798969998723,151.59161800000584,,,,,,,,,,,,,,151.6084774999763,,,,,,,,,,,,,151.6018789000227,151.6084774999763,151.6084774999763,151.6084774999763,154.59196440002415,shoe,j,1.3964911999646574,0.2631538000423461,154.59202059998643,154.59203280002112,None,154.6079926000093,154.6079926000093,154.6079926000093,,,,,,,,,,,,,,00045,001,2026-01-18_10h35.39.680,MST_task,2024.2.0,59.83548829571322,2026-01-18 10h35.54.433386 +0530,
,Objects\042a.jpg,7,0,8,,,,,,,f,2.4558550999499857,0.29678480001166463,None,,,,,,8,0,7,154.6079926000093,,,,,,,,,,,,,,,,,,,,,,,154.59210290003102,154.6079926000093,155.09148760000244,,,,,,,,,,,,,,155.1082342999871,,,,,,,,,,,,,155.10496670001885,155.1082342999871,155.1082342999871,155.1082342999871,158.09173619997455,indoor,f,2.4558550999499857,0.29678480001166463,158.09338330000173,158.09339990001172,None,158.10801999998512,158.10801999998512,158.10801999998512,,,,,,,,,,,,,,00045,001,2026-01-18_10h35.39.680,MST_task,2024.2.0,59.83548829571322,2026-01-18 10h35.54.433386 +0530,
,Objects\258a.jpg,8,0,9,,,,,,,f,2.0515709000173956,0.264877500012517,None,,,,,,9,0,8,158.10801999998512,,,,,,,,,,,,,,,,,,,,,,,158.0934675000026,158.10801999998512,158.59148290002486,,,,,,,,,,,,,,158.60833459999412,,,,,,,,,,,,,158.6014152999851,158.60833459999412,158.60833459999412,158.60833459999412,161.5918131999788,indoor,f,2.0515709000173956,0.264877500012517,161.591860799992,161.5918727000244,None,161.60789990000194,161.60789990000194,161.60789990000194,,,,,,,,,,,,,,00045,001,2026-01-18_10h35.39.680,MST_task,2024.2.0,59.83548829571322,2026-01-18 10h35.54.433386 +0530,
,Objects\243a.jpg,9,0,10,,,,,,,f,1.8004440999939106,0.2880868000211194,None,,,,,,10,0,9,161.60789990000194,,,,,,,,,,,,,,,,,,,,,,,161.59193910000613,161.60789990000194,162.09170910000103,,,,,,,,,,,,,,162.10822900000494,,,,,,,,,,,,,162.1026700999937,162.10822900000494,162.10822900000494,162.10822900000494,165.09174709999934,indoor,f,1.8004440999939106,0.2880868000211194,165.09179059998132,165.09180200000992,None,165.10799689998385,165.10799689998385,165.10799689998385,,,,,,,,,,,,,,00045,001,2026-01-18_10h35.39.680,MST_task,2024.2.0,59.83548829571322,2026-01-18 10h35.54.433386 +0530,
,Objects\119a.jpg,10,0,11,,,,,,,f,2.0201516000088304,0.28746620001038536,None,,,,,,11,0,10,165.10799689998385,,,,,,,,,,,,,,,,,,,,,,,165.09186759998556,165.10799689998385,165.591579800006,,,,,,,,,,,,,,165.6084805999999,,,,,,,,,,,,,165.6021096999757,165.6084805999999,165.6084805999999,165.6084805999999,168.59169869998004,indoor,f,2.0201516000088304,0.28746620001038536,168.5917431000271,168.591754699999,None,168.60799300001236,168.60799300001236,168.60799300001236,,,,,,,,,,,,,,00045,001,2026-01-18_10h35.39.680,MST_task,2024.2.0,59.83548829571322,2026-01-18 10h35.54.433386 +0530,
,Objects\208a.jpg,11,0,12,,,,,,,f,2.9124258999945596,None,None,,,,,,12,0,11,168.60799300001236,,,,,,,,,,,,,,,,,,,,,,,168.5918199000298,168.60799300001236,169.09162239998113,,,,,,,,,,,,,,169.10825170000317,,,,,,,,,,,,,169.10136159998365,169.10825170000317,169.10825170000317,169.10825170000317,172.09162439999636,indoor,f,2.9124258999945596,None,172.09166710003046,172.09167870000238,None,172.10786859999644,172.10786859999644,172.10786859999644,,,,,,,,,,,,,,00045,001,2026-01-18_10h35.39.680,MST_task,2024.2.0,59.83548829571322,2026-01-18 10h35.54.433386 +0530,
,Objects\051a.jpg,12,0,13,,,,,,,None,,,f,0.6291923000244424,None,,,,13,0,12,172.10786859999644,,,,,,,,,,,,,,,,,,,,,,,172.09174220002024,172.10786859999644,172.59141049999744,,,,,,,,,,,,,,172.6082697000238,,,,,,,,,,,,,172.60187589999987,172.6082697000238,172.6082697000238,172.6082697000238,175.59193380002398,indoor,None,,,175.5919763999991,176.24156480003148,f,175.60786440002266,175.60786440002266,175.60786440002266,175.60786440002266,175.60786440002266,0.6291923000244424,None,,,,,,,,,,00045,001,2026-01-18_10h35.39.680,MST_task,2024.2.0,59.83548829571322,2026-01-18 10h35.54.433386 +0530,
,Objects\180a.jpg,13,0,14,,,,,,,f,1.1985190999694169,0.22392150002997369,None,,,,,,14,0,13,176.25784969999222,,,,,,,,,,,,,,,,,,,,,,,176.24165240000002,176.25784969999222,176.74139490001835,,,,,,,,,,,,,,176.75821759999963,,,,,,,,,,,,,176.75125660002232,176.75821759999963,176.75821759999963,176.75821759999963,179.74162899999646,indoor,f,1.1985190999694169,0.22392150002997369,179.74167309998302,179.74168560002,None,179.75792679999722,179.75792679999722,179.75792679999722,,,,,,,,,,,,,,00045,001,2026-01-18_10h35.39.680,MST_task,2024.2.0,59.83548829571322,2026-01-18 10h35.54.433386 +0530,
,Objects\046a.jpg,14,0,15,,,,,,,None,,,j,0.5148718999698758,None,,,,15,0,14,179.75792679999722,,,,,,,,,,,,,,,,,,,,,,,179.7417518000002,179.75792679999722,180.24143170000752,,,,,,,,,,,,,,180.2581067000283,,,,,,,,,,,,,180.25363789999392,180.2581067000283,180.2581067000283,180.2581067000283,183.24188490002416,shoe,None,,,183.24403240001993,183.77504899998894,j,183.2578441000078,183.2578441000078,183.2578441000078,183.2578441000078,183.2578441000078,0.5148718999698758,None,,,,,,,,,,00045,001,2026-01-18_10h35.39.680,MST_task,2024.2.0,59.83548829571322,2026-01-18 10h35.54.433386 +0530,
,Objects\082a.jpg,15,0,16,,,,,,,j,1.592590200016275,0.2402136999880895,None,,,,,,16,0,15,183.7910393999773,,,,,,,,,,,,,,,,,,,,,,,183.7751416999963,183.7910393999773,184.2748666999978,,,,,,,,,,,,,,184.29140390001703,,,,,,,,,,,,,184.28462849999778,184.29140390001703,184.29140390001703,184.29140390001703,187.2751425000024,shoe,j,1.592590200016275,0.2402136999880895,187.27518639998743,187.2751992000267,None,187.29109830001835,187.29109830001835,187.29109830001835,,,,,,,,,,,,,,00045,001,2026-01-18_10h35.39.680,MST_task,2024.2.0,59.83548829571322,2026-01-18 10h35.54.433386 +0530,
,Objects\290a.jpg,16,0,17,,,,,,,j,1.756659500009846,0.2090254999930039,None,,,,,,17,0,16,187.29109830001835,,,,,,,,,,,,,,,,,,,,,,,187.27529520000098,187.29109830001835,187.77482059999602,,,,,,,,,,,,,,187.79154710000148,,,,,,,,,,,,,187.7864322999958,187.79154710000148,187.79154710000148,187.79154710000148,190.7750557999825,shoe,j,1.756659500009846,0.2090254999930039,190.7750983000151,190.77511049999157,None,190.7910821000114,190.7910821000114,190.7910821000114,,,,,,,,,,,,,,00045,001,2026-01-18_10h35.39.680,MST_task,2024.2.0,59.83548829571322,2026-01-18 10h35.54.433386 +0530,
,Objects\299a.jpg,17,0,18,,,,,,,j,2.265212500002235,0.24743190000299364,None,,,,,,18,0,17,190.7910821000114,,,,,,,,,,,,,,,,,,,,,,,190.77517370000714,190.7910821000114,191.2748340999824,,,,,,,,,,,,,,191.29158730001654,,,,,,,,,,,,,191.28585370001383,191.29158730001654,191.29158730001654,191.29158730001654,194.27536149998195,shoe,j,2.265212500002235,0.24743190000299364,194.2754054000252,194.27541709999787,None,194.2910588000086,194.2910588000086,194.2910588000086,,,,,,,,,,,,,,00045,001,2026-01-18_10h35.39.680,MST_task,2024.2.0,59.83548829571322,2026-01-18 10h35.54.433386 +0530,
,Objects\111a.jpg,18,0,19,,,,,,,j,1.6765147999976762,0.23206460004439577,None,,,,,,19,0,18,194.2910588000086,,,,,,,,,,,,,,,,,,,,,,,194.27548100001877,194.2910588000086,194.77488390001236,,,,,,,,,,,,,,194.79173820000142,,,,,,,,,,,,,194.78516410000157,194.79173820000142,194.79173820000142,194.79173820000142,197.77500880003208,shoe,j,1.6765147999976762,0.23206460004439577,197.77504999999655,197.775062300032,None,197.79116110003088,197.79116110003088,197.79116110003088,,,,,,,,,,,,,,00045,001,2026-01-18_10h35.39.680,MST_task,2024.2.0,59.83548829571322,2026-01-18 10h35.54.433386 +0530,
,Objects\096a.jpg,19,0,20,,,,,,,f,1.9293136000051163,0.2722246000193991,None,,,,,,20,0,19,197.79116110003088,,,,,,,,,,,,,,,,,,,,,,,197.7751569999964,197.79116110003088,198.27481630002148,,,,,,,,,,,,,,198.29136380000273,,,,,,,,,,,,,198.28495629999088,198.29136380000273,198.29136380000273,198.29136380000273,201.27512190002017,shoe,f,1.9293136000051163,0.2722246000193991,201.2751666000113,201.2751784999855,None,201.2910992000252,201.2910992000252,201.2910992000252,,,,,,,,,,,,,,00045,001,2026-01-18_10h35.39.680,MST_task,2024.2.0,59.83548829571322,2026-01-18 10h35.54.433386 +0530,
,Objects\149a.jpg,20,0,21,,,,,,,j,1.796899500011932,0.2479960999917239,None,,,,,,21,0,20,201.2910992000252,,,,,,,,,,,,,,,,,,,,,,,201.27524400001857,201.2910992000252,201.77481540001463,,,,,,,,,,,,,,201.79141350003192,,,,,,,,,,,,,201.78436849999707,201.79141350003192,201.79141350003192,201.79141350003192,204.77511159999995,shoe,j,1.796899500011932,0.2479960999917239,204.77515459997812,204.77516670001205,None,204.7910569999949,204.7910569999949,204.7910569999949,,,,,,,,,,,,,,00045,001,2026-01-18_10h35.39.680,MST_task,2024.2.0,59.83548829571322,2026-01-18 10h35.54.433386 +0530,
,Objects\148a.jpg,21,0,22,,,,,,,None,,,f,0.06587270001182333,None,,,,22,0,21,204.7910569999949,,,,,,,,,,,,,,,,,,,,,,,204.7752643999993,204.7910569999949,205.27490160003072,,,,,,,,,,,,,,205.29142040002625,,,,,,,,,,,,,205.2860961999977,205.29142040002625,205.29142040002625,205.29142040002625,208.27516459999606,indoor,None,,,208.27686300000641,208.358375300013,f,208.2910160999745,208.2910160999745,208.2910160999745,208.2910160999745,208.2910160999745,0.06587270001182333,None,,,,,,,,,,00045,001,2026-01-18_10h35.39.680,MST_task,2024.2.0,59.83548829571322,2026-01-18 10h35.54.433386 +0530,
,Objects\175a.jpg,22,0,23,,,,,,,None,,,j,0.6176356999785639,None,,,,23,0,22,208.37455389997922,,,,,,,,,,,,,,,,,,,,,,,208.35845759999938,208.37455389997922,208.8580788000254,,,,,,,,,,,,,,208.87479680002434,,,,,,,,,,,,,208.86794550000923,208.87479680002434,208.87479680002434,208.87479680002434,211.85836289997678,indoor,None,,,211.85840279998956,212.5082934999955,j,211.87450829998124,211.87450829998124,211.87450829998124,211.87450829998124,211.87450829998124,0.6176356999785639,None,,,,,,,,,,00045,001,2026-01-18_10h35.39.680,MST_task,2024.2.0,59.83548829571322,2026-01-18 10h35.54.433386 +0530,
,Objects\192a.jpg,23,0,24,,,,,,,j,2.1393168999929912,0.29603069997392595,None,,,,,,24,0,23,212.5245670999866,,,,,,,,,,,,,,,,,,,,,,,212.50839690002613,212.5245670999866,213.00814940000419,,,,,,,,,,,,,,213.024789099989,,,,,,,,,,,,,213.01785180001752,213.024789099989,213.024789099989,213.024789099989,216.00837270001648,indoor,j,2.1393168999929912,0.29603069997392595,216.0084155999939,216.00842810003087,None,216.02456049999455,216.02456049999455,216.02456049999455,,,,,,,,,,,,,,00045,001,2026-01-18_10h35.39.680,MST_task,2024.2.0,59.83548829571322,2026-01-18 10h35.54.433386 +0530,
,Objects\057a.jpg,24,0,25,,,,,,,None,,,j,0.0794531999854371,None,,,,25,0,24,216.02456049999455,,,,,,,,,,,,,,,,,,,,,,,216.00849340000423,216.02456049999455,216.5083518999745,,,,,,,,,,,,,,216.52481929998612,,,,,,,,,,,,,216.51866930001415,216.52481929998612,216.52481929998612,216.52481929998612,219.5084209999768,indoor,None,,,219.50845999998273,219.60837999999058,j,219.5245619000052,219.5245619000052,219.5245619000052,219.5245619000052,219.5245619000052,0.0794531999854371,None,,,,,,,,,,00045,001,2026-01-18_10h35.39.680,MST_task,2024.2.0,59.83548829571322,2026-01-18 10h35.54.433386 +0530,
,Objects\196a.jpg,25,0,26,,,,,,,f,1.831389200000558,0.2403010999551043,None,,,,,,26,0,25,219.62455429998226,,,,,,,,,,,,,,,,,,,,,,,219.6084609000245,219.62455429998226,220.1080743999919,,,,,,,,,,,,,,220.12479440000607,,,,,,,,,,,,,220.11895029997686,220.12479440000607,220.12479440000607,220.12479440000607,223.10868439998012,indoor,f,1.831389200000558,0.2403010999551043,223.10872840002412,223.10874080000212,None,223.12449890002608,223.12449890002608,223.12449890002608,,,,,,,,,,,,,,00045,001,2026-01-18_10h35.39.680,MST_task,2024.2.0,59.83548829571322,2026-01-18 10h35.54.433386 +0530,
,Objects\126a.jpg,26,0,27,,,,,,,f,1.7963929999968968,0.26362939999671653,None,,,,,,27,0,26,223.12449890002608,,,,,,,,,,,,,,,,,,,,,,,223.10880609997548,223.12449890002608,223.60820239997702,,,,,,,,,,,,,,223.62479339999845,,,,,,,,,,,,,223.6179016000242,223.62479339999845,223.62479339999845,223.62479339999845,226.60842609999236,indoor,f,1.7963929999968968,0.26362939999671653,226.60847610002384,226.6084880999988,None,226.62458669999614,226.62458669999614,226.62458669999614,,,,,,,,,,,,,,00045,001,2026-01-18_10h35.39.680,MST_task,2024.2.0,59.83548829571322,2026-01-18 10h35.54.433386 +0530,
,Objects\322a.jpg,27,0,28,,,,,,,f,0.9036156000220217,0.2719968999736011,None,,,,,,28,0,27,226.62458669999614,,,,,,,,,,,,,,,,,,,,,,,226.60855260002427,226.62458669999614,227.10849880002206,,,,,,,,,,,,,,227.12511680001626,,,,,,,,,,,,,227.11947239999427,227.12511680001626,227.12511680001626,227.12511680001626,230.1085290000192,indoor,f,0.9036156000220217,0.2719968999736011,230.10857719997875,230.10858940001344,None,230.12449840002228,230.12449840002228,230.12449840002228,,,,,,,,,,,,,,00045,001,2026-01-18_10h35.39.680,MST_task,2024.2.0,59.83548829571322,2026-01-18 10h35.54.433386 +0530,
,Objects\079a.jpg,28,0,29,,,,,,,j,2.18774459999986,0.28792129998328164,None,,,,,,29,0,28,230.12449840002228,,,,,,,,,,,,,,,,,,,,,,,230.10865770000964,230.12449840002228,230.6084053000086,,,,,,,,,,,,,,230.62503509997623,,,,,,,,,,,,,230.62212880002335,230.62503509997623,230.62503509997623,230.62503509997623,233.60850939998636,shoe,j,2.18774459999986,0.28792129998328164,233.61066210002173,233.61068739998154,None,233.62459090002812,233.62459090002812,233.62459090002812,,,,,,,,,,,,,,00045,001,2026-01-18_10h35.39.680,MST_task,2024.2.0,59.83548829571322,2026-01-18 10h35.54.433386 +0530,
,Objects\384a.jpg,29,0,30,,,,,,,j,1.8560473999823444,0.2559940000064671,None,,,,,,30,0,29,233.62459090002812,,,,,,,,,,,,,,,,,,,,,,,233.6107878999901,233.62459090002812,234.10825739998836,,,,,,,,,,,,,,234.12476179999067,,,,,,,,,,,,,234.11848379997537,234.12476179999067,234.12476179999067,234.12476179999067,237.10842010000488,shoe,j,1.8560473999823444,0.2559940000064671,237.10846650000894,237.10847779997857,None,237.12456889997702,237.12456889997702,237.12456889997702,,,,,,,,,,,,,,00045,001,2026-01-18_10h35.39.680,MST_task,2024.2.0,59.83548829571322,2026-01-18 10h35.54.433386 +0530,
,Objects\230a.jpg,30,0,31,,,,,,,j,1.8038700000033714,0.23999569995794445,None,,,,,,31,0,30,237.12456889997702,,,,,,,,,,,,,,,,,,,,,,,237.10854260000633,237.12456889997702,237.60828769998625,,,,,,,,,,,,,,237.6250760999974,,,,,,,,,,,,,237.62008459999925,237.6250760999974,237.6250760999974,237.6250760999974,240.60837750002975,shoe,j,1.8038700000033714,0.23999569995794445,240.60841919999802,240.60843130003195,None,240.6245686999755,240.6245686999755,240.6245686999755,,,,,,,,,,,,,,00045,001,2026-01-18_10h35.39.680,MST_task,2024.2.0,59.83548829571322,2026-01-18 10h35.54.433386 +0530,
,Objects\140a.jpg,31,0,32,,,,,,,j,1.4719661999843083,0.2319096999708563,None,,,,,,32,0,31,240.6245686999755,,,,,,,,,,,,,,,,,,,,,,,240.60852529999102,240.6245686999755,241.1081675000023,,,,,,,,,,,,,,241.1249110000208,,,,,,,,,,,,,241.1183065000223,241.1249110000208,241.1249110000208,241.1249110000208,244.1084877999965,shoe,j,1.4719661999843083,0.2319096999708563,244.10853109997697,244.1085437000147,None,244.12458360003075,244.12458360003075,244.12458360003075,,,,,,,,,,,,,,00045,001,2026-01-18_10h35.39.680,MST_task,2024.2.0,59.83548829571322,2026-01-18 10h35.54.433386 +0530,
,Objects\141a.jpg,32,0,33,,,,,,,j,1.8676913999952376,0.21624969999538735,None,,,,,,33,0,32,244.12458360003075,,,,,,,,,,,,,,,,,,,,,,,244.10860779997893,244.12458360003075,244.6082267999882,,,,,,,,,,,,,,244.62480869999854,,,,,,,,,,,,,244.61791799997445,244.62480869999854,244.62480869999854,244.62480869999854,247.60877290001372,shoe,j,1.8676913999952376,0.21624969999538735,247.608816699998,247.60882889997447,None,247.62456909997854,247.62456909997854,247.62456909997854,,,,,,,,,,,,,,00045,001,2026-01-18_10h35.39.680,MST_task,2024.2.0,59.83548829571322,2026-01-18 10h35.54.433386 +0530,
,Objects\374a.jpg,33,0,34,,,,,,,f,1.6633201999939047,0.2320006000227295,None,,,,,,34,0,33,247.62456909997854,,,,,,,,,,,,,,,,,,,,,,,247.608893800003,247.62456909997854,248.1081986000063,,,,,,,,,,,,,,248.12496570002986,,,,,,,,,,,,,248.11851380002918,248.12496570002986,248.12496570002986,248.12496570002986,251.10881700000027,shoe,f,1.6633201999939047,0.2320006000227295,251.10886680003023,251.10888010001509,None,251.12465750001138,251.12465750001138,251.12465750001138,,,,,,,,,,,,,,00045,001,2026-01-18_10h35.39.680,MST_task,2024.2.0,59.83548829571322,2026-01-18 10h35.54.433386 +0530,
,Objects\212a.jpg,34,0,35,,,,,,,j,2.483892799995374,0.19211910001467913,None,,,,,,35,0,34,251.12465750001138,,,,,,,,,,,,,,,,,,,,,,,251.10899350000545,251.12465750001138,251.60818580002524,,,,,,,,,,,,,,251.62493009999162,,,,,,,,,,,,,251.61824039998464,251.62493009999162,251.62493009999162,251.62493009999162,254.60838009999134,shoe,j,2.483892799995374,0.19211910001467913,254.6084211000125,254.60843289998593,None,254.6245629999903,254.6245629999903,254.6245629999903,,,,,,,,,,,,,,00045,001,2026-01-18_10h35.39.680,MST_task,2024.2.0,59.83548829571322,2026-01-18 10h35.54.433386 +0530,
,Objects\317a.jpg,35,0,36,,,,,,,f,2.471667299978435,0.23154449998401105,None,,,,,,36,0,35,254.6245629999903,,,,,,,,,,,,,,,,,,,,,,,254.60849630000303,254.6245629999903,255.1084551999811,,,,,,,,,,,,,,255.1249386999989,,,,,,,,,,,,,255.12007080001058,255.1249386999989,255.1249386999989,255.1249386999989,258.10836120002205,indoor,f,2.471667299978435,0.23154449998401105,258.1099932999932,258.1100115000154,None,258.1245093999896,258.1245093999896,258.1245093999896,,,,,,,,,,,,,,00045,001,2026-01-18_10h35.39.680,MST_task,2024.2.0,59.83548829571322,2026-01-18 10h35.54.433386 +0530,
,Objects\020a.jpg,36,0,37,,,,,,,f,2.283283499942627,0.2645685000461526,None,,,,,,37,0,36,258.1245093999896,,,,,,,,,,,,,,,,,,,,,,,258.11007940000854,258.1245093999896,258.6081716999761,,,,,,,,,,,,,,258.62478980002925,,,,,,,,,,,,,258.61743209999986,258.62478980002925,258.62478980002925,258.62478980002925,261.60864709998714,indoor,f,2.283283499942627,0.2645685000461526,261.6086945999996,261.6087068999768,None,261.62459550000494,261.62459550000494,261.62459550000494,,,,,,,,,,,,,,00045,001,2026-01-18_10h35.39.680,MST_task,2024.2.0,59.83548829571322,2026-01-18 10h35.54.433386 +0530,
,Objects\202a.jpg,37,0,38,,,,,,,j,1.4228900999878533,0.2799964000005275,None,,,,,,38,0,37,261.62459550000494,,,,,,,,,,,,,,,,,,,,,,,261.608773200016,261.62459550000494,262.10828799998853,,,,,,,,,,,,,,262.12512819998665,,,,,,,,,,,,,262.1176441999851,262.12512819998665,262.12512819998665,262.12512819998665,265.1085790999932,indoor,j,1.4228900999878533,0.2799964000005275,265.1086236999836,265.1086353000137,None,265.12476470001275,265.12476470001275,265.12476470001275,,,,,,,,,,,,,,00045,001,2026-01-18_10h35.39.680,MST_task,2024.2.0,59.83548829571322,2026-01-18 10h35.54.433386 +0530,
,Objects\179a.jpg,38,0,39,,,,,,,f,2.5876456000260077,0.24900419998448342,None,,,,,,39,0,38,265.12476470001275,,,,,,,,,,,,,,,,,,,,,,,265.10869880003156,265.12476470001275,265.6082516000024,,,,,,,,,,,,,,265.6250043999753,,,,,,,,,,,,,265.61853530001827,265.6250043999753,265.6250043999753,265.6250043999753,268.6085638999939,indoor,f,2.5876456000260077,0.24900419998448342,268.6086064000265,268.6086188000045,None,268.62465389998397,268.62465389998397,268.62465389998397,,,,,,,,,,,,,,00045,001,2026-01-18_10h35.39.680,MST_task,2024.2.0,59.83548829571322,2026-01-18 10h35.54.433386 +0530,
,Objects\330a.jpg,39,0,40,,,,,,,f,2.5523503000149503,0.26320129999658093,None,,,,,,40,0,39,268.62465389998397,,,,,,,,,,,,,,,,,,,,,,,268.60868409997784,268.62465389998397,269.10830349999014,,,,,,,,,,,,,,269.12520220002625,,,,,,,,,,,,,269.1195400999859,269.12520220002625,269.12520220002625,269.12520220002625,272.10862220003037,indoor,f,2.5523503000149503,0.26320129999658093,272.1086698999861,272.1086910000304,None,272.1246773999883,272.1246773999883,272.1246773999883,,,,,,,,,,,,,,00045,001,2026-01-18_10h35.39.680,MST_task,2024.2.0,59.83548829571322,2026-01-18 10h35.54.433386 +0530,
,Objects\127a.jpg,40,0,41,,,,,,,f,1.155358600022737,0.22403919999487698,None,,,,,,41,0,40,272.1246773999883,,,,,,,,,,,,,,,,,,,,,,,272.10875750001287,272.1246773999883,272.60829419997754,,,,,,,,,,,,,,272.6250281999819,,,,,,,,,,,,,272.6181710999808,272.6250281999819,272.6250281999819,272.6250281999819,275.6086685999762,indoor,f,1.155358600022737,0.22403919999487698,275.6087162999902,275.60872880002717,None,275.6245894000167,275.6245894000167,275.6245894000167,,,,,,,,,,,,,,00045,001,2026-01-18_10h35.39.680,MST_task,2024.2.0,59.83548829571322,2026-01-18 10h35.54.433386 +0530,
,Objects\242a.jpg,41,0,42,,,,,,,j,2.8555060000508092,None,None,,,,,,42,0,41,275.6245894000167,,,,,,,,,,,,,,,,,,,,,,,275.60879839997506,275.6245894000167,276.10825799999293,,,,,,,,,,,,,,276.1248512000311,,,,,,,,,,,,,276.1184032000019,276.1248512000311,276.1248512000311,276.1248512000311,279.1085603000247,indoor,j,2.8555060000508092,None,279.1086037000059,279.1086150999763,None,279.12468940002145,279.12468940002145,279.12468940002145,,,,,,,,,,,,,,00045,001,2026-01-18_10h35.39.680,MST_task,2024.2.0,59.83548829571322,2026-01-18 10h35.54.433386 +0530,
,Objects\063a.jpg,42,0,43,,,,,,,None,,,f,0.060246899956837296,None,,,,43,0,42,279.12468940002145,,,,,,,,,,,,,,,,,,,,,,,279.108676999982,279.12468940002145,279.6082021999755,,,,,,,,,,,,,,279.6249268000247,,,,,,,,,,,,,279.6205170000321,279.6249268000247,279.6249268000247,279.6249268000247,282.6086276000133,shoe,None,,,282.6108884999994,282.6919388999813,f,282.62462319998303,282.62462319998303,282.62462319998303,282.62462319998303,282.62462319998303,0.060246899956837296,None,,,,,,,,,,00045,001,2026-01-18_10h35.39.680,MST_task,2024.2.0,59.83548829571322,2026-01-18 10h35.54.433386 +0530,
,Objects\352a.jpg,43,0,44,,,,,,,f,1.9236208000220358,0.23207410000031814,None,,,,,,44,0,43,282.70805780001683,,,,,,,,,,,,,,,,,,,,,,,282.6920639000018,282.70805780001683,283.1915026999777,,,,,,,,,,,,,,283.2084023000207,,,,,,,,,,,,,283.2020177000086,283.2084023000207,283.2084023000207,283.2084023000207,286.192096600018,shoe,f,1.9236208000220358,0.23207410000031814,286.192138399987,286.1921501000179,None,286.20829500001855,286.20829500001855,286.20829500001855,,,,,,,,,,,,,,00045,001,2026-01-18_10h35.39.680,MST_task,2024.2.0,59.83548829571322,2026-01-18 10h35.54.433386 +0530,
,Objects\050a.jpg,44,0,45,,,,,,,f,1.224740199977532,0.2315126999747008,None,,,,,,45,0,44,286.20829500001855,,,,,,,,,,,,,,,,,,,,,,,286.19221900001867,286.20829500001855,286.6915175000322,,,,,,,,,,,,,,286.7084152000025,,,,,,,,,,,,,286.70170189999044,286.7084152000025,286.7084152000025,286.7084152000025,289.69195619999664,shoe,f,1.224740199977532,0.2315126999747008,289.69200149999233,289.69201310002245,None,289.7080299999798,289.7080299999798,289.7080299999798,,,,,,,,,,,,,,00045,001,2026-01-18_10h35.39.680,MST_task,2024.2.0,59.83548829571322,2026-01-18 10h35.54.433386 +0530,
,Objects\090a.jpg,45,0,46,,,,,,,f,1.2524038999690674,0.2641931000398472,None,,,,,,46,0,45,289.7080299999798,,,,,,,,,,,,,,,,,,,,,,,289.6920783999958,289.7080299999798,290.1917007000302,,,,,,,,,,,,,,290.208190299978,,,,,,,,,,,,,290.2014759000158,290.208190299978,290.208190299978,290.208190299978,293.19197380001424,shoe,f,1.2524038999690674,0.2641931000398472,293.19201519998023,293.19202780001797,None,293.20799750002334,293.20799750002334,293.20799750002334,,,,,,,,,,,,,,00045,001,2026-01-18_10h35.39.680,MST_task,2024.2.0,59.83548829571322,2026-01-18 10h35.54.433386 +0530,
,Objects\023a.jpg,46,0,47,,,,,,,f,1.896040300023742,0.24863069999264553,None,,,,,,47,0,46,293.20799750002334,,,,,,,,,,,,,,,,,,,,,,,293.19209610001417,293.20799750002334,293.6916348999948,,,,,,,,,,,,,,293.7081816000282,,,,,,,,,,,,,293.70154149999144,293.7081816000282,293.7081816000282,293.7081816000282,296.69196550000925,shoe,f,1.896040300023742,0.24863069999264553,296.69200660003116,296.6920182000031,None,296.7078712999937,296.7078712999937,296.7078712999937,,,,,,,,,,,,,,00045,001,2026-01-18_10h35.39.680,MST_task,2024.2.0,59.83548829571322,2026-01-18 10h35.54.433386 +0530,
,Objects\309a.jpg,47,0,48,,,,,,,f,2.788512700004503,None,None,,,,,,48,0,47,296.7078712999937,,,,,,,,,,,,,,,,,,,,,,,296.69208549999166,296.7078712999937,297.191578500031,,,,,,,,,,,,,,297.2084282999858,,,,,,,,,,,,,297.2015600000159,297.2084282999858,297.2084282999858,297.2084282999858,300.19177450001007,shoe,f,2.788512700004503,None,300.19182010000804,300.19183219998376,None,300.20801040000515,300.20801040000515,300.20801040000515,,,,,,,,,,,,,,00045,001,2026-01-18_10h35.39.680,MST_task,2024.2.0,59.83548829571322,2026-01-18 10h35.54.433386 +0530,
,Objects\080a.jpg,48,0,49,,,,,,,None,,,f,0.5124163000145927,None,,,,49,0,48,300.20801040000515,,,,,,,,,,,,,,,,,,,,,,,300.19189720001305,300.20801040000515,300.69165529997554,,,,,,,,,,,,,,300.7084057999891,,,,,,,,,,,,,300.7034444999881,300.7084057999891,300.7084057999891,300.7084057999891,303.69197629997507,shoe,None,,,303.69201410003006,304.2250478999922,f,303.70802279998315,303.70802279998315,303.70802279998315,303.70802279998315,303.70802279998315,0.5124163000145927,None,,,,,,,,,,00045,001,2026-01-18_10h35.39.680,MST_task,2024.2.0,59.83548829571322,2026-01-18 10h35.54.433386 +0530,
,Objects\321a.jpg,49,0,50,,,,,,,None,,,j,0.6315430999966338,None,,,,50,0,49,304.24134190002223,,,,,,,,,,,,,,,,,,,,,,,304.22513420000905,304.24134190002223,304.72500700003,,,,,,,,,,,,,,304.74165079998784,,,,,,,,,,,,,304.7370791999856,304.74165079998784,304.74165079998784,304.74165079998784,307.72531270002946,indoor,None,,,307.7269745999947,308.3751707000192,j,307.7413056999794,307.7413056999794,307.7413056999794,307.7413056999794,307.7413056999794,0.6315430999966338,None,,,,,,,,,,00045,001,2026-01-18_10h35.39.680,MST_task,2024.2.0,59.83548829571322,2026-01-18 10h35.54.433386 +0530,
,Objects\006a.jpg,50,0,51,,,,,,,f,1.7683250000118278,0.26467060000868514,None,,,,,,51,0,50,308.3913362000021,,,,,,,,,,,,,,,,,,,,,,,308.3752597999992,308.3913362000021,308.8750704000122,,,,,,,,,,,,,,308.89174749999074,,,,,,,,,,,,,308.88618590001715,308.89174749999074,308.89174749999074,308.89174749999074,311.87519420002354,indoor,f,1.7683250000118278,0.26467060000868514,311.8752364999964,311.87524830002803,None,311.89136300003156,311.89136300003156,311.89136300003156,,,,,,,,,,,,,,00045,001,2026-01-18_10h35.39.680,MST_task,2024.2.0,59.83548829571322,2026-01-18 10h35.54.433386 +0530,
,Objects\128a.jpg,51,0,52,,,,,,,j,2.765528500021901,None,None,,,,,,52,0,51,311.89136300003156,,,,,,,,,,,,,,,,,,,,,,,311.8753116999869,311.89136300003156,312.3748211999773,,,,,,,,,,,,,,312.39130710001336,,,,,,,,,,,,,312.38455880002584,312.39130710001336,312.39130710001336,312.39130710001336,315.37524979998125,indoor,j,2.765528500021901,None,315.37529250001535,315.37530389998574,None,315.3913641999825,315.3913641999825,315.3913641999825,,,,,,,,,,,,,,00045,001,2026-01-18_10h35.39.680,MST_task,2024.2.0,59.83548829571322,2026-01-18 10h35.54.433386 +0530,
,Objects\370a.jpg,52,0,53,,,,,,,j,1.1453742000157945,0.2159273999859579,None,,,,,,53,0,52,315.3913641999825,,,,,,,,,,,,,,,,,,,,,,,315.37537349999184,315.3913641999825,315.87495620001573,,,,,,,,,,,,,,315.89146940002684,,,,,,,,,,,,,315.88494660001015,315.89146940002684,315.89146940002684,315.89146940002684,318.8752543000155,indoor,j,1.1453742000157945,0.2159273999859579,318.8752956999815,318.8753074000124,None,318.8913701000274,318.8913701000274,318.8913701000274,,,,,,,,,,,,,,00045,001,2026-01-18_10h35.39.680,MST_task,2024.2.0,59.83548829571322,2026-01-18 10h35.54.433386 +0530,
,Objects\102a.jpg,53,0,54,,,,,,,f,1.5817734000156634,0.22294859995599836,None,,,,,,54,0,53,318.8913701000274,,,,,,,,,,,,,,,,,,,,,,,318.8753703000257,318.8913701000274,319.37498020002386,,,,,,,,,,,,,,319.3915405999869,,,,,,,,,,,,,319.38574789999984,319.3915405999869,319.3915405999869,319.3915405999869,322.3751390000107,indoor,f,1.5817734000156634,0.22294859995599836,322.3751820999896,322.3751938000205,None,322.3911929000169,322.3911929000169,322.3911929000169,,,,,,,,,,,,,,00045,001,2026-01-18_10h35.39.680,MST_task,2024.2.0,59.83548829571322,2026-01-18 10h35.54.433386 +0530,
,Objects\108a.jpg,54,0,55,,,,,,,j,1.7857275999849662,0.23102830001153052,None,,,,,,55,0,54,322.3911929000169,,,,,,,,,,,,,,,,,,,,,,,322.37525759998243,322.3911929000169,322.8748056999757,,,,,,,,,,,,,,322.8913271999918,,,,,,,,,,,,,322.8849151000031,322.8913271999918,322.8913271999918,322.8913271999918,325.8751652999781,indoor,j,1.7857275999849662,0.23102830001153052,325.8752088000183,325.8752206999925,None,325.891128999996,325.891128999996,325.891128999996,,,,,,,,,,,,,,00045,001,2026-01-18_10h35.39.680,MST_task,2024.2.0,59.83548829571322,2026-01-18 10h35.54.433386 +0530,
,Objects\039a.jpg,55,0,56,,,,,,,j,2.2686895999941044,0.2726793000474572,None,,,,,,56,0,55,325.891128999996,,,,,,,,,,,,,,,,,,,,,,,325.87528600002406,325.891128999996,326.3748779000016,,,,,,,,,,,,,,326.3914709999808,,,,,,,,,,,,,326.38508809998166,326.3914709999808,326.3914709999808,326.3914709999808,329.37514399999054,indoor,j,2.2686895999941044,0.2726793000474572,329.37518510001246,329.3751963999821,None,329.391193700023,329.391193700023,329.391193700023,,,,,,,,,,,,,,00045,001,2026-01-18_10h35.39.680,MST_task,2024.2.0,59.83548829571322,2026-01-18 10h35.54.433386 +0530,
,Objects\092a.jpg,56,0,57,,,,,,,f,2.337551699951291,0.24011460004840046,None,,,,,,57,0,56,329.391193700023,,,,,,,,,,,,,,,,,,,,,,,329.3752586999908,329.391193700023,329.8748473000014,,,,,,,,,,,,,,329.891308100021,,,,,,,,,,,,,329.8872504000319,329.891308100021,329.891308100021,329.891308100021,332.87566120002884,shoe,f,2.337551699951291,0.24011460004840046,332.878122300026,332.87814240000444,None,332.89126519998536,332.89126519998536,332.89126519998536,,,,,,,,,,,,,,00045,001,2026-01-18_10h35.39.680,MST_task,2024.2.0,59.83548829571322,2026-01-18 10h35.54.433386 +0530,
,Objects\235a.jpg,57,0,58,,,,,,,f,1.708618300035596,0.263806399947498,None,,,,,,58,0,57,332.89126519998536,,,,,,,,,,,,,,,,,,,,,,,332.8782632999937,332.89126519998536,333.3748360000318,,,,,,,,,,,,,,333.3917512000189,,,,,,,,,,,,,333.3857308999868,333.3917512000189,333.3917512000189,333.3917512000189,336.37531370000215,shoe,f,1.708618300035596,0.263806399947498,336.3753615000169,336.37537399999565,None,336.3912590999971,336.3912590999971,336.3912590999971,,,,,,,,,,,,,,00045,001,2026-01-18_10h35.39.680,MST_task,2024.2.0,59.83548829571322,2026-01-18 10h35.54.433386 +0530,
,Objects\123a.jpg,58,0,59,,,,,,,f,1.1294395999866538,0.24799920001532882,None,,,,,,59,0,58,336.3912590999971,,,,,,,,,,,,,,,,,,,,,,,336.3754421999911,336.3912590999971,336.8748404000071,,,,,,,,,,,,,,336.8914692000253,,,,,,,,,,,,,336.88555130001623,336.8914692000253,336.8914692000253,336.8914692000253,339.8750463000033,shoe,f,1.1294395999866538,0.24799920001532882,339.8750880000298,339.875099900004,None,339.89117160002934,339.89117160002934,339.89117160002934,,,,,,,,,,,,,,00045,001,2026-01-18_10h35.39.680,MST_task,2024.2.0,59.83548829571322,2026-01-18 10h35.54.433386 +0530,
,Objects\372a.jpg,59,0,60,,,,,,,None,,,f,0.5971807999885641,None,,,,60,0,59,339.89117160002934,,,,,,,,,,,,,,,,,,,,,,,339.875174899993,339.89117160002934,340.37478690000717,,,,,,,,,,,,,,340.3915363000124,,,,,,,,,,,,,340.38485319999745,340.3915363000124,340.3915363000124,340.3915363000124,343.37511710001854,shoe,None,,,343.37515360000543,343.99163090001093,f,343.39117279998027,343.39117279998027,343.39117279998027,343.39117279998027,343.39117279998027,0.5971807999885641,None,,,,,,,,,,00045,001,2026-01-18_10h35.39.680,MST_task,2024.2.0,59.83548829571322,2026-01-18 10h35.54.433386 +0530,
,Objects\197a.jpg,60,0,61,,,,,,,j,1.1606363999890164,0.19995570002356544,None,,,,,,61,0,60,344.0079204000067,,,,,,,,,,,,,,,,,,,,,,,343.9917153000133,344.0079204000067,344.4916682000039,,,,,,,,,,,,,,344.50835489999736,,,,,,,,,,,,,344.5018941999879,344.50835489999736,344.50835489999736,344.50835489999736,347.4915402000188,shoe,j,1.1606363999890164,0.19995570002356544,347.4915832999977,347.49159559997497,None,347.50793319998775,347.50793319998775,347.50793319998775,,,,,,,,,,,,,,00045,001,2026-01-18_10h35.39.680,MST_task,2024.2.0,59.83548829571322,2026-01-18 10h35.54.433386 +0530,
,Objects\016a.jpg,61,0,62,,,,,,,f,1.1721181999891996,0.2480267999926582,None,,,,,,62,0,61,347.50793319998775,,,,,,,,,,,,,,,,,,,,,,,347.49169709999114,347.50793319998775,347.9913905999856,,,,,,,,,,,,,,348.0081450000289,,,,,,,,,,,,,348.0010127000278,348.0081450000289,348.0081450000289,348.0081450000289,350.9915534000029,shoe,f,1.1721181999891996,0.2480267999926582,350.99159310001414,350.9916045999853,None,351.00796269997954,351.00796269997954,351.00796269997954,,,,,,,,,,,,,,00045,001,2026-01-18_10h35.39.680,MST_task,2024.2.0,59.83548829571322,2026-01-18 10h35.54.433386 +0530,
,Objects\366a.jpg,62,0,63,,,,,,,f,2.144507299992256,0.27319430001080036,None,,,,,,63,0,62,351.00796269997954,,,,,,,,,,,,,,,,,,,,,,,350.99170050001703,351.00796269997954,351.49140709999483,,,,,,,,,,,,,,351.5081154999789,,,,,,,,,,,,,351.5013785000192,351.5081154999789,351.5081154999789,351.5081154999789,354.4917555000284,shoe,f,2.144507299992256,0.27319430001080036,354.4917997000157,354.4918117999914,None,354.50792619999265,354.50792619999265,354.50792619999265,,,,,,,,,,,,,,00045,001,2026-01-18_10h35.39.680,MST_task,2024.2.0,59.83548829571322,2026-01-18 10h35.54.433386 +0530,
,Objects\221a.jpg,63,0,64,,,,,,,j,1.836407499969937,0.25612750003347173,None,,,,,,64,0,63,354.50792619999265,,,,,,,,,,,,,,,,,,,,,,,354.4918783000321,354.50792619999265,354.991362700006,,,,,,,,,,,,,,355.0083679999807,,,,,,,,,,,,,355.0032652000082,355.0083679999807,355.0083679999807,355.0083679999807,357.99185260001104,indoor,j,1.836407499969937,0.25612750003347173,357.9936327000032,357.9936508000246,None,358.00791039998876,358.00791039998876,358.00791039998876,,,,,,,,,,,,,,00045,001,2026-01-18_10h35.39.680,MST_task,2024.2.0,59.83548829571322,2026-01-18 10h35.54.433386 +0530,
,Objects\026a.jpg,64,0,65,,,,,,,j,2.344515800010413,0.2240068999817595,None,,,,,,65,0,64,358.00791039998876,,,,,,,,,,,,,,,,,,,,,,,357.99372189998394,358.00791039998876,358.4914714000188,,,,,,,,,,,,,,358.50834020000184,,,,,,,,,,,,,358.5019483999931,358.50834020000184,358.50834020000184,358.50834020000184,361.4920405999874,indoor,j,2.344515800010413,0.2240068999817595,361.49208599998383,361.4920983000193,None,361.507962499978,361.507962499978,361.507962499978,,,,,,,,,,,,,,00045,001,2026-01-18_10h35.39.680,MST_task,2024.2.0,59.83548829571322,2026-01-18 10h35.54.433386 +0530,
,Objects\214a.jpg,65,0,66,,,,,,,f,2.1964458000147715,0.2718654000200331,None,,,,,,66,0,65,361.507962499978,,,,,,,,,,,,,,,,,,,,,,,361.4921648000018,361.507962499978,361.9914288999862,,,,,,,,,,,,,,362.00817069999175,,,,,,,,,,,,,362.00245570001425,362.00817069999175,362.00817069999175,362.00817069999175,364.9916050999891,indoor,f,2.1964458000147715,0.2718654000200331,364.9916476000217,364.99165909999283,None,365.00793060002616,365.00793060002616,365.00793060002616,,,,,,,,,,,,,,00045,001,2026-01-18_10h35.39.680,MST_task,2024.2.0,59.83548829571322,2026-01-18 10h35.54.433386 +0530,
,Objects\099a.jpg,66,0,67,,,,,,,f,2.6239703000173904,0.24110889999428764,None,,,,,,67,0,66,365.00793060002616,,,,,,,,,,,,,,,,,,,,,,,364.99172400002135,365.00793060002616,365.49137960001826,,,,,,,,,,,,,,365.5082323999959,,,,,,,,,,,,,365.5015994000132,365.5082323999959,365.5082323999959,365.5082323999959,368.49173750000773,indoor,f,2.6239703000173904,0.24110889999428764,368.49177959997905,368.4917906000046,None,368.5079527000198,368.5079527000198,368.5079527000198,,,,,,,,,,,,,,00045,001,2026-01-18_10h35.39.680,MST_task,2024.2.0,59.83548829571322,2026-01-18 10h35.54.433386 +0530,
,Objects\054a.jpg,67,0,68,,,,,,,f,2.011888100008946,0.3133835999760777,None,,,,,,68,0,67,368.5079527000198,,,,,,,,,,,,,,,,,,,,,,,368.49185340001713,368.5079527000198,368.99168099998496,,,,,,,,,,,,,,369.0082153999829,,,,,,,,,,,,,369.0012391000055,369.0082153999829,369.0082153999829,369.0082153999829,371.9918327999767,indoor,f,2.011888100008946,0.3133835999760777,371.99187480000546,371.99188669997966,None,372.0079254999873,372.0079254999873,372.0079254999873,,,,,,,,,,,,,,00045,001,2026-01-18_10h35.39.680,MST_task,2024.2.0,59.83548829571322,2026-01-18 10h35.54.433386 +0530,
,Objects\216a.jpg,68,0,69,,,,,,,f,1.8960114000365138,0.21599779999814928,None,,,,,,69,0,68,372.0079254999873,,,,,,,,,,,,,,,,,,,,,,,371.9919508000021,372.0079254999873,372.49137519998476,,,,,,,,,,,,,,372.50823199999286,,,,,,,,,,,,,372.50100009999005,372.50823199999286,372.50823199999286,372.50823199999286,375.49170230003074,indoor,f,1.8960114000365138,0.21599779999814928,375.4917521000025,375.49176409997744,None,375.5079021999845,375.5079021999845,375.5079021999845,,,,,,,,,,,,,,00045,001,2026-01-18_10h35.39.680,MST_task,2024.2.0,59.83548829571322,2026-01-18 10h35.54.433386 +0530,
,Objects\188a.jpg,69,0,70,,,,,,,f,1.9249877000111155,0.2550903999945149,None,,,,,,70,0,69,375.5079021999845,,,,,,,,,,,,,,,,,,,,,,,375.4918292000075,375.5079021999845,375.9915001000045,,,,,,,,,,,,,,376.00823999999557,,,,,,,,,,,,,376.00138969998807,376.00823999999557,376.00823999999557,376.00823999999557,378.99176070000976,indoor,f,1.9249877000111155,0.2550903999945149,378.9918037999887,378.99181580002187,None,379.0078962999978,379.0078962999978,379.0078962999978,,,,,,,,,,,,,,00045,001,2026-01-18_10h35.39.680,MST_task,2024.2.0,59.83548829571322,2026-01-18 10h35.54.433386 +0530,
,Objects\008a.jpg,70,0,71,,,,,,,j,1.8002276999759488,0.22461640002438799,None,,,,,,71,0,70,379.0078962999978,,,,,,,,,,,,,,,,,,,,,,,378.99188029998913,379.0078962999978,379.4915704000159,,,,,,,,,,,,,,379.5083346000174,,,,,,,,,,,,,379.5036181000178,379.5083346000174,379.5083346000174,379.5083346000174,382.49214210000355,shoe,j,1.8002276999759488,0.22461640002438799,382.49423800001387,382.49425510002766,None,382.50814950000495,382.50814950000495,382.50814950000495,,,,,,,,,,,,,,00045,001,2026-01-18_10h35.39.680,MST_task,2024.2.0,59.83548829571322,2026-01-18 10h35.54.433386 +0530,
,Objects\161a.jpg,71,0,72,,,,,,,f,2.171989399997983,0.2080017999978736,None,,,,,,72,0,71,382.50814950000495,,,,,,,,,,,,,,,,,,,,,,,382.4943630999769,382.50814950000495,382.9914789000177,,,,,,,,,,,,,,383.0083018000005,,,,,,,,,,,,,383.0009747000295,383.0083018000005,383.0083018000005,383.0083018000005,385.99180890002754,shoe,f,2.171989399997983,0.2080017999978736,385.9918520000065,385.99186369997915,None,386.00807729997905,386.00807729997905,386.00807729997905,,,,,,,,,,,,,,00045,001,2026-01-18_10h35.39.680,MST_task,2024.2.0,59.83548829571322,2026-01-18 10h35.54.433386 +0530,
,Objects\066a.jpg,72,0,73,,,,,,,f,1.5041583999991417,0.21640560001833364,None,,,,,,73,0,72,386.00807729997905,,,,,,,,,,,,,,,,,,,,,,,385.9919268999947,386.00807729997905,386.49161740002455,,,,,,,,,,,,,,386.50831790000666,,,,,,,,,,,,,386.5018563999911,386.50831790000666,386.50831790000666,386.50831790000666,389.49174179998226,shoe,f,1.5041583999991417,0.21640560001833364,389.4917839000118,389.49179569998523,None,389.50805579998996,389.50805579998996,389.50805579998996,,,,,,,,,,,,,,00045,001,2026-01-18_10h35.39.680,MST_task,2024.2.0,59.83548829571322,2026-01-18 10h35.54.433386 +0530,
,Objects\081a.jpg,73,0,74,,,,,,,j,1.148435699986294,0.24800010002218187,None,,,,,,74,0,73,389.50805579998996,,,,,,,,,,,,,,,,,,,,,,,389.4918610000168,389.50805579998996,389.9915692000068,,,,,,,,,,,,,,390.00833059998695,,,,,,,,,,,,,390.0013094000169,390.00833059998695,390.00833059998695,390.00833059998695,392.9919055000064,shoe,j,1.148435699986294,0.24800010002218187,392.99194779997924,392.99195940000936,None,393.0080738000106,393.0080738000106,393.0080738000106,,,,,,,,,,,,,,00045,001,2026-01-18_10h35.39.680,MST_task,2024.2.0,59.83548829571322,2026-01-18 10h35.54.433386 +0530,
,Objects\144a.jpg,74,0,75,,,,,,,None,,,j,0.9121143000083975,None,,,,75,0,74,393.0080738000106,,,,,,,,,,,,,,,,,,,,,,,392.9920241999789,393.0080738000106,393.4916273999843,,,,,,,,,,,,,,393.5083502000198,,,,,,,,,,,,,393.50210899999365,393.5083502000198,393.5083502000198,393.5083502000198,396.4917799999821,shoe,None,,,396.49182070000097,397.4251202000305,j,396.50808120000875,396.50808120000875,396.50808120000875,396.50808120000875,396.50808120000875,0.9121143000083975,None,,,,,,,,,,00045,001,2026-01-18_10h35.39.680,MST_task,2024.2.0,59.83548829571322,2026-01-18 10h35.54.433386 +0530,
,Objects\276a.jpg,75,0,76,,,,,,,None,,,f,1.6392250999924727,None,,,,76,0,75,397.44128690002253,,,,,,,,,,,,,,,,,,,,,,,397.4252545000054,397.44128690002253,397.9250441999757,,,,,,,,,,,,,,397.94152589997975,,,,,,,,,,,,,397.93485389999114,397.94152589997975,397.94152589997975,397.94152589997975,400.9253064999939,shoe,None,,,400.92534459999297,402.59190410003066,f,400.94137840002077,400.94137840002077,400.94137840002077,400.94137840002077,400.94137840002077,1.6392250999924727,None,,,,,,,,,,00045,001,2026-01-18_10h35.39.680,MST_task,2024.2.0,59.83548829571322,2026-01-18 10h35.54.433386 +0530,
,Objects\176a.jpg,76,0,77,,,,,,,j,2.928633000003174,None,None,,,,,,77,0,76,402.6080482000252,,,,,,,,,,,,,,,,,,,,,,,402.59199079999235,402.6080482000252,403.09161750000203,,,,,,,,,,,,,,403.1082291000057,,,,,,,,,,,,,403.1016342000221,403.1082291000057,403.1082291000057,403.1082291000057,406.0920677999966,shoe,j,2.928633000003174,None,406.09210930002155,406.09212119999574,None,406.1080231000087,406.1080231000087,406.1080231000087,,,,,,,,,,,,,,00045,001,2026-01-18_10h35.39.680,MST_task,2024.2.0,59.83548829571322,2026-01-18 10h35.54.433386 +0530,
,Objects\250a.jpg,77,0,78,,,,,,,f,2.7715110999997705,None,None,,,,,,78,0,77,406.1080231000087,,,,,,,,,,,,,,,,,,,,,,,406.0922177999746,406.1080231000087,406.59165309998207,,,,,,,,,,,,,,406.60861029999796,,,,,,,,,,,,,406.60340239998186,406.60861029999796,406.60861029999796,406.60861029999796,409.5918800000218,indoor,f,2.7715110999997705,None,409.5936612000223,409.593679099984,None,409.60806290002074,409.60806290002074,409.60806290002074,,,,,,,,,,,,,,00045,001,2026-01-18_10h35.39.680,MST_task,2024.2.0,59.83548829571322,2026-01-18 10h35.54.433386 +0530,
,Objects\348a.jpg,78,0,79,,,,,,,j,2.408666200004518,0.23218200000701472,None,,,,,,79,0,78,409.60806290002074,,,,,,,,,,,,,,,,,,,,,,,409.5937502000015,409.60806290002074,410.0915511000203,,,,,,,,,,,,,,410.1084606000222,,,,,,,,,,,,,410.10148369998205,410.1084606000222,410.1084606000222,410.1084606000222,413.09222180000506,indoor,j,2.408666200004518,0.23218200000701472,413.0922645999817,413.0922763000126,None,413.1079829999944,413.1079829999944,413.1079829999944,,,,,,,,,,,,,,00045,001,2026-01-18_10h35.39.680,MST_task,2024.2.0,59.83548829571322,2026-01-18 10h35.54.433386 +0530,
,Objects\287a.jpg,79,0,80,,,,,,,None,,,f,0.6120359000051394,None,,,,80,0,79,413.1079829999944,,,,,,,,,,,,,,,,,,,,,,,413.0923412999837,413.1079829999944,413.5916610999848,,,,,,,,,,,,,,413.60843959997874,,,,,,,,,,,,,413.6013749000267,413.60843959997874,413.60843959997874,413.60843959997874,416.5919927000068,indoor,None,,,416.5920286999899,417.2251970000216,f,416.6080347999814,416.6080347999814,416.6080347999814,416.6080347999814,416.6080347999814,0.6120359000051394,None,,,,,,,,,,00045,001,2026-01-18_10h35.39.680,MST_task,2024.2.0,59.83548829571322,2026-01-18 10h35.54.433386 +0530,
,Objects\233a.jpg,80,0,81,,,,,,,j,2.5662721000262536,0.24063690000912175,None,,,,,,81,0,80,417.2412904999801,,,,,,,,,,,,,,,,,,,,,,,417.22528349998174,417.2412904999801,417.7250150999753,,,,,,,,,,,,,,417.74177909997525,,,,,,,,,,,,,417.7353671999881,417.74177909997525,417.74177909997525,417.74177909997525,420.7250995999784,indoor,j,2.5662721000262536,0.24063690000912175,420.7251410000026,420.7251533999806,None,420.74131780001335,420.74131780001335,420.74131780001335,,,,,,,,,,,,,,00045,001,2026-01-18_10h35.39.680,MST_task,2024.2.0,59.83548829571322,2026-01-18 10h35.54.433386 +0530,
,Objects\213a.jpg,81,0,82,,,,,,,f,1.7225709999911487,0.23260260000824928,None,,,,,,82,0,81,420.74131780001335,,,,,,,,,,,,,,,,,,,,,,,420.72524080000585,420.74131780001335,421.2248974000104,,,,,,,,,,,,,,421.2416733999853,,,,,,,,,,,,,421.23575669998536,421.2416733999853,421.2416733999853,421.2416733999853,424.22519269998884,indoor,f,1.7225709999911487,0.23260260000824928,424.2252350000199,424.2252463999903,None,424.24142829998164,424.24142829998164,424.24142829998164,,,,,,,,,,,,,,00045,001,2026-01-18_10h35.39.680,MST_task,2024.2.0,59.83548829571322,2026-01-18 10h35.54.433386 +0530,
,Objects\194a.jpg,82,0,83,,,,,,,f,1.1746794000500813,0.2642818999593146,None,,,,,,83,0,82,424.24142829998164,,,,,,,,,,,,,,,,,,,,,,,424.225310800015,424.24142829998164,424.72516989998985,,,,,,,,,,,,,,424.74173619999783,,,,,,,,,,,,,424.7377432999783,424.74173619999783,424.74173619999783,424.74173619999783,427.7253213999793,indoor,f,1.1746794000500813,0.2642818999593146,427.72536340000806,427.7253754999838,None,427.7414030000218,427.7414030000218,427.7414030000218,,,,,,,,,,,,,,00045,001,2026-01-18_10h35.39.680,MST_task,2024.2.0,59.83548829571322,2026-01-18 10h35.54.433386 +0530,
,Objects\266a.jpg,83,0,84,,,,,,,f,2.355212299968116,0.23175360000459477,None,,,,,,84,0,83,427.7414030000218,,,,,,,,,,,,,,,,,,,,,,,427.72544030001154,427.7414030000218,428.2250138000236,,,,,,,,,,,,,,428.241620899993,,,,,,,,,,,,,428.235597699997,428.241620899993,428.241620899993,428.241620899993,431.22559059999185,indoor,f,2.355212299968116,0.23175360000459477,431.2256388000096,431.2256511999876,None,431.24146679998375,431.24146679998375,431.24146679998375,,,,,,,,,,,,,,00045,001,2026-01-18_10h35.39.680,MST_task,2024.2.0,59.83548829571322,2026-01-18 10h35.54.433386 +0530,
,Objects\260a.jpg,84,0,85,,,,,,,j,2.3516292000422254,0.22260779998032376,None,,,,,,85,0,84,431.24146679998375,,,,,,,,,,,,,,,,,,,,,,,431.2257194999838,431.24146679998375,431.7250738000148,,,,,,,,,,,,,,431.74179310002364,,,,,,,,,,,,,431.73730680003064,431.74179310002364,431.74179310002364,431.74179310002364,434.7254056999809,shoe,j,2.3516292000422254,0.22260779998032376,434.7275583000155,434.72757480002474,None,434.74141999997664,434.74141999997664,434.74141999997664,,,,,,,,,,,,,,00045,001,2026-01-18_10h35.39.680,MST_task,2024.2.0,59.83548829571322,2026-01-18 10h35.54.433386 +0530,
,Objects\361a.jpg,85,0,86,,,,,,,j,2.098627600003965,0.23225790000287816,None,,,,,,86,0,85,434.74141999997664,,,,,,,,,,,,,,,,,,,,,,,434.72764390002703,434.74141999997664,435.2249855999835,,,,,,,,,,,,,,435.2415950000286,,,,,,,,,,,,,435.2358017999795,435.2415950000286,435.2415950000286,435.2415950000286,438.2252722000121,shoe,j,2.098627600003965,0.23225790000287816,438.2253145999857,438.22532590001356,None,438.2413080999977,438.2413080999977,438.2413080999977,,,,,,,,,,,,,,00045,001,2026-01-18_10h35.39.680,MST_task,2024.2.0,59.83548829571322,2026-01-18 10h35.54.433386 +0530,
,Objects\100a.jpg,86,0,87,,,,,,,f,1.3752043999847956,0.2555136000155471,None,,,,,,87,0,86,438.2413080999977,,,,,,,,,,,,,,,,,,,,,,,438.225423099997,438.2413080999977,438.7249953999999,,,,,,,,,,,,,,438.74140960001387,,,,,,,,,,,,,438.73475699999835,438.74140960001387,438.74140960001387,438.74140960001387,441.7251997999847,shoe,f,1.3752043999847956,0.2555136000155471,441.72523869998986,441.725250700023,None,441.7411956000142,441.7411956000142,441.7411956000142,,,,,,,,,,,,,,00045,001,2026-01-18_10h35.39.680,MST_task,2024.2.0,59.83548829571322,2026-01-18 10h35.54.433386 +0530,
,Objects\241a.jpg,87,0,88,,,,,,,f,1.8428692999877967,0.22407009999733418,None,,,,,,88,0,87,441.7411956000142,,,,,,,,,,,,,,,,,,,,,,,441.72531559999334,441.7411956000142,442.22493550000945,,,,,,,,,,,,,,442.24156639998546,,,,,,,,,,,,,442.23440130002564,442.24156639998546,442.24156639998546,442.24156639998546,445.2255472000106,shoe,f,1.8428692999877967,0.22407009999733418,445.22559960000217,445.2256131999893,None,445.2413357999758,445.2413357999758,445.2413357999758,,,,,,,,,,,,,,00045,001,2026-01-18_10h35.39.680,MST_task,2024.2.0,59.83548829571322,2026-01-18 10h35.54.433386 +0530,
,Objects\207a.jpg,88,0,89,,,,,,,f,1.6864433999871835,0.21670390001963824,None,,,,,,89,0,88,445.2413357999758,,,,,,,,,,,,,,,,,,,,,,,445.2256830999977,445.2413357999758,445.72493580001174,,,,,,,,,,,,,,445.74170020001475,,,,,,,,,,,,,445.7349357000203,445.74170020001475,445.74170020001475,445.74170020001475,448.7252044000197,shoe,f,1.6864433999871835,0.21670390001963824,448.7252462999895,448.72525790001964,None,448.7410677000298,448.7410677000298,448.7410677000298,,,,,,,,,,,,,,00045,001,2026-01-18_10h35.39.680,MST_task,2024.2.0,59.83548829571322,2026-01-18 10h35.54.433386 +0530,
,Objects\043a.jpg,89,0,90,,,,,,,f,1.4271038000006229,0.17537770001217723,None,,,,,,90,0,89,448.7410677000298,,,,,,,,,,,,,,,,,,,,,,,448.72532129997853,448.7410677000298,449.2248746000114,,,,,,,,,,,,,,449.2416265999782,,,,,,,,,,,,,449.23540150001645,449.2416265999782,449.2416265999782,449.2416265999782,452.2252385999891,shoe,f,1.4271038000006229,0.17537770001217723,452.2252792000072,452.22529069997836,None,452.2412156999926,452.2412156999926,452.2412156999926,,,,,,,,,,,,,,00045,001,2026-01-18_10h35.39.680,MST_task,2024.2.0,59.83548829571322,2026-01-18 10h35.54.433386 +0530,
,Objects\377a.jpg,90,0,91,,,,,,,j,2.279339600005187,0.23905309999827296,None,,,,,,91,0,90,452.2412156999926,,,,,,,,,,,,,,,,,,,,,,,452.2253531999886,452.2412156999926,452.72490500001004,,,,,,,,,,,,,,452.74173150002025,,,,,,,,,,,,,452.73506540001836,452.74173150002025,452.74173150002025,452.74173150002025,455.7251354000182,shoe,j,2.279339600005187,0.23905309999827296,455.72517739998875,455.7251897000242,None,455.7412141999812,455.7412141999812,455.7412141999812,,,,,,,,,,,,,,00045,001,2026-01-18_10h35.39.680,MST_task,2024.2.0,59.83548829571322,2026-01-18 10h35.54.433386 +0530,
,Objects\183a.jpg,91,0,92,,,,,,,f,2.1234185000066645,0.2400146999862045,None,,,,,,92,0,91,455.7412141999812,,,,,,,,,,,,,,,,,,,,,,,455.72528369998327,455.7412141999812,456.2249750000192,,,,,,,,,,,,,,456.24157080001896,,,,,,,,,,,,,456.2371685000253,456.24157080001896,456.24157080001896,456.24157080001896,459.2252444999758,indoor,f,2.1234185000066645,0.2400146999862045,459.226910300029,459.2269274999853,None,459.2412386999931,459.2412386999931,459.2412386999931,,,,,,,,,,,,,,00045,001,2026-01-18_10h35.39.680,MST_task,2024.2.0,59.83548829571322,2026-01-18 10h35.54.433386 +0530,
,Objects\228a.jpg,92,0,93,,,,,,,f,2.183196300000418,0.24030030000722036,None,,,,,,93,0,92,459.2412386999931,,,,,,,,,,,,,,,,,,,,,,,459.2269966999884,459.2412386999931,459.7250207000179,,,,,,,,,,,,,,459.7415519999922,,,,,,,,,,,,,459.734801899991,459.7415519999922,459.7415519999922,459.7415519999922,462.7251726000104,indoor,f,2.183196300000418,0.24030030000722036,462.72521340003004,462.72522550000576,None,462.74106480000773,462.74106480000773,462.74106480000773,,,,,,,,,,,,,,00045,001,2026-01-18_10h35.39.680,MST_task,2024.2.0,59.83548829571322,2026-01-18 10h35.54.433386 +0530,
,Objects\152a.jpg,93,0,94,,,,,,,f,1.3319314999971539,0.23195839999243617,None,,,,,,94,0,93,462.74106480000773,,,,,,,,,,,,,,,,,,,,,,,462.7252905999776,462.74106480000773,463.2250302999746,,,,,,,,,,,,,,463.2414317000075,,,,,,,,,,,,,463.2348741000169,463.2414317000075,463.2414317000075,463.2414317000075,466.2251353000174,indoor,f,1.3319314999971539,0.23195839999243617,466.22517659998266,466.22518800001126,None,466.24124120001215,466.24124120001215,466.24124120001215,,,,,,,,,,,,,,00045,001,2026-01-18_10h35.39.680,MST_task,2024.2.0,59.83548829571322,2026-01-18 10h35.54.433386 +0530,
,Objects\262a.jpg,94,0,95,,,,,,,f,2.367222100030631,0.18410149996634573,None,,,,,,95,0,94,466.24124120001215,,,,,,,,,,,,,,,,,,,,,,,466.2252530999831,466.24124120001215,466.7248550999793,,,,,,,,,,,,,,466.7415464000078,,,,,,,,,,,,,466.73439840000356,466.7415464000078,466.7415464000078,466.7415464000078,469.7253154999926,indoor,f,2.367222100030631,0.18410149996634573,469.72536079998827,469.72537350002676,None,469.7412076999899,469.7412076999899,469.7412076999899,,,,,,,,,,,,,,00045,001,2026-01-18_10h35.39.680,MST_task,2024.2.0,59.83548829571322,2026-01-18 10h35.54.433386 +0530,
,Objects\206a.jpg,95,0,96,,,,,,,j,2.2348262000014074,0.27187559998128563,None,,,,,,96,0,95,469.7412076999899,,,,,,,,,,,,,,,,,,,,,,,469.7254414000199,469.7412076999899,470.2248762000236,,,,,,,,,,,,,,470.2414674999891,,,,,,,,,,,,,470.23482870002044,470.2414674999891,470.2414674999891,470.2414674999891,473.22514870000305,indoor,j,2.2348262000014074,0.27187559998128563,473.22519109997666,473.22520330001134,None,473.2411294999765,473.2411294999765,473.2411294999765,,,,,,,,,,,,,,00045,001,2026-01-18_10h35.39.680,MST_task,2024.2.0,59.83548829571322,2026-01-18 10h35.54.433386 +0530,
,Objects\327a.jpg,96,0,97,,,,,,,None,,,f,0.910990700009279,None,,,,97,0,96,473.2411294999765,,,,,,,,,,,,,,,,,,,,,,,473.2252680999809,473.2411294999765,473.72488840000005,,,,,,,,,,,,,,473.7416885999846,,,,,,,,,,,,,473.7357597000082,473.7416885999846,473.7416885999846,473.7416885999846,476.7251752000302,indoor,None,,,476.725213000027,477.65847520000534,f,476.7411372999777,476.7411372999777,476.7411372999777,476.7411372999777,476.7411372999777,0.910990700009279,None,,,,,,,,,,00045,001,2026-01-18_10h35.39.680,MST_task,2024.2.0,59.83548829571322,2026-01-18 10h35.54.433386 +0530,
,Objects\325a.jpg,97,0,98,,,,,,,f,1.4372289000311866,0.20848989998921752,None,,,,,,98,0,97,477.67469449999044,,,,,,,,,,,,,,,,,,,,,,,477.6585602000123,477.67469449999044,478.1581781000132,,,,,,,,,,,,,,478.1750169000006,,,,,,,,,,,,,478.1683674000087,478.1750169000006,478.1750169000006,478.1750169000006,481.158605500008,indoor,f,1.4372289000311866,0.20848989998921752,481.1586478999816,481.15865990001475,None,481.17466940003214,481.17466940003214,481.17466940003214,,,,,,,,,,,,,,00045,001,2026-01-18_10h35.39.680,MST_task,2024.2.0,59.83548829571322,2026-01-18 10h35.54.433386 +0530,
,Objects\120a.jpg,98,0,99,,,,,,,f,2.769209399993997,None,None,,,,,,99,0,98,481.17466940003214,,,,,,,,,,,,,,,,,,,,,,,481.1587251999881,481.17466940003214,481.65840319998097,,,,,,,,,,,,,,481.6751176000107,,,,,,,,,,,,,481.6723026999971,481.6751176000107,481.6751176000107,481.6751176000107,484.6586991000222,shoe,f,2.769209399993997,None,484.66086760000326,484.66088520002086,None,484.67457829997875,484.67457829997875,484.67457829997875,,,,,,,,,,,,,,00045,001,2026-01-18_10h35.39.680,MST_task,2024.2.0,59.83548829571322,2026-01-18 10h35.54.433386 +0530,
,Objects\130a.jpg,99,0,100,,,,,,,j,2.517809799988754,0.17595750000327826,None,,,,,,100,0,99,484.67457829997875,,,,,,,,,,,,,,,,,,,,,,,484.66095220000716,484.67457829997875,485.15816440002527,,,,,,,,,,,,,,485.1749395999941,,,,,,,,,,,,,485.16796679998515,485.1749395999941,485.1749395999941,485.1749395999941,488.1585366000072,shoe,j,2.517809799988754,0.17595750000327826,488.1585772000253,488.158588899998,None,488.17456870002206,488.17456870002206,488.17456870002206,,,,,,,,,,,,,,00045,001,2026-01-18_10h35.39.680,MST_task,2024.2.0,59.83548829571322,2026-01-18 10h35.54.433386 +0530,
,Objects\209a.jpg,100,0,101,,,,,,,f,1.6096767999697477,0.3040059999912046,None,,,,,,101,0,100,488.17456870002206,,,,,,,,,,,,,,,,,,,,,,,488.1586547999759,488.17456870002206,488.658211699978,,,,,,,,,,,,,,488.67509450000944,,,,,,,,,,,,,488.66833090002183,488.67509450000944,488.67509450000944,488.67509450000944,491.6585514000035,shoe,f,1.6096767999697477,0.3040059999912046,491.65859499998624,491.6586070000194,None,491.67472990002716,491.67472990002716,491.67472990002716,,,,,,,,,,,,,,00045,001,2026-01-18_10h35.39.680,MST_task,2024.2.0,59.83548829571322,2026-01-18 10h35.54.433386 +0530,
,Objects\019a.jpg,101,0,102,,,,,,,f,2.9259464999777265,None,None,,,,,,102,0,101,491.67472990002716,,,,,,,,,,,,,,,,,,,,,,,491.6586729999981,491.67472990002716,492.15824309998425,,,,,,,,,,,,,,492.17500340001425,,,,,,,,,,,,,492.1689349000226,492.17500340001425,492.17500340001425,492.17500340001425,495.15845350001473,shoe,f,2.9259464999777265,None,495.15849479997996,495.1585059000063,None,495.17464789998485,495.17464789998485,495.17464789998485,,,,,,,,,,,,,,00045,001,2026-01-18_10h35.39.680,MST_task,2024.2.0,59.83548829571322,2026-01-18 10h35.54.433386 +0530,
,Objects\316a.jpg,102,0,103,,,,,,,f,1.9533209000364877,0.311985399981495,None,,,,,,103,0,102,495.17464789998485,,,,,,,,,,,,,,,,,,,,,,,495.1585697000264,495.17464789998485,495.65825500001665,,,,,,,,,,,,,,495.6750088999979,,,,,,,,,,,,,495.668159199995,495.6750088999979,495.6750088999979,495.6750088999979,498.65866999997525,shoe,f,1.9533209000364877,0.311985399981495,498.6587139000185,498.6587366000167,None,498.6746420999989,498.6746420999989,498.6746420999989,,,,,,,,,,,,,,00045,001,2026-01-18_10h35.39.680,MST_task,2024.2.0,59.83548829571322,2026-01-18 10h35.54.433386 +0530,
,Objects\257a.jpg,103,0,104,,,,,,,f,1.6457827999838628,0.3033422000007704,None,,,,,,104,0,103,498.6746420999989,,,,,,,,,,,,,,,,,,,,,,,498.6588047000114,498.6746420999989,499.1582061999943,,,,,,,,,,,,,,499.1749921999872,,,,,,,,,,,,,499.16872640000656,499.1749921999872,499.1749921999872,499.1749921999872,502.15864199999487,shoe,f,1.6457827999838628,0.3033422000007704,502.1586849000305,502.1586968000047,None,502.17469160002656,502.17469160002656,502.17469160002656,,,,,,,,,,,,,,00045,001,2026-01-18_10h35.39.680,MST_task,2024.2.0,59.83548829571322,2026-01-18 10h35.54.433386 +0530,
,Objects\062a.jpg,104,0,105,,,,,,,f,1.4175729000126012,0.2560640999581665,None,,,,,,105,0,104,502.17469160002656,,,,,,,,,,,,,,,,,,,,,,,502.15876000002027,502.17469160002656,502.6583518999978,,,,,,,,,,,,,,502.6751669999794,,,,,,,,,,,,,502.668715399981,502.6751669999794,502.6751669999794,502.6751669999794,505.65889409999363,shoe,f,1.4175729000126012,0.2560640999581665,505.65894430002663,505.6589579000138,None,505.6746752000181,505.6746752000181,505.6746752000181,,,,,,,,,,,,,,00045,001,2026-01-18_10h35.39.680,MST_task,2024.2.0,59.83548829571322,2026-01-18 10h35.54.433386 +0530,
,Objects\244a.jpg,105,0,106,,,,,,,f,2.4456049000145867,0.2875272000092082,None,,,,,,106,0,105,505.6746752000181,,,,,,,,,,,,,,,,,,,,,,,505.6590254000039,505.6746752000181,506.15826769999694,,,,,,,,,,,,,,506.17512269999133,,,,,,,,,,,,,506.1687917999807,506.17512269999133,506.17512269999133,506.17512269999133,509.15863590000663,indoor,f,2.4456049000145867,0.2875272000092082,509.16029760002857,509.16031579999253,None,509.17476590001024,509.17476590001024,509.17476590001024,,,,,,,,,,,,,,00045,001,2026-01-18_10h35.39.680,MST_task,2024.2.0,59.83548829571322,2026-01-18 10h35.54.433386 +0530,
,Objects\045a.jpg,106,0,107,,,,,,,j,1.9138596000266261,0.22394479997456074,None,,,,,,107,0,106,509.17476590001024,,,,,,,,,,,,,,,,,,,,,,,509.1603848999948,509.17476590001024,509.6582339000306,,,,,,,,,,,,,,509.67507579998346,,,,,,,,,,,,,509.66869179997593,509.67507579998346,509.67507579998346,509.67507579998346,512.6587104999926,indoor,j,1.9138596000266261,0.22394479997456074,512.6587527000229,512.6587645999971,None,512.6747688000323,512.6747688000323,512.6747688000323,,,,,,,,,,,,,,00045,001,2026-01-18_10h35.39.680,MST_task,2024.2.0,59.83548829571322,2026-01-18 10h35.54.433386 +0530,
,Objects\339a.jpg,107,0,108,,,,,,,j,2.757324200007133,None,None,,,,,,108,0,107,512.6747688000323,,,,,,,,,,,,,,,,,,,,,,,512.6588279000134,512.6747688000323,513.1582793000271,,,,,,,,,,,,,,513.1750768999918,,,,,,,,,,,,,513.1677008999977,513.1750768999918,513.1750768999918,513.1750768999918,516.1587958000018,indoor,j,2.757324200007133,None,516.1588394999853,516.1588511000155,None,516.1748284000205,516.1748284000205,516.1748284000205,,,,,,,,,,,,,,00045,001,2026-01-18_10h35.39.680,MST_task,2024.2.0,59.83548829571322,2026-01-18 10h35.54.433386 +0530,
,Objects\288a.jpg,108,0,109,,,,,,,f,1.2812578000011854,0.2637323000235483,None,,,,,,109,0,108,516.1748284000205,,,,,,,,,,,,,,,,,,,,,,,516.1589144999743,516.1748284000205,516.6582775000134,,,,,,,,,,,,,,516.6750927999965,,,,,,,,,,,,,516.6687395999907,516.6750927999965,516.6750927999965,516.6750927999965,519.6586777999764,indoor,f,1.2812578000011854,0.2637323000235483,519.6587218000204,519.6587334999931,None,519.6747964000097,519.6747964000097,519.6747964000097,,,,,,,,,,,,,,00045,001,2026-01-18_10h35.39.680,MST_task,2024.2.0,59.83548829571322,2026-01-18 10h35.54.433386 +0530,
,Objects\345a.jpg,109,0,110,,,,,,,None,,,f,0.06196409999392927,None,,,,110,0,109,519.6747964000097,,,,,,,,,,,,,,,,,,,,,,,519.6588023999939,519.6747964000097,520.1583503999864,,,,,,,,,,,,,,520.1750138999778,,,,,,,,,,,,,520.1686710999929,520.1750138999778,520.1750138999778,520.1750138999778,523.1587704999838,indoor,None,,,523.158809799992,523.241867100005,f,523.1747333999956,523.1747333999956,523.1747333999956,523.1747333999956,523.1747333999956,0.06196409999392927,None,,,,,,,,,,00045,001,2026-01-18_10h35.39.680,MST_task,2024.2.0,59.83548829571322,2026-01-18 10h35.54.433386 +0530,
,Objects\210a.jpg,110,0,111,,,,,,,j,2.2700165000278503,0.25600829999893904,None,,,,,,111,0,110,523.2581878000055,,,,,,,,,,,,,,,,,,,,,,,523.2419492999907,523.2581878000055,523.7417768000159,,,,,,,,,,,,,,523.7584096000064,,,,,,,,,,,,,523.7519241999835,523.7584096000064,523.7584096000064,523.7584096000064,526.741952100012,indoor,j,2.2700165000278503,0.25600829999893904,526.7419953999924,526.7420080000302,None,526.7580482999911,526.7580482999911,526.7580482999911,,,,,,,,,,,,,,00045,001,2026-01-18_10h35.39.680,MST_task,2024.2.0,59.83548829571322,2026-01-18 10h35.54.433386 +0530,
,Objects\056a.jpg,111,0,112,,,,,,,f,1.4101200999575667,0.2485741000273265,None,,,,,,112,0,111,526.7580482999911,,,,,,,,,,,,,,,,,,,,,,,526.7420712999883,526.7580482999911,527.2416537000099,,,,,,,,,,,,,,527.2585451999912,,,,,,,,,,,,,527.2515511999954,527.2585451999912,527.2585451999912,527.2585451999912,530.2419614000246,indoor,f,1.4101200999575667,0.2485741000273265,530.2420111999963,530.2420233000303,None,530.2581392999855,530.2581392999855,530.2581392999855,,,,,,,,,,,,,,00045,001,2026-01-18_10h35.39.680,MST_task,2024.2.0,59.83548829571322,2026-01-18 10h35.54.433386 +0530,
,Objects\251a.jpg,112,0,113,,,,,,,f,2.2136483999784105,0.20799610001267865,None,,,,,,113,0,112,530.2581392999855,,,,,,,,,,,,,,,,,,,,,,,530.2420909000211,530.2581392999855,530.7414979999885,,,,,,,,,,,,,,530.7584025000106,,,,,,,,,,,,,530.7535814000294,530.7584025000106,530.7584025000106,530.7584025000106,533.7419291000115,shoe,f,2.2136483999784105,0.20799610001267865,533.7446141000255,533.7446322999895,None,533.7580042000045,533.7580042000045,533.7580042000045,,,,,,,,,,,,,,00045,001,2026-01-18_10h35.39.680,MST_task,2024.2.0,59.83548829571322,2026-01-18 10h35.54.433386 +0530,
,Objects\011a.jpg,113,0,114,,,,,,,f,1.7462840999942273,0.21599779999814928,None,,,,,,114,0,113,533.7580042000045,,,,,,,,,,,,,,,,,,,,,,,533.7447007999872,533.7580042000045,534.2424283000291,,,,,,,,,,,,,,534.2584991999902,,,,,,,,,,,,,534.2526660999865,534.2584991999902,534.2584991999902,534.2584991999902,537.2420812000055,shoe,f,1.7462840999942273,0.21599779999814928,537.2421287000179,537.2421410999959,None,537.2580392999807,537.2580392999807,537.2580392999807,,,,,,,,,,,,,,00045,001,2026-01-18_10h35.39.680,MST_task,2024.2.0,59.83548829571322,2026-01-18 10h35.54.433386 +0530,
,Objects\295a.jpg,114,0,115,,,,,,,f,1.7994463000213727,0.27828069997485727,None,,,,,,115,0,114,537.2580392999807,,,,,,,,,,,,,,,,,,,,,,,537.2422087999876,537.2580392999807,537.741527599981,,,,,,,,,,,,,,537.7585563000175,,,,,,,,,,,,,537.7521402999992,537.7585563000175,537.7585563000175,537.7585563000175,540.7417553000269,shoe,f,1.7994463000213727,0.27828069997485727,540.7417971999967,540.7418093000306,None,540.757997800014,540.757997800014,540.757997800014,,,,,,,,,,,,,,00045,001,2026-01-18_10h35.39.680,MST_task,2024.2.0,59.83548829571322,2026-01-18 10h35.54.433386 +0530,
,Objects\211a.jpg,115,0,116,,,,,,,j,2.6340863999794237,0.20810879999771714,None,,,,,,116,0,115,540.757997800014,,,,,,,,,,,,,,,,,,,,,,,540.7419062000117,540.757997800014,541.2414156000013,,,,,,,,,,,,,,541.2584999999963,,,,,,,,,,,,,541.251699400018,541.2584999999963,541.2584999999963,541.2584999999963,544.2417585999938,shoe,j,2.6340863999794237,0.20810879999771714,544.2418027999811,544.241814900015,None,544.2579780999804,544.2579780999804,544.2579780999804,,,,,,,,,,,,,,00045,001,2026-01-18_10h35.39.680,MST_task,2024.2.0,59.83548829571322,2026-01-18 10h35.54.433386 +0530,
,Objects\278a.jpg,116,0,117,,,,,,,j,1.9979848000220954,0.23275119997560978,None,,,,,,117,0,116,544.2579780999804,,,,,,,,,,,,,,,,,,,,,,,544.2418793999823,544.2579780999804,544.7421097999904,,,,,,,,,,,,,,544.7585362999816,,,,,,,,,,,,,544.7547423000215,544.7585362999816,544.7585362999816,544.7585362999816,547.7419619000284,shoe,j,1.9979848000220954,0.23275119997560978,547.7420035999967,547.7420155000291,None,547.7580002000323,547.7580002000323,547.7580002000323,,,,,,,,,,,,,,00045,001,2026-01-18_10h35.39.680,MST_task,2024.2.0,59.83548829571322,2026-01-18 10h35.54.433386 +0530,
,Objects\159a.jpg,117,0,118,,,,,,,f,1.0498748000245541,0.2245501999859698,None,,,,,,118,0,117,547.7580002000323,,,,,,,,,,,,,,,,,,,,,,,547.7420803999994,547.7580002000323,548.2416552000213,,,,,,,,,,,,,,548.2586084000068,,,,,,,,,,,,,548.2527454000083,548.2586084000068,548.2586084000068,548.2586084000068,551.2418633999769,shoe,f,1.0498748000245541,0.2245501999859698,551.2419041999965,551.2419158000266,None,551.2579265999957,551.2579265999957,551.2579265999957,,,,,,,,,,,,,,00045,001,2026-01-18_10h35.39.680,MST_task,2024.2.0,59.83548829571322,2026-01-18 10h35.54.433386 +0530,
,Objects\118a.jpg,118,0,119,,,,,,,f,1.3099967000307515,0.24021139997057617,None,,,,,,119,0,118,551.2579265999957,,,,,,,,,,,,,,,,,,,,,,,551.2420114999986,551.2579265999957,551.7415131999878,,,,,,,,,,,,,,551.758207899984,,,,,,,,,,,,,551.7523474000045,551.758207899984,551.758207899984,551.758207899984,554.7418036999879,shoe,f,1.3099967000307515,0.24021139997057617,554.7418437000015,554.7418554000324,None,554.758037600026,554.758037600026,554.758037600026,,,,,,,,,,,,,,00045,001,2026-01-18_10h35.39.680,MST_task,2024.2.0,59.83548829571322,2026-01-18 10h35.54.433386 +0530,
,Objects\308a.jpg,119,0,120,,,,,,,j,2.2103426000103354,0.24796549999155104,None,,,,,,120,0,119,554.758037600026,,,,,,,,,,,,,,,,,,,,,,,554.741931400029,554.758037600026,555.2414698000066,,,,,,,,,,,,,,555.2581991999759,,,,,,,,,,,,,555.2528862999752,555.2581991999759,555.2581991999759,555.2581991999759,558.2417092000251,indoor,j,2.2103426000103354,0.24796549999155104,558.2433530000271,558.2433706999873,None,558.2579784999834,558.2579784999834,558.2579784999834,,,,,,,,,,,,,,00045,001,2026-01-18_10h35.39.680,MST_task,2024.2.0,59.83548829571322,2026-01-18 10h35.54.433386 +0530,
,Objects\105a.jpg,120,0,121,,,,,,,f,1.6945057999691926,0.2314337000134401,None,,,,,,121,0,120,558.2579784999834,,,,,,,,,,,,,,,,,,,,,,,558.2434509000159,558.2579784999834,558.7414403000148,,,,,,,,,,,,,,558.7582521000295,,,,,,,,,,,,,558.7513404000201,558.7582521000295,558.7582521000295,558.7582521000295,561.7416891999892,indoor,f,1.6945057999691926,0.2314337000134401,561.7417319000233,561.741743599996,None,561.757989900012,561.757989900012,561.757989900012,,,,,,,,,,,,,,00045,001,2026-01-18_10h35.39.680,MST_task,2024.2.0,59.83548829571322,2026-01-18 10h35.54.433386 +0530,
,Objects\095a.jpg,121,0,122,,,,,,,f,1.442362499947194,0.26443470001686364,None,,,,,,122,0,121,561.757989900012,,,,,,,,,,,,,,,,,,,,,,,561.7418071000138,561.757989900012,562.2415129999863,,,,,,,,,,,,,,562.2582644000067,,,,,,,,,,,,,562.2521742000245,562.2582644000067,562.2582644000067,562.2582644000067,565.2418104999815,indoor,f,1.442362499947194,0.26443470001686364,565.2418529000133,565.2418652999913,None,565.257991600025,565.257991600025,565.257991600025,,,,,,,,,,,,,,00045,001,2026-01-18_10h35.39.680,MST_task,2024.2.0,59.83548829571322,2026-01-18 10h35.54.433386 +0530,
,Objects\344a.jpg,122,0,123,,,,,,,j,1.694305799959693,0.2074387000175193,None,,,,,,123,0,122,565.257991600025,,,,,,,,,,,,,,,,,,,,,,,565.2419295000145,565.257991600025,565.7414433999802,,,,,,,,,,,,,,565.7583701999974,,,,,,,,,,,,,565.7513879999751,565.7583701999974,565.7583701999974,565.7583701999974,568.7419327999814,indoor,j,1.694305799959693,0.2074387000175193,568.741974900011,568.7419907000149,None,568.7579509000061,568.7579509000061,568.7579509000061,,,,,,,,,,,,,,00045,001,2026-01-18_10h35.39.680,MST_task,2024.2.0,59.83548829571322,2026-01-18 10h35.54.433386 +0530,
,Objects\024a.jpg,123,0,124,,,,,,,f,1.3705997000215575,0.3272334999637678,None,,,,,,124,0,123,568.7579509000061,,,,,,,,,,,,,,,,,,,,,,,568.7420568999951,568.7579509000061,569.2414487000206,,,,,,,,,,,,,,569.2583322999999,,,,,,,,,,,,,569.2520601000288,569.2583322999999,569.2583322999999,569.2583322999999,572.2421401999891,indoor,f,1.3705997000215575,0.3272334999637678,572.2421818000148,572.2421934999875,None,572.2579647999955,572.2579647999955,572.2579647999955,,,,,,,,,,,,,,00045,001,2026-01-18_10h35.39.680,MST_task,2024.2.0,59.83548829571322,2026-01-18 10h35.54.433386 +0530,
,Objects\125a.jpg,124,0,125,,,,,,,j,1.5025444999919273,0.27199770003790036,None,,,,,,125,0,124,572.2579647999955,,,,,,,,,,,,,,,,,,,,,,,572.242256700003,572.2579647999955,572.7414265000261,,,,,,,,,,,,,,572.7582413000055,,,,,,,,,,,,,572.7508802000084,572.7582413000055,572.7582413000055,572.7582413000055,575.7418682000134,indoor,j,1.5025444999919273,0.27199770003790036,575.7419128000038,575.7419251999818,None,575.757949699997,575.757949699997,575.757949699997,,,,,,,,,,,,,,00045,001,2026-01-18_10h35.39.680,MST_task,2024.2.0,59.83548829571322,2026-01-18 10h35.54.433386 +0530,
,Objects\107a.jpg,125,0,126,,,,,,,j,1.9947382000391372,0.23896359995706007,None,,,,,,126,0,125,575.757949699997,,,,,,,,,,,,,,,,,,,,,,,575.7419953999924,575.757949699997,576.2414812999777,,,,,,,,,,,,,,576.2583089999971,,,,,,,,,,,,,576.25099770003,576.2583089999971,576.2583089999971,576.2583089999971,579.2418729999918,indoor,j,1.9947382000391372,0.23896359995706007,579.2419154000236,579.2419269999955,None,579.2579710999853,579.2579710999853,579.2579710999853,,,,,,,,,,,,,,00045,001,2026-01-18_10h35.39.680,MST_task,2024.2.0,59.83548829571322,2026-01-18 10h35.54.433386 +0530,
,Objects\267a.jpg,126,0,127,,,,,,,j,2.5420772000215948,0.1842418999876827,None,,,,,,127,0,126,579.2579710999853,,,,,,,,,,,,,,,,,,,,,,,579.2419926000293,579.2579710999853,579.7414509999799,,,,,,,,,,,,,,579.7583922999911,,,,,,,,,,,,,579.7545232999837,579.7583922999911,579.7583922999911,579.7583922999911,582.7420447000186,shoe,j,2.5420772000215948,0.1842418999876827,582.7442548000254,582.7442766000167,None,582.7579861999839,582.7579861999839,582.7579861999839,,,,,,,,,,,,,,00045,001,2026-01-18_10h35.39.680,MST_task,2024.2.0,59.83548829571322,2026-01-18 10h35.54.433386 +0530,
,Objects\285a.jpg,127,0,128,,,,,,,f,1.7944579999893904,0.27166750002652407,None,,,,,,128,0,127,582.7579861999839,,,,,,,,,,,,,,,,,,,,,,,582.7443936999771,582.7579861999839,583.2415196999791,,,,,,,,,,,,,,583.2584525999846,,,,,,,,,,,,,583.2523243000032,583.2584525999846,583.2584525999846,583.2584525999846,586.2418174999766,shoe,f,1.7944579999893904,0.27166750002652407,586.2418564999825,586.2418678000104,None,586.2579608000233,586.2579608000233,586.2579608000233,,,,,,,,,,,,,,00045,001,2026-01-18_10h35.39.680,MST_task,2024.2.0,59.83548829571322,2026-01-18 10h35.54.433386 +0530,
,Objects\199a.jpg,128,0,129,,,,,,,f,1.7021507999743335,0.2558670000289567,None,,,,,,129,0,128,586.2579608000233,,,,,,,,,,,,,,,,,,,,,,,586.241932999983,586.2579608000233,586.7415278999833,,,,,,,,,,,,,,586.7583915999858,,,,,,,,,,,,,586.7521921999869,586.7583915999858,586.7583915999858,586.7583915999858,589.7418475000304,shoe,f,1.7021507999743335,0.2558670000289567,589.741889500001,589.7419009000296,None,589.7579358000075,589.7579358000075,589.7579358000075,,,,,,,,,,,,,,00045,001,2026-01-18_10h35.39.680,MST_task,2024.2.0,59.83548829571322,2026-01-18 10h35.54.433386 +0530,
,Objects\333a.jpg,129,0,130,,,,,,,j,1.0665628999704495,0.215667900047265,None,,,,,,130,0,129,589.7579358000075,,,,,,,,,,,,,,,,,,,,,,,589.7419649999938,589.7579358000075,590.2415100000217,,,,,,,,,,,,,,590.2583611999871,,,,,,,,,,,,,590.2519229000318,590.2583611999871,590.2583611999871,590.2583611999871,593.2418304000166,shoe,j,1.0665628999704495,0.215667900047265,593.2418717999826,593.2418838000158,None,593.2579362000106,593.2579362000106,593.2579362000106,,,,,,,,,,,,,,00045,001,2026-01-18_10h35.39.680,MST_task,2024.2.0,59.83548829571322,2026-01-18 10h35.54.433386 +0530,
,Objects\237a.jpg,130,0,131,,,,,,,None,,,j,0.14241669996408746,None,,,,131,0,130,593.2579362000106,,,,,,,,,,,,,,,,,,,,,,,593.2419469000306,593.2579362000106,593.7414401000133,,,,,,,,,,,,,,593.7584840999916,,,,,,,,,,,,,593.7533495000098,593.7584840999916,593.7584840999916,593.7584840999916,596.7421646000003,shoe,None,,,596.7422078999807,596.908528800006,j,596.7580475999857,596.7580475999857,596.7580475999857,596.7580475999857,596.7580475999857,0.14241669996408746,None,,,,,,,,,,00045,001,2026-01-18_10h35.39.680,MST_task,2024.2.0,59.83548829571322,2026-01-18 10h35.54.433386 +0530,
,Objects\181a.jpg,131,0,132,,,,,,,f,1.4123895000084303,0.2873357000062242,None,,,,,,132,0,131,596.9249071999802,,,,,,,,,,,,,,,,,,,,,,,596.9086161000305,596.9249071999802,597.4082570999744,,,,,,,,,,,,,,597.425113299978,,,,,,,,,,,,,597.4185405999888,597.425113299978,597.425113299978,597.425113299978,600.4084672000026,shoe,f,1.4123895000084303,0.2873357000062242,600.4085097999778,600.4085218000109,None,600.4246641999925,600.4246641999925,600.4246641999925,,,,,,,,,,,,,,00045,001,2026-01-18_10h35.39.680,MST_task,2024.2.0,59.83548829571322,2026-01-18 10h35.54.433386 +0530,
,Objects\146a.jpg,132,0,133,,,,,,,f,2.3849347999785095,0.23045100003946573,None,,,,,,133,0,132,600.4246641999925,,,,,,,,,,,,,,,,,,,,,,,600.4085847000242,600.4246641999925,600.908268500003,,,,,,,,,,,,,,600.9248881000094,,,,,,,,,,,,,600.9177753999829,600.9248881000094,600.9248881000094,600.9248881000094,603.9085480999784,shoe,f,2.3849347999785095,0.23045100003946573,603.908588499995,603.9085999000235,None,603.9246789999888,603.9246789999888,603.9246789999888,,,,,,,,,,,,,,00045,001,2026-01-18_10h35.39.680,MST_task,2024.2.0,59.83548829571322,2026-01-18 10h35.54.433386 +0530,
,Objects\036a.jpg,133,0,134,,,,,,,None,,,f,0.9322029000031762,None,,,,134,0,133,603.9246789999888,,,,,,,,,,,,,,,,,,,,,,,603.9086657000007,603.9246789999888,604.4082491000299,,,,,,,,,,,,,,604.4249699999928,,,,,,,,,,,,,604.4213489000103,604.4249699999928,604.4249699999928,604.4249699999928,607.4085421999916,indoor,None,,,607.4101686999784,608.3583977000089,f,607.424682300014,607.424682300014,607.424682300014,607.424682300014,607.424682300014,0.9322029000031762,None,,,,,,,,,,00045,001,2026-01-18_10h35.39.680,MST_task,2024.2.0,59.83548829571322,2026-01-18 10h35.54.433386 +0530,
,Objects\284a.jpg,134,0,135,,,,,,,j,2.3769792999955826,0.2727667999570258,None,,,,,,135,0,134,608.3746512000216,,,,,,,,,,,,,,,,,,,,,,,608.3584819000098,608.3746512000216,608.8585078000324,,,,,,,,,,,,,,608.8752034999779,,,,,,,,,,,,,608.8692003000178,608.8752034999779,608.8752034999779,608.8752034999779,611.8589492000174,indoor,j,2.3769792999955826,0.2727667999570258,611.8589971999754,611.8590105000185,None,611.8748092000023,611.8748092000023,611.8748092000023,,,,,,,,,,,,,,00045,001,2026-01-18_10h35.39.680,MST_task,2024.2.0,59.83548829571322,2026-01-18 10h35.54.433386 +0530,
,Objects\301a.jpg,135,0,136,,,,,,,j,2.8054920000140555,None,None,,,,,,136,0,135,611.8748092000023,,,,,,,,,,,,,,,,,,,,,,,611.8590802000253,611.8748092000023,612.3582112999866,,,,,,,,,,,,,,612.3750513999839,,,,,,,,,,,,,612.3686274000211,612.3750513999839,612.3750513999839,612.3750513999839,615.3585051000118,indoor,j,2.8054920000140555,None,615.3585485999938,615.3585603000247,None,615.3746707999962,615.3746707999962,615.3746707999962,,,,,,,,,,,,,,00045,001,2026-01-18_10h35.39.680,MST_task,2024.2.0,59.83548829571322,2026-01-18 10h35.54.433386 +0530,
,Objects\137a.jpg,136,0,137,,,,,,,f,2.721309199987445,0.23238090000813827,None,,,,,,137,0,136,615.3746707999962,,,,,,,,,,,,,,,,,,,,,,,615.3586291000247,615.3746707999962,615.8582174999756,,,,,,,,,,,,,,615.8748869000119,,,,,,,,,,,,,615.8680632000323,615.8748869000119,615.8748869000119,615.8748869000119,618.8587364000268,indoor,f,2.721309199987445,0.23238090000813827,618.858781100018,618.8587945000036,None,618.8747187000117,618.8747187000117,618.8747187000117,,,,,,,,,,,,,,00045,001,2026-01-18_10h35.39.680,MST_task,2024.2.0,59.83548829571322,2026-01-18 10h35.54.433386 +0530,
,Objects\147a.jpg,137,0,138,,,,,,,f,2.262111800024286,0.27103389997500926,None,,,,,,138,0,137,618.8747187000117,,,,,,,,,,,,,,,,,,,,,,,618.8588612999883,618.8747187000117,619.3582669000025,,,,,,,,,,,,,,619.3749161000014,,,,,,,,,,,,,619.3684986000299,619.3749161000014,619.3749161000014,619.3749161000014,622.3587054000236,indoor,f,2.262111800024286,0.27103389997500926,622.3587466999888,622.3587580000167,None,622.3747004999896,622.3747004999896,622.3747004999896,,,,,,,,,,,,,,00045,001,2026-01-18_10h35.39.680,MST_task,2024.2.0,59.83548829571322,2026-01-18 10h35.54.433386 +0530,
,Objects\358a.jpg,138,0,139,,,,,,,f,1.3054943999741226,0.24800060002598912,None,,,,,,139,0,138,622.3747004999896,,,,,,,,,,,,,,,,,,,,,,,622.3588212999748,622.3747004999896,622.8583798999898,,,,,,,,,,,,,,622.8752061999985,,,,,,,,,,,,,622.8694911000202,622.8752061999985,622.8752061999985,622.8752061999985,625.8588566000108,indoor,f,1.3054943999741226,0.24800060002598912,625.8589023000095,625.858914899989,None,625.8746659000171,625.8746659000171,625.8746659000171,,,,,,,,,,,,,,00045,001,2026-01-18_10h35.39.680,MST_task,2024.2.0,59.83548829571322,2026-01-18 10h35.54.433386 +0530,
,Objects\222a.jpg,139,0,140,,,,,,,j,1.6375525000039488,0.239917200000491,None,,,,,,140,0,139,625.8746659000171,,,,,,,,,,,,,,,,,,,,,,,625.8589834999875,625.8746659000171,626.3583933999762,,,,,,,,,,,,,,626.3752109999768,,,,,,,,,,,,,626.3688116000267,626.3752109999768,626.3752109999768,626.3752109999768,629.3587012999924,indoor,j,1.6375525000039488,0.239917200000491,629.3587430000189,629.358760699979,None,629.3747214000323,629.3747214000323,629.3747214000323,,,,,,,,,,,,,,00045,001,2026-01-18_10h35.39.680,MST_task,2024.2.0,59.83548829571322,2026-01-18 10h35.54.433386 +0530,
,Objects\346a.jpg,140,0,141,,,,,,,j,2.9535725999739952,None,None,,,,,,141,0,140,629.3747214000323,,,,,,,,,,,,,,,,,,,,,,,629.3588263000129,629.3747214000323,629.8583926000283,,,,,,,,,,,,,,629.8752735999878,,,,,,,,,,,,,629.8704985000077,629.8752735999878,629.8752735999878,629.8752735999878,632.8588255000068,shoe,j,2.9535725999739952,None,632.860955399985,632.860972800001,None,632.874797800032,632.874797800032,632.874797800032,,,,,,,,,,,,,,00045,001,2026-01-18_10h35.39.680,MST_task,2024.2.0,59.83548829571322,2026-01-18 10h35.54.433386 +0530,
,Objects\106a.jpg,141,0,142,,,,,,,f,1.309157200041227,0.24803730001440272,None,,,,,,142,0,141,632.874797800032,,,,,,,,,,,,,,,,,,,,,,,632.8610718999989,632.874797800032,633.3584681000211,,,,,,,,,,,,,,633.375216800021,,,,,,,,,,,,,633.3691982000018,633.375216800021,633.375216800021,633.375216800021,636.3586945999996,shoe,f,1.309157200041227,0.24803730001440272,636.3587346000131,636.3587462999858,None,636.3747806000174,636.3747806000174,636.3747806000174,,,,,,,,,,,,,,00045,001,2026-01-18_10h35.39.680,MST_task,2024.2.0,59.83548829571322,2026-01-18 10h35.54.433386 +0530,
,Objects\151a.jpg,142,0,143,,,,,,,f,1.993682699976489,0.2640001000254415,None,,,,,,143,0,142,636.3747806000174,,,,,,,,,,,,,,,,,,,,,,,636.3588391999947,636.3747806000174,636.8583212000085,,,,,,,,,,,,,,636.8750090000103,,,,,,,,,,,,,636.8680328999762,636.8750090000103,636.8750090000103,636.8750090000103,639.8587228999822,shoe,f,1.993682699976489,0.2640001000254415,639.8587676000316,639.8587801000103,None,639.8747766999877,639.8747766999877,639.8747766999877,,,,,,,,,,,,,,00045,001,2026-01-18_10h35.39.680,MST_task,2024.2.0,59.83548829571322,2026-01-18 10h35.54.433386 +0530,
,Objects\122a.jpg,143,0,144,,,,,,,f,1.4933451000251807,0.2560047999722883,None,,,,,,144,0,143,639.8747766999877,,,,,,,,,,,,,,,,,,,,,,,639.8588469999959,639.8747766999877,640.3584420999978,,,,,,,,,,,,,,640.3749530999921,,,,,,,,,,,,,640.3686452999827,640.3749530999921,640.3749530999921,640.3749530999921,643.3588204000262,shoe,f,1.4933451000251807,0.2560047999722883,643.3588624999975,643.3588742000284,None,643.3747239999939,643.3747239999939,643.3747239999939,,,,,,,,,,,,,,00045,001,2026-01-18_10h35.39.680,MST_task,2024.2.0,59.83548829571322,2026-01-18 10h35.54.433386 +0530,
,Objects\311a.jpg,144,0,145,,,,,,,j,2.8577722999616526,None,None,,,,,,145,0,144,643.3747239999939,,,,,,,,,,,,,,,,,,,,,,,643.3589371999842,643.3747239999939,643.8583252999815,,,,,,,,,,,,,,643.8750657999772,,,,,,,,,,,,,643.8686791000073,643.8750657999772,643.8750657999772,643.8750657999772,646.8585881000035,shoe,j,2.8577722999616526,None,646.8586283000186,646.8586397999898,None,646.874814699986,646.874814699986,646.874814699986,,,,,,,,,,,,,,00045,001,2026-01-18_10h35.39.680,MST_task,2024.2.0,59.83548829571322,2026-01-18 10h35.54.433386 +0530,
,Objects\110a.jpg,145,0,146,,,,,,,f,1.2128285000217147,0.24857120000524446,None,,,,,,146,0,145,646.874814699986,,,,,,,,,,,,,,,,,,,,,,,646.8587019999977,646.874814699986,647.3583187999902,,,,,,,,,,,,,,647.3752965999884,,,,,,,,,,,,,647.3680937000317,647.3752965999884,647.3752965999884,647.3752965999884,650.358676999982,shoe,f,1.2128285000217147,0.24857120000524446,650.3587192000123,650.3587307999842,None,650.374818500015,650.374818500015,650.374818500015,,,,,,,,,,,,,,00045,001,2026-01-18_10h35.39.680,MST_task,2024.2.0,59.83548829571322,2026-01-18 10h35.54.433386 +0530,
,Objects\124a.jpg,146,0,147,,,,,,,j,1.4258772999746725,0.23221250000642613,None,,,,,,147,0,146,650.374818500015,,,,,,,,,,,,,,,,,,,,,,,650.3587936999975,650.374818500015,650.8583462000242,,,,,,,,,,,,,,650.875041900028,,,,,,,,,,,,,650.8678756000008,650.875041900028,650.875041900028,650.875041900028,653.8586300000316,shoe,j,1.4258772999746725,0.23221250000642613,653.858673300012,653.8586858999915,None,653.874782799976,653.874782799976,653.874782799976,,,,,,,,,,,,,,00045,001,2026-01-18_10h35.39.680,MST_task,2024.2.0,59.83548829571322,2026-01-18 10h35.54.433386 +0530,
,Objects\158a.jpg,147,0,148,,,,,,,f,1.6852440999937244,0.2646128999767825,None,,,,,,148,0,147,653.874782799976,,,,,,,,,,,,,,,,,,,,,,,653.8587892000214,653.874782799976,654.3584123000037,,,,,,,,,,,,,,654.3750678999932,,,,,,,,,,,,,654.3696456999751,654.3750678999932,654.3750678999932,654.3750678999932,657.3587997999857,indoor,f,1.6852440999937244,0.2646128999767825,657.3606021000305,657.360620899999,None,,,,,,,,,,,,,,,,,00045,001,2026-01-18_10h35.39.680,MST_task,2024.2.0,59.83548829571322,2026-01-18 10h35.54.433386 +0530,
,Objects\274a.jpg,148,0,149,,,,,,,j,1.4338390000048093,0.2156535999965854,None,,,,,,149,0,148,657.3746457999805,,,,,,,,,,,,,,,,,,,,,,,657.3606922000181,657.3746457999805,657.8583887999994,,,,,,,,,,,,,,657.8750759999966,,,,,,,,,,,,,657.8678691000096,657.8750759999966,657.8750759999966,657.8750759999966,660.8586966000148,indoor,j,1.4338390000048093,0.2156535999965854,660.8587371000322,660.8587488000048,None,660.8747174000018,660.8747174000018,660.8747174000018,,,,,,,,,,,,,,00045,001,2026-01-18_10h35.39.680,MST_task,2024.2.0,59.83548829571322,2026-01-18 10h35.54.433386 +0530,
,Objects\371a.jpg,149,0,150,,,,,,,j,1.9811211999622174,0.2319351999904029,None,,,,,,150,0,149,660.8747174000018,,,,,,,,,,,,,,,,,,,,,,,660.8588148999843,660.8747174000018,661.3582907000091,,,,,,,,,,,,,,661.3751643000287,,,,,,,,,,,,,661.3679308000137,661.3751643000287,661.3751643000287,661.3751643000287,664.3588124000235,indoor,j,1.9811211999622174,0.2319351999904029,664.3588570000138,664.358869299991,None,664.3746594000258,664.3746594000258,664.3746594000258,,,,,,,,,,,,,,00045,001,2026-01-18_10h35.39.680,MST_task,2024.2.0,59.83548829571322,2026-01-18 10h35.54.433386 +0530,
,Objects\234a.jpg,150,0,151,,,,,,,f,1.497546800004784,0.28100809996249154,None,,,,,,151,0,150,664.3746594000258,,,,,,,,,,,,,,,,,,,,,,,664.358935300028,664.3746594000258,664.8583638999844,,,,,,,,,,,,,,664.8751816999866,,,,,,,,,,,,,664.8702282999875,664.8751816999866,664.8751816999866,664.8751816999866,667.8587656000163,indoor,f,1.497546800004784,0.28100809996249154,667.8588097000029,667.8588219999801,None,667.8747106000083,667.8747106000083,667.8747106000083,,,,,,,,,,,,,,00045,001,2026-01-18_10h35.39.680,MST_task,2024.2.0,59.83548829571322,2026-01-18 10h35.54.433386 +0530,
,Objects\236a.jpg,151,0,152,,,,,,,f,2.1008984000072815,0.28000909998081625,None,,,,,,152,0,151,667.8747106000083,,,,,,,,,,,,,,,,,,,,,,,667.8588860000018,667.8747106000083,668.3583156000241,,,,,,,,,,,,,,668.3752358999918,,,,,,,,,,,,,668.3691943000304,668.3752358999918,668.3752358999918,668.3752358999918,671.3586435000179,indoor,f,2.1008984000072815,0.28000909998081625,671.3586880000075,671.3587002999848,None,671.374759999977,671.374759999977,671.374759999977,,,,,,,,,,,,,,00045,001,2026-01-18_10h35.39.680,MST_task,2024.2.0,59.83548829571322,2026-01-18 10h35.54.433386 +0530,
,Objects\136a.jpg,152,0,153,,,,,,,f,1.5138408999773674,0.19935279997298494,None,,,,,,153,0,152,671.374759999977,,,,,,,,,,,,,,,,,,,,,,,671.3587636000011,671.374759999977,671.8584133000113,,,,,,,,,,,,,,671.8752802999807,,,,,,,,,,,,,671.8690299000009,671.8752802999807,671.8752802999807,671.8752802999807,674.8587813000195,indoor,f,1.5138408999773674,0.19935279997298494,674.8588270000182,674.8588391999947,None,674.8748588000308,674.8748588000308,674.8748588000308,,,,,,,,,,,,,,00045,001,2026-01-18_10h35.39.680,MST_task,2024.2.0,59.83548829571322,2026-01-18 10h35.54.433386 +0530,
,Objects\356a.jpg,153,0,154,,,,,,,f,1.8609894000110216,0.2559727000189014,None,,,,,,154,0,153,674.8748588000308,,,,,,,,,,,,,,,,,,,,,,,674.8589050000301,674.8748588000308,675.358387299988,,,,,,,,,,,,,,675.3751598999952,,,,,,,,,,,,,675.3687645000173,675.3751598999952,675.3751598999952,675.3751598999952,678.3589258000138,indoor,f,1.8609894000110216,0.2559727000189014,678.3589702000027,678.3589821999776,None,678.3747409000061,678.3747409000061,678.3747409000061,,,,,,,,,,,,,,00045,001,2026-01-18_10h35.39.680,MST_task,2024.2.0,59.83548829571322,2026-01-18 10h35.54.433386 +0530,
,Objects\195a.jpg,154,0,155,,,,,,,j,2.5375172999920323,0.26426069997251034,None,,,,,,155,0,154,678.3747409000061,,,,,,,,,,,,,,,,,,,,,,,678.3590496000252,678.3747409000061,678.8584107999923,,,,,,,,,,,,,,678.8750165000092,,,,,,,,,,,,,678.8703566999757,678.8750165000092,678.8750165000092,678.8750165000092,681.8587317999918,shoe,j,2.5375172999920323,0.26426069997251034,681.860952100018,681.8609699999797,None,681.8747163999942,681.8747163999942,681.8747163999942,,,,,,,,,,,,,,00045,001,2026-01-18_10h35.39.680,MST_task,2024.2.0,59.83548829571322,2026-01-18 10h35.54.433386 +0530,
,Objects\047a.jpg,155,0,156,,,,,,,f,1.06160070002079,0.2318851999589242,None,,,,,,156,0,155,681.8747163999942,,,,,,,,,,,,,,,,,,,,,,,681.8610420000041,681.8747163999942,682.3583714999841,,,,,,,,,,,,,,682.3750737999799,,,,,,,,,,,,,682.3708445000229,682.3750737999799,682.3750737999799,682.3750737999799,685.3584861999843,shoe,f,1.06160070002079,0.2318851999589242,685.3585272000055,685.3585389999789,None,685.37468790001,685.37468790001,685.37468790001,,,,,,,,,,,,,,00045,001,2026-01-18_10h35.39.680,MST_task,2024.2.0,59.83548829571322,2026-01-18 10h35.54.433386 +0530,
,Objects\383a.jpg,156,0,157,,,,,,,f,1.361420699977316,0.2719941000104882,None,,,,,,157,0,156,685.37468790001,,,,,,,,,,,,,,,,,,,,,,,685.3586341000046,685.37468790001,685.8582482999773,,,,,,,,,,,,,,685.8750938000157,,,,,,,,,,,,,685.8681931000319,685.8750938000157,685.8750938000157,685.8750938000157,688.8584916000254,shoe,f,1.361420699977316,0.2719941000104882,688.8585317999823,688.8585437000147,None,688.8746971000219,688.8746971000219,688.8746971000219,,,,,,,,,,,,,,00045,001,2026-01-18_10h35.39.680,MST_task,2024.2.0,59.83548829571322,2026-01-18 10h35.54.433386 +0530,
