thisN,thisTrialN,thisRepN,key_resp_3.keys,key_resp_3.rt,key_resp_3.duration,trials.thisRepN,trials.thisTrialN,trials.thisN,thisRow.t,notes,intro_page.started,text.started,key_resp.started,intro_page.stopped,key_resp.keys,key_resp.rt,key_resp.duration,instructions.started,text_2.started,key_resp_2.started,instructions.stopped,key_resp_2.keys,key_resp_2.rt,key_resp_2.duration,demo1.started,image_1.started,image_2.started,text_7.started,key_resp_6.started,text_9.started,demo1.stopped,key_resp_6.keys,key_resp_6.rt,key_resp_6.duration,demo3.started,image_5.started,image_6.started,text_11.started,text_12.started,key_resp_8.started,demo3.stopped,key_resp_8.keys,key_resp_8.rt,key_resp_8.duration,demo_conclusion.started,text_13.started,key_resp_9.started,demo_conclusion.stopped,key_resp_9.keys,key_resp_9.rt,key_resp_9.duration,start_test.started,text_6.started,key_resp_5.started,start_test.stopped,key_resp_5.keys,key_resp_5.rt,key_resp_5.duration,ISI.started,text_4.started,ISI.stopped,routine_1.started,image.started,text_3.started,key_resp_3.started,routine_1.stopped,image_path,position_of_stimuli,trials.key_resp_3.keys,trials.key_resp_3.rt,trials.key_resp_3.duration,End_page.started,text_5.started,key_resp_4.started,End_page.stopped,key_resp_4.keys,key_resp_4.rt,key_resp_4.duration,participant,session,date,expName,psychopyVersion,frameRate,expStart,
,,,,,,,,,,,0.018491099996026605,0.03479090001201257,0.03479090001201257,105.79241829999955,space,105.74194139998872,None,,,,,,,,,,,,,,,,,,,,,,,,,,,,,,,,,,,,,,,,,,,,,,,,,,,,,,,,,,,,,,00054,001,2026-01-18_19h26.53.815,MST_test,2024.2.0,59.799599587464556,2026-01-18 19h27.21.827932 +0530,
,,,,,,,,,,,,,,,,,,105.7924570000032,105.80676720000338,105.80676720000338,124.82415990001755,space,19.000771300052293,None,,,,,,,,,,,,,,,,,,,,,,,,,,,,,,,,,,,,,,,,,,,,,,,,,,,,,,,00054,001,2026-01-18_19h26.53.815,MST_test,2024.2.0,59.799599587464556,2026-01-18 19h27.21.827932 +0530,
,,,,,,,,,,,,,,,,,,,,,,,,,124.8241903000162,124.84019129996886,124.84019129996886,124.84019129996886,124.84019129996886,124.84019129996886,135.49492019996978,space,10.64077910000924,None,,,,,,,,,,,,,,,,,,,,,,,,,,,,,,,,,,,,,,,,,,,,,00054,001,2026-01-18_19h26.53.815,MST_test,2024.2.0,59.799599587464556,2026-01-18 19h27.21.827932 +0530,
,,,,,,,,,,,,,,,,,,,,,,,,,,,,,,,,,,,135.49494980002055,135.5110038999701,135.5110038999701,135.5110038999701,135.5110038999701,135.5110038999701,139.5925042000017,space,4.065282999945339,None,,,,,,,,,,,,,,,,,,,,,,,,,,,,,,,,,,,00054,001,2026-01-18_19h26.53.815,MST_test,2024.2.0,59.799599587464556,2026-01-18 19h27.21.827932 +0530,
,,,,,,,,,,,,,,,,,,,,,,,,,,,,,,,,,,,,,,,,,,,,,139.59253119997447,139.60856999998214,139.60856999998214,154.59480899997288,space,14.975001399987377,None,,,,,,,,,,,,,,,,,,,,,,,,,,,,00054,001,2026-01-18_19h26.53.815,MST_test,2024.2.0,59.799599587464556,2026-01-18 19h27.21.827932 +0530,
,,,,,,,,,,,,,,,,,,,,,,,,,,,,,,,,,,,,,,,,,,,,,,,,,,,,154.59484430000884,154.61112050001975,154.61112050001975,166.72129439999117,space,12.092933200008702,None,,,,,,,,,,,,,,,,,,,,,00054,001,2026-01-18_19h26.53.815,MST_test,2024.2.0,59.799599587464556,2026-01-18 19h27.21.827932 +0530,
0,0,1,n,5.065020899986848,None,1,0,0,166.73720199998934,,,,,,,,,,,,,,,,,,,,,,,,,,,,,,,,,,,,,,,,,,,,,,,,,,166.72439519996988,166.73720199998934,167.22212109999964,167.2404998000129,167.2556744000176,167.2556744000176,167.2556744000176,172.32360800000606,Objects\296b.jpg,pre,n,5.065020899986848,None,,,,,,,,00054,001,2026-01-18_19h26.53.815,MST_test,2024.2.0,59.799599587464556,2026-01-18 19h27.21.827932 +0530,
1,0,2,o,3.604088799969759,None,2,0,1,172.3400951999938,,,,,,,,,,,,,,,,,,,,,,,,,,,,,,,,,,,,,,,,,,,,,,,,,,172.3237064999994,172.3400951999938,172.82510890002595,172.83334449998802,172.85981110000284,172.85981110000284,172.85981110000284,176.4717727000243,Objects\008b.jpg,post,o,3.604088799969759,None,,,,,,,,00054,001,2026-01-18_19h26.53.815,MST_test,2024.2.0,59.799599587464556,2026-01-18 19h27.21.827932 +0530,
2,0,3,n,18.850618800031953,None,3,0,2,176.48772719997214,,,,,,,,,,,,,,,,,,,,,,,,,,,,,,,,,,,,,,,,,,,,,,,,,,176.47186469996814,176.48772719997214,176.97292319999542,176.9756324000191,176.98947359999875,176.98947359999875,176.98947359999875,195.8560651000007,Foils\058a.jpg,none,n,18.850618800031953,None,,,,,,,,00054,001,2026-01-18_19h26.53.815,MST_test,2024.2.0,59.799599587464556,2026-01-18 19h27.21.827932 +0530,
3,0,4,s,6.336616199987475,None,4,0,3,195.8722517999704,,,,,,,,,,,,,,,,,,,,,,,,,,,,,,,,,,,,,,,,,,,,,,,,,,195.85616169997957,195.8722517999704,196.3574637999991,196.36733179999283,196.3907334000105,196.3907334000105,196.3907334000105,202.7304703000118,Objects\235b.jpg,post,s,6.336616199987475,None,,,,,,,,00054,001,2026-01-18_19h26.53.815,MST_test,2024.2.0,59.799599587464556,2026-01-18 19h27.21.827932 +0530,
4,0,5,o,4.680323200009298,None,5,0,4,202.7464399000164,,,,,,,,,,,,,,,,,,,,,,,,,,,,,,,,,,,,,,,,,,,,,,,,,,202.7305641999701,202.7464399000164,203.23140089999652,203.23387290001847,203.24830179999117,203.24830179999117,203.24830179999117,207.93196309998166,Objects\204a.jpg,post,o,4.680323200009298,None,,,,,,,,00054,001,2026-01-18_19h26.53.815,MST_test,2024.2.0,59.799599587464556,2026-01-18 19h27.21.827932 +0530,
5,0,6,o,1.5971328999730758,None,6,0,5,207.9478704999783,,,,,,,,,,,,,,,,,,,,,,,,,,,,,,,,,,,,,,,,,,,,,,,,,,207.9320585000096,207.9478704999783,208.43305489997147,208.44080019998364,208.4670956999762,208.4670956999762,208.4670956999762,210.0724638000247,Objects\291a.jpg,mid,o,1.5971328999730758,None,,,,,,,,00054,001,2026-01-18_19h26.53.815,MST_test,2024.2.0,59.799599587464556,2026-01-18 19h27.21.827932 +0530,
6,0,7,s,4.22478550003143,None,7,0,6,210.08881029998884,,,,,,,,,,,,,,,,,,,,,,,,,,,,,,,,,,,,,,,,,,,,,,,,,,210.0725633999682,210.08881029998884,210.57376399997156,210.5895443999907,210.60728960001143,210.60728960001143,210.60728960001143,214.83930699998746,Objects\132b.jpg,post,s,4.22478550003143,None,,,,,,,,00054,001,2026-01-18_19h26.53.815,MST_test,2024.2.0,59.799599587464556,2026-01-18 19h27.21.827932 +0530,
7,0,8,s,7.8265616000280716,None,8,0,7,214.85568639996927,,,,,,,,,,,,,,,,,,,,,,,,,,,,,,,,,,,,,,,,,,,,,,,,,,214.8394046999747,214.85568639996927,215.3406126999762,215.34341329999734,215.3573387999786,215.3573387999786,215.3573387999786,223.185335999995,Objects\197a.jpg,mid,s,7.8265616000280716,None,,,,,,,,00054,001,2026-01-18_19h26.53.815,MST_test,2024.2.0,59.799599587464556,2026-01-18 19h27.21.827932 +0530,
8,0,9,n,1.4956277000019327,None,9,0,8,223.20152359997155,,,,,,,,,,,,,,,,,,,,,,,,,,,,,,,,,,,,,,,,,,,,,,,,,,223.18543160002446,223.20152359997155,223.68634100002237,223.70138460001908,223.71986030001426,223.71986030001426,223.71986030001426,225.22571379999863,Objects\377b.jpg,post,n,1.4956277000019327,None,,,,,,,,00054,001,2026-01-18_19h26.53.815,MST_test,2024.2.0,59.799599587464556,2026-01-18 19h27.21.827932 +0530,
9,0,10,n,0.8170552999945357,None,10,0,9,225.24174829997355,,,,,,,,,,,,,,,,,,,,,,,,,,,,,,,,,,,,,,,,,,,,,,,,,,225.22580810001818,225.24174829997355,225.72709310002392,225.73448220000137,225.7430262999842,225.7430262999842,225.7430262999842,226.56378989998484,Foils\050a.jpg,none,n,0.8170552999945357,None,,,,,,,,00054,001,2026-01-18_19h26.53.815,MST_test,2024.2.0,59.799599587464556,2026-01-18 19h27.21.827932 +0530,
10,0,11,o,1.9186552000464872,None,11,0,10,226.57977289997507,,,,,,,,,,,,,,,,,,,,,,,,,,,,,,,,,,,,,,,,,,,,,,,,,,226.56388759997208,226.57977289997507,227.0655305000255,227.07220840000082,227.08090260002064,227.08090260002064,227.08090260002064,229.00560779997613,Objects\247a.jpg,pre,o,1.9186552000464872,None,,,,,,,,00054,001,2026-01-18_19h26.53.815,MST_test,2024.2.0,59.799599587464556,2026-01-18 19h27.21.827932 +0530,
11,0,12,o,0.9652907999698073,None,12,0,11,229.02166769996984,,,,,,,,,,,,,,,,,,,,,,,,,,,,,,,,,,,,,,,,,,,,,,,,,,229.00570019998122,229.02166769996984,229.5068495000014,229.51374179997947,229.52328879997367,229.52328879997367,229.52328879997367,230.49403320002602,Objects\117a.jpg,pre,o,0.9652907999698073,None,,,,,,,,00054,001,2026-01-18_19h26.53.815,MST_test,2024.2.0,59.799599587464556,2026-01-18 19h27.21.827932 +0530,
12,0,13,o,0.8106083000311628,None,13,0,12,230.510317999986,,,,,,,,,,,,,,,,,,,,,,,,,,,,,,,,,,,,,,,,,,,,,,,,,,230.49412649997976,230.510317999986,230.99527650000528,231.0107919999864,231.02879369998118,231.02879369998118,231.02879369998118,231.84885279997252,Objects\338b.jpg,pre,o,0.8106083000311628,None,,,,,,,,00054,001,2026-01-18_19h26.53.815,MST_test,2024.2.0,59.799599587464556,2026-01-18 19h27.21.827932 +0530,
13,0,14,o,0.8086928999982774,None,14,0,13,231.86507459997665,,,,,,,,,,,,,,,,,,,,,,,,,,,,,,,,,,,,,,,,,,,,,,,,,,231.84895060001872,231.86507459997665,232.35060770000564,232.3583766000229,232.38354319997597,232.38354319997597,232.38354319997597,233.20358879998093,Objects\142a.jpg,post,o,0.8086928999982774,None,,,,,,,,00054,001,2026-01-18_19h26.53.815,MST_test,2024.2.0,59.799599587464556,2026-01-18 19h27.21.827932 +0530,
14,0,15,s,2.1973024000180885,None,15,0,14,233.21968909999123,,,,,,,,,,,,,,,,,,,,,,,,,,,,,,,,,,,,,,,,,,,,,,,,,,233.20367989997612,233.21968909999123,233.7049119999865,233.71465370000806,233.73818029998802,233.73818029998802,233.73818029998802,235.9464816999971,Objects\089b.jpg,pre,s,2.1973024000180885,None,,,,,,,,00054,001,2026-01-18_19h26.53.815,MST_test,2024.2.0,59.799599587464556,2026-01-18 19h27.21.827932 +0530,
15,0,16,n,0.7260050000040792,None,16,0,15,235.96274529997027,,,,,,,,,,,,,,,,,,,,,,,,,,,,,,,,,,,,,,,,,,,,,,,,,,235.94657959998585,235.96274529997027,236.44772240001475,236.4570275999722,236.4817854000139,236.4817854000139,236.4817854000139,237.21789279999211,Objects\086b.jpg,mid,n,0.7260050000040792,None,,,,,,,,00054,001,2026-01-18_19h26.53.815,MST_test,2024.2.0,59.799599587464556,2026-01-18 19h27.21.827932 +0530,
16,0,17,s,4.472466200008057,None,17,0,16,237.23375660000602,,,,,,,,,,,,,,,,,,,,,,,,,,,,,,,,,,,,,,,,,,,,,,,,,,237.21798229997512,237.23375660000602,237.7189380999771,237.7262713999953,237.73493239999516,237.73493239999516,237.73493239999516,242.2185869999812,Objects\205a.jpg,mid,s,4.472466200008057,None,,,,,,,,00054,001,2026-01-18_19h26.53.815,MST_test,2024.2.0,59.799599587464556,2026-01-18 19h27.21.827932 +0530,
17,0,18,n,1.9827665999764577,None,18,0,17,242.23487400001613,,,,,,,,,,,,,,,,,,,,,,,,,,,,,,,,,,,,,,,,,,,,,,,,,,242.21868859999813,242.23487400001613,242.7196640999755,242.73651070002234,242.75318709999556,242.75318709999556,242.75318709999556,244.74378309998428,Objects\266b.jpg,mid,n,1.9827665999764577,None,,,,,,,,00054,001,2026-01-18_19h26.53.815,MST_test,2024.2.0,59.799599587464556,2026-01-18 19h27.21.827932 +0530,
18,0,19,s,1.619634100003168,None,19,0,18,244.75991590000922,,,,,,,,,,,,,,,,,,,,,,,,,,,,,,,,,,,,,,,,,,,,,,,,,,244.7438818999799,244.75991590000922,245.2448868000065,245.25255859998288,245.26097639999352,245.26097639999352,245.26097639999352,246.88450320000993,Foils\081a.jpg,none,s,1.619634100003168,None,,,,,,,,00054,001,2026-01-18_19h26.53.815,MST_test,2024.2.0,59.799599587464556,2026-01-18 19h27.21.827932 +0530,
19,0,20,n,1.2372304000309668,None,20,0,19,246.90074289997574,,,,,,,,,,,,,,,,,,,,,,,,,,,,,,,,,,,,,,,,,,,,,,,,,,246.88459580001654,246.90074289997574,247.38588339998387,247.3888134000008,247.4024637999828,247.4024637999828,247.4024637999828,248.64099970000098,Foils\010a.jpg,none,n,1.2372304000309668,None,,,,,,,,00054,001,2026-01-18_19h26.53.815,MST_test,2024.2.0,59.799599587464556,2026-01-18 19h27.21.827932 +0530,
20,0,21,o,1.6496149000013247,None,21,0,20,248.65678489999846,,,,,,,,,,,,,,,,,,,,,,,,,,,,,,,,,,,,,,,,,,,,,,,,,,248.6410971999867,248.65678489999846,249.14198600000236,249.14446330000646,249.15862080000807,249.15862080000807,249.15862080000807,250.81513399997493,Objects\064a.jpg,mid,o,1.6496149000013247,None,,,,,,,,00054,001,2026-01-18_19h26.53.815,MST_test,2024.2.0,59.799599587464556,2026-01-18 19h27.21.827932 +0530,
21,0,22,s,2.178204199997708,None,22,0,21,250.8310701000155,,,,,,,,,,,,,,,,,,,,,,,,,,,,,,,,,,,,,,,,,,,,,,,,,,250.8152261999785,250.8310701000155,251.3162484000204,251.32535629998893,251.3495002000127,251.3495002000127,251.3495002000127,253.54139269998996,Objects\160b.jpg,pre,s,2.178204199997708,None,,,,,,,,00054,001,2026-01-18_19h26.53.815,MST_test,2024.2.0,59.799599587464556,2026-01-18 19h27.21.827932 +0530,
22,0,23,o,1.5723302999977022,None,23,0,22,253.55727849999676,,,,,,,,,,,,,,,,,,,,,,,,,,,,,,,,,,,,,,,,,,,,,,,,,,253.54148969997186,253.55727849999676,254.04268800001591,254.04831959999865,254.0591992000118,254.0591992000118,254.0591992000118,255.6488635999849,Objects\210a.jpg,mid,o,1.5723302999977022,None,,,,,,,,00054,001,2026-01-18_19h26.53.815,MST_test,2024.2.0,59.799599587464556,2026-01-18 19h27.21.827932 +0530,
23,0,24,o,0.9450872999732383,None,24,0,23,255.66479429998435,,,,,,,,,,,,,,,,,,,,,,,,,,,,,,,,,,,,,,,,,,,,,,,,,,255.64896129997214,255.66479429998435,256.1498573999852,256.15757510002004,256.16645020002034,256.16645020002034,256.16645020002034,257.1204904000042,Objects\366a.jpg,pre,o,0.9450872999732383,None,,,,,,,,00054,001,2026-01-18_19h26.53.815,MST_test,2024.2.0,59.799599587464556,2026-01-18 19h27.21.827932 +0530,
24,0,25,o,1.0728359999484383,None,25,0,24,257.13646609999705,,,,,,,,,,,,,,,,,,,,,,,,,,,,,,,,,,,,,,,,,,,,,,,,,,257.12058729998535,257.13646609999705,257.6216839000117,257.6306426000083,257.6553149999818,257.6553149999818,257.6553149999818,258.74326339998515,Objects\032b.jpg,post,o,1.0728359999484383,None,,,,,,,,00054,001,2026-01-18_19h26.53.815,MST_test,2024.2.0,59.799599587464556,2026-01-18 19h27.21.827932 +0530,
25,0,26,s,1.7788698999793269,None,26,0,25,258.75881730002584,,,,,,,,,,,,,,,,,,,,,,,,,,,,,,,,,,,,,,,,,,,,,,,,,,258.74336869997205,258.75881730002584,259.2440111999749,259.24735830002464,259.26116340002045,259.26116340002045,259.26116340002045,261.05107990000397,Objects\043a.jpg,mid,s,1.7788698999793269,None,,,,,,,,00054,001,2026-01-18_19h26.53.815,MST_test,2024.2.0,59.799599587464556,2026-01-18 19h27.21.827932 +0530,
26,0,27,s,1.5906967999762855,None,27,0,26,261.0669251999934,,,,,,,,,,,,,,,,,,,,,,,,,,,,,,,,,,,,,,,,,,,,,,,,,,261.051178099995,261.0669251999934,261.5520979000139,261.5613332000212,261.58535259997007,261.58535259997007,261.58535259997007,263.1915144000086,Objects\376b.jpg,post,s,1.5906967999762855,None,,,,,,,,00054,001,2026-01-18_19h26.53.815,MST_test,2024.2.0,59.799599587464556,2026-01-18 19h27.21.827932 +0530,
27,0,28,s,1.3782712999964133,None,28,0,27,263.20801820000634,,,,,,,,,,,,,,,,,,,,,,,,,,,,,,,,,,,,,,,,,,,,,,,,,,263.19160770002054,263.20801820000634,263.69285290001426,263.69534630002454,263.7095651999698,263.7095651999698,263.7095651999698,265.09833449998405,Objects\075a.jpg,mid,s,1.3782712999964133,None,,,,,,,,00054,001,2026-01-18_19h26.53.815,MST_test,2024.2.0,59.799599587464556,2026-01-18 19h27.21.827932 +0530,
28,0,29,n,1.2320538999629207,None,29,0,28,265.11452429997735,,,,,,,,,,,,,,,,,,,,,,,,,,,,,,,,,,,,,,,,,,,,,,,,,,265.09842429996934,265.11452429997735,265.5994932000176,265.602095499984,265.6162502000225,265.6162502000225,265.6162502000225,266.8547538999701,Objects\141b.jpg,pre,n,1.2320538999629207,None,,,,,,,,00054,001,2026-01-18_19h26.53.815,MST_test,2024.2.0,59.799599587464556,2026-01-18 19h27.21.827932 +0530,
29,0,30,o,1.7388943000114523,None,30,0,29,266.8706950999913,,,,,,,,,,,,,,,,,,,,,,,,,,,,,,,,,,,,,,,,,,,,,,,,,,266.8548480999889,266.8706950999913,267.3560134000145,267.3592411999707,267.37293830001727,267.37293830001727,267.37293830001727,269.11290700000245,Objects\161a.jpg,mid,o,1.7388943000114523,None,,,,,,,,00054,001,2026-01-18_19h26.53.815,MST_test,2024.2.0,59.799599587464556,2026-01-18 19h27.21.827932 +0530,
30,0,31,n,1.3607786999782547,None,31,0,30,269.1287078000023,,,,,,,,,,,,,,,,,,,,,,,,,,,,,,,,,,,,,,,,,,,,,,,,,,269.1130095999688,269.1287078000023,269.6137035000138,269.6239380000043,269.6475644999882,269.6475644999882,269.6475644999882,271.01946129999124,Objects\203b.jpg,pre,n,1.3607786999782547,None,,,,,,,,00054,001,2026-01-18_19h26.53.815,MST_test,2024.2.0,59.799599587464556,2026-01-18 19h27.21.827932 +0530,
31,0,32,s,1.5029135000077076,None,32,0,31,271.03512610000325,,,,,,,,,,,,,,,,,,,,,,,,,,,,,,,,,,,,,,,,,,,,,,,,,,271.019557600026,271.03512610000325,271.52032930002315,271.52842539997073,271.5364309999859,271.5364309999859,271.5364309999859,273.0429519999889,Objects\361a.jpg,post,s,1.5029135000077076,None,,,,,,,,00054,001,2026-01-18_19h26.53.815,MST_test,2024.2.0,59.799599587464556,2026-01-18 19h27.21.827932 +0530,
32,0,33,o,1.5831463999929838,None,33,0,32,273.059009300021,,,,,,,,,,,,,,,,,,,,,,,,,,,,,,,,,,,,,,,,,,,,,,,,,,273.0430480000214,273.059009300021,273.54396939999424,273.5488614999922,273.56071150000207,273.56071150000207,273.56071150000207,275.1502554999897,Foils\f6.jpg,none,o,1.5831463999929838,None,,,,,,,,00054,001,2026-01-18_19h26.53.815,MST_test,2024.2.0,59.799599587464556,2026-01-18 19h27.21.827932 +0530,
33,0,34,n,1.0039988999487832,None,34,0,33,275.1663804000127,,,,,,,,,,,,,,,,,,,,,,,,,,,,,,,,,,,,,,,,,,,,,,,,,,275.15035120001994,275.1663804000127,275.65135419997387,275.65884260000894,275.66812440002104,275.66812440002104,275.66812440002104,276.67265389999375,Objects\011a.jpg,mid,n,1.0039988999487832,None,,,,,,,,00054,001,2026-01-18_19h26.53.815,MST_test,2024.2.0,59.799599587464556,2026-01-18 19h27.21.827932 +0530,
34,0,35,s,3.1620278999907896,None,35,0,34,276.6882686999743,,,,,,,,,,,,,,,,,,,,,,,,,,,,,,,,,,,,,,,,,,,,,,,,,,276.6727437999798,276.6882686999743,277.17347350000637,277.18723550002323,277.2067037000088,277.2067037000088,277.2067037000088,280.3852764000185,Objects\352b.jpg,post,s,3.1620278999907896,None,,,,,,,,00054,001,2026-01-18_19h26.53.815,MST_test,2024.2.0,59.799599587464556,2026-01-18 19h27.21.827932 +0530,
35,0,36,o,1.9695139999967068,None,36,0,35,280.4013810000033,,,,,,,,,,,,,,,,,,,,,,,,,,,,,,,,,,,,,,,,,,,,,,,,,,280.385370199976,280.4013810000033,280.88633489998756,280.892817999993,280.9030904999818,280.9030904999818,280.9030904999818,282.8773908999865,Objects\287a.jpg,post,o,1.9695139999967068,None,,,,,,,,00054,001,2026-01-18_19h26.53.815,MST_test,2024.2.0,59.799599587464556,2026-01-18 19h27.21.827932 +0530,
36,0,37,s,3.89234810002381,None,37,0,36,282.89332099998137,,,,,,,,,,,,,,,,,,,,,,,,,,,,,,,,,,,,,,,,,,,,,,,,,,282.8774827999878,282.89332099998137,283.3785256000119,283.39405319996877,283.4117664999794,283.4117664999794,283.4117664999794,287.3093563999864,Objects\267b.jpg,pre,s,3.89234810002381,None,,,,,,,,00054,001,2026-01-18_19h26.53.815,MST_test,2024.2.0,59.799599587464556,2026-01-18 19h27.21.827932 +0530,
37,0,38,o,1.4334085999871604,None,38,0,37,287.32563540001865,,,,,,,,,,,,,,,,,,,,,,,,,,,,,,,,,,,,,,,,,,,,,,,,,,287.30944979999913,287.32563540001865,287.81058920000214,287.8199536000029,287.8471013000235,287.8471013000235,287.8471013000235,289.2831492999685,Objects\033b.jpg,pre,o,1.4334085999871604,None,,,,,,,,00054,001,2026-01-18_19h26.53.815,MST_test,2024.2.0,59.799599587464556,2026-01-18 19h27.21.827932 +0530,
38,0,39,n,0.6553561999462545,None,39,0,38,289.29908229998546,,,,,,,,,,,,,,,,,,,,,,,,,,,,,,,,,,,,,,,,,,,,,,,,,,289.2832411999698,289.29908229998546,289.7844262999715,289.78723519999767,289.80081450002035,289.80081450002035,289.80081450002035,290.4710605000146,Foils\074a.jpg,none,n,0.6553561999462545,None,,,,,,,,00054,001,2026-01-18_19h26.53.815,MST_test,2024.2.0,59.799599587464556,2026-01-18 19h27.21.827932 +0530,
39,0,40,s,1.795788299990818,None,40,0,39,290.4867207999923,,,,,,,,,,,,,,,,,,,,,,,,,,,,,,,,,,,,,,,,,,,,,,,,,,290.47116509999614,290.4867207999923,290.9716855000006,290.9787288000225,290.9884486999945,290.9884486999945,290.9884486999945,292.7953245000099,Objects\327b.jpg,post,s,1.795788299990818,None,,,,,,,,00054,001,2026-01-18_19h26.53.815,MST_test,2024.2.0,59.799599587464556,2026-01-18 19h27.21.827932 +0530,
40,0,41,o,1.462945099978242,None,41,0,40,292.81150219996925,,,,,,,,,,,,,,,,,,,,,,,,,,,,,,,,,,,,,,,,,,,,,,,,,,292.79542159999255,292.81150219996925,293.29646629997296,293.3015803999733,293.3132205000147,293.3132205000147,293.3132205000147,294.78569200000493,Objects\231a.jpg,pre,o,1.462945099978242,None,,,,,,,,00054,001,2026-01-18_19h26.53.815,MST_test,2024.2.0,59.799599587464556,2026-01-18 19h27.21.827932 +0530,
41,0,42,s,1.3841735000023618,None,42,0,41,294.80182900000364,,,,,,,,,,,,,,,,,,,,,,,,,,,,,,,,,,,,,,,,,,,,,,,,,,294.785786500026,294.80182900000364,295.2868821999873,295.302023599972,295.3201322000241,295.3201322000241,295.3201322000241,296.7089577000006,Objects\290b.jpg,mid,s,1.3841735000023618,None,,,,,,,,00054,001,2026-01-18_19h26.53.815,MST_test,2024.2.0,59.799599587464556,2026-01-18 19h27.21.827932 +0530,
42,0,43,o,1.4360973000293598,None,43,0,42,296.7250746000209,,,,,,,,,,,,,,,,,,,,,,,,,,,,,,,,,,,,,,,,,,,,,,,,,,296.70904919999884,296.7250746000209,297.2104003999848,297.2244174000225,297.2436908999807,297.2436908999807,297.2436908999807,298.6825761999935,Objects\232b.jpg,post,o,1.4360973000293598,None,,,,,,,,00054,001,2026-01-18_19h26.53.815,MST_test,2024.2.0,59.799599587464556,2026-01-18 19h27.21.827932 +0530,
43,0,44,n,0.9425184999709018,None,44,0,43,298.6989150000154,,,,,,,,,,,,,,,,,,,,,,,,,,,,,,,,,,,,,,,,,,,,,,,,,,298.68267539999215,298.6989150000154,299.18435060000047,299.1921525999787,299.2172879999853,299.2172879999853,299.2172879999853,300.17106169997714,Objects\304a.jpg,post,n,0.9425184999709018,None,,,,,,,,00054,001,2026-01-18_19h26.53.815,MST_test,2024.2.0,59.799599587464556,2026-01-18 19h27.21.827932 +0530,
44,0,45,s,2.3418887000298128,None,45,0,44,300.18732630001614,,,,,,,,,,,,,,,,,,,,,,,,,,,,,,,,,,,,,,,,,,,,,,,,,,300.1712392999907,300.18732630001614,300.67230199999176,300.6859752999735,300.7057815999724,300.7057815999724,300.7057815999724,303.0645547999884,Objects\369b.jpg,mid,s,2.3418887000298128,None,,,,,,,,00054,001,2026-01-18_19h26.53.815,MST_test,2024.2.0,59.799599587464556,2026-01-18 19h27.21.827932 +0530,
45,0,46,o,1.305656899989117,None,46,0,45,303.0807985999854,,,,,,,,,,,,,,,,,,,,,,,,,,,,,,,,,,,,,,,,,,,,,,,,,,303.0646508000209,303.0807985999854,303.5657812000136,303.56870699999854,303.5825084000244,303.5825084000244,303.5825084000244,304.9042881000205,Objects\150a.jpg,post,o,1.305656899989117,None,,,,,,,,00054,001,2026-01-18_19h26.53.815,MST_test,2024.2.0,59.799599587464556,2026-01-18 19h27.21.827932 +0530,
46,0,47,s,4.6731558999745175,None,47,0,46,304.9206441999995,,,,,,,,,,,,,,,,,,,,,,,,,,,,,,,,,,,,,,,,,,,,,,,,,,304.904388200026,304.9206441999995,305.4059739999939,305.420679199975,305.4388920000056,305.4388920000056,305.4388920000056,310.12271839997265,Objects\284b.jpg,post,s,4.6731558999745175,None,,,,,,,,00054,001,2026-01-18_19h26.53.815,MST_test,2024.2.0,59.799599587464556,2026-01-18 19h27.21.827932 +0530,
47,0,48,s,0.9023740999982692,None,48,0,47,310.1388404999743,,,,,,,,,,,,,,,,,,,,,,,,,,,,,,,,,,,,,,,,,,,,,,,,,,310.1228094000253,310.1388404999743,310.6238161000074,310.6334958000225,310.6572806999902,310.6572806999902,310.6572806999902,311.5611958000227,Objects\236a.jpg,mid,s,0.9023740999982692,None,,,,,,,,00054,001,2026-01-18_19h26.53.815,MST_test,2024.2.0,59.799599587464556,2026-01-18 19h27.21.827932 +0530,
48,0,49,s,1.0727403999771923,None,49,0,48,311.5770894999732,,,,,,,,,,,,,,,,,,,,,,,,,,,,,,,,,,,,,,,,,,,,,,,,,,311.5612874000217,311.5770894999732,312.0622895999695,312.0697823999799,312.0787234000163,312.0787234000163,312.0787234000163,313.16655650001485,Foils\066a.jpg,none,s,1.0727403999771923,None,,,,,,,,00054,001,2026-01-18_19h26.53.815,MST_test,2024.2.0,59.799599587464556,2026-01-18 19h27.21.827932 +0530,
49,0,50,n,1.307747400016524,None,50,0,49,313.1827311000088,,,,,,,,,,,,,,,,,,,,,,,,,,,,,,,,,,,,,,,,,,,,,,,,,,313.1666488000192,313.1827311000088,313.66792099998565,313.67261559999315,313.6844392999774,313.6844392999774,313.6844392999774,315.0063354999875,Foils\f7.jpg,none,n,1.307747400016524,None,,,,,,,,00054,001,2026-01-18_19h26.53.815,MST_test,2024.2.0,59.799599587464556,2026-01-18 19h27.21.827932 +0530,
50,0,51,n,0.636191500001587,None,51,0,50,315.02248909999616,,,,,,,,,,,,,,,,,,,,,,,,,,,,,,,,,,,,,,,,,,,,,,,,,,315.0064454000094,315.02248909999616,315.5076844000141,315.5152977000107,315.5243793000118,315.5243793000118,315.5243793000118,316.1773411000031,Foils\042a.jpg,none,n,0.636191500001587,None,,,,,,,,00054,001,2026-01-18_19h26.53.815,MST_test,2024.2.0,59.799599587464556,2026-01-18 19h27.21.827932 +0530,
51,0,52,s,1.5129742000135593,None,52,0,51,316.1932781999931,,,,,,,,,,,,,,,,,,,,,,,,,,,,,,,,,,,,,,,,,,,,,,,,,,316.17743799998425,316.1932781999931,316.6784440000192,316.6808480999898,316.69497710000724,316.69497710000724,316.69497710000724,318.2176499000052,Objects\276b.jpg,pre,s,1.5129742000135593,None,,,,,,,,00054,001,2026-01-18_19h26.53.815,MST_test,2024.2.0,59.799599587464556,2026-01-18 19h27.21.827932 +0530,
52,0,53,n,1.4640338000026532,None,53,0,52,318.2337382999831,,,,,,,,,,,,,,,,,,,,,,,,,,,,,,,,,,,,,,,,,,,,,,,,,,318.21774260001257,318.2337382999831,318.7189412000007,318.7219098000205,318.7354482000228,318.7354482000228,318.7354482000228,320.20785180001985,Foils\018a.jpg,none,n,1.4640338000026532,None,,,,,,,,00054,001,2026-01-18_19h26.53.815,MST_test,2024.2.0,59.799599587464556,2026-01-18 19h27.21.827932 +0530,
53,0,54,n,0.6820770999765955,None,54,0,53,320.22415289998753,,,,,,,,,,,,,,,,,,,,,,,,,,,,,,,,,,,,,,,,,,,,,,,,,,320.2079553999938,320.22415289998753,320.70910249999724,320.71206460002577,320.72599840001203,320.72599840001203,320.72599840001203,321.412073399988,Foils\090a.jpg,none,n,0.6820770999765955,None,,,,,,,,00054,001,2026-01-18_19h26.53.815,MST_test,2024.2.0,59.799599587464556,2026-01-18 19h27.21.827932 +0530,
54,0,55,n,0.7416007000138052,None,55,0,54,321.42839610000374,,,,,,,,,,,,,,,,,,,,,,,,,,,,,,,,,,,,,,,,,,,,,,,,,,321.41216800000984,321.42839610000374,321.9133266999852,321.9158011000254,321.9301017000107,321.9301017000107,321.9301017000107,322.6833719999995,Objects\212b.jpg,mid,n,0.7416007000138052,None,,,,,,,,00054,001,2026-01-18_19h26.53.815,MST_test,2024.2.0,59.799599587464556,2026-01-18 19h27.21.827932 +0530,
55,0,56,n,1.7022539000026882,None,56,0,55,322.69937639997806,,,,,,,,,,,,,,,,,,,,,,,,,,,,,,,,,,,,,,,,,,,,,,,,,,322.683465900016,322.69937639997806,323.1845779999858,323.1939864999731,323.21782099996926,323.21782099996926,323.21782099996926,324.92464709997876,Objects\010b.jpg,post,n,1.7022539000026882,None,,,,,,,,00054,001,2026-01-18_19h26.53.815,MST_test,2024.2.0,59.799599587464556,2026-01-18 19h27.21.827932 +0530,
56,0,57,o,1.1575889000087045,None,57,0,56,324.9406794999959,,,,,,,,,,,,,,,,,,,,,,,,,,,,,,,,,,,,,,,,,,,,,,,,,,324.9247392999823,324.9406794999959,325.4256430999958,325.4331474999781,325.44203869998455,325.44203869998455,325.44203869998455,326.61364820000017,Objects\300a.jpg,post,o,1.1575889000087045,None,,,,,,,,00054,001,2026-01-18_19h26.53.815,MST_test,2024.2.0,59.799599587464556,2026-01-18 19h27.21.827932 +0530,
57,0,58,o,1.9885438000201248,None,58,0,57,326.62979999999516,,,,,,,,,,,,,,,,,,,,,,,,,,,,,,,,,,,,,,,,,,,,,,,,,,326.6137438999722,326.62979999999516,327.1151119999704,327.12278470001183,327.13103180000326,327.13103180000326,327.13103180000326,329.122715000005,Objects\138a.jpg,pre,o,1.9885438000201248,None,,,,,,,,00054,001,2026-01-18_19h26.53.815,MST_test,2024.2.0,59.799599587464556,2026-01-18 19h27.21.827932 +0530,
58,0,59,o,0.8233343999600038,None,59,0,58,329.13909289997537,,,,,,,,,,,,,,,,,,,,,,,,,,,,,,,,,,,,,,,,,,,,,,,,,,329.1228201999911,329.13909289997537,329.6237994999974,329.62668940000003,329.6404528999701,329.6404528999701,329.6404528999701,330.4772555999807,Objects\164a.jpg,post,o,0.8233343999600038,None,,,,,,,,00054,001,2026-01-18_19h26.53.815,MST_test,2024.2.0,59.799599587464556,2026-01-18 19h27.21.827932 +0530,
59,0,60,s,1.2443276999983937,None,60,0,59,330.4935900999699,,,,,,,,,,,,,,,,,,,,,,,,,,,,,,,,,,,,,,,,,,,,,,,,,,330.4773484999896,330.4935900999699,330.97868060000474,330.9928149000043,331.01188629999524,331.01188629999524,331.01188629999524,332.26683879998745,Objects\362b.jpg,mid,s,1.2443276999983937,None,,,,,,,,00054,001,2026-01-18_19h26.53.815,MST_test,2024.2.0,59.799599587464556,2026-01-18 19h27.21.827932 +0530,
60,0,61,s,2.2478954000398517,None,61,0,60,332.2830447999877,,,,,,,,,,,,,,,,,,,,,,,,,,,,,,,,,,,,,,,,,,,,,,,,,,332.2669292999781,332.2830447999877,332.7680096999975,332.7757630000124,332.7845159000135,332.7845159000135,332.7845159000135,335.043179899978,Objects\115a.jpg,pre,s,2.2478954000398517,None,,,,,,,,00054,001,2026-01-18_19h26.53.815,MST_test,2024.2.0,59.799599587464556,2026-01-18 19h27.21.827932 +0530,
61,0,62,o,1.3106266999966465,None,62,0,61,335.05942750000395,,,,,,,,,,,,,,,,,,,,,,,,,,,,,,,,,,,,,,,,,,,,,,,,,,335.04327620001277,335.05942750000395,335.5445372000104,335.5471624999773,335.5611562000122,335.5611562000122,335.5611562000122,336.88292339997133,Objects\137a.jpg,post,o,1.3106266999966465,None,,,,,,,,00054,001,2026-01-18_19h26.53.815,MST_test,2024.2.0,59.799599587464556,2026-01-18 19h27.21.827932 +0530,
62,0,63,o,1.4392491999897175,None,63,0,62,336.899205899972,,,,,,,,,,,,,,,,,,,,,,,,,,,,,,,,,,,,,,,,,,,,,,,,,,336.88301489996957,336.899205899972,337.3841677000164,337.3910578999785,337.4009579999838,337.4009579999838,337.4009579999838,338.8573975000181,Objects\325a.jpg,post,o,1.4392491999897175,None,,,,,,,,00054,001,2026-01-18_19h26.53.815,MST_test,2024.2.0,59.799599587464556,2026-01-18 19h27.21.827932 +0530,
63,0,64,s,1.9783269999898039,None,64,0,63,338.8727875999757,,,,,,,,,,,,,,,,,,,,,,,,,,,,,,,,,,,,,,,,,,,,,,,,,,338.8574862999958,338.8727875999757,339.3577701000031,339.3647345000063,339.37460350000765,339.37460350000765,339.37460350000765,341.3652546000085,Objects\371a.jpg,post,s,1.9783269999898039,None,,,,,,,,00054,001,2026-01-18_19h26.53.815,MST_test,2024.2.0,59.799599587464556,2026-01-18 19h27.21.827932 +0530,
64,0,65,o,1.2285533000249416,None,65,0,64,341.3814540000167,,,,,,,,,,,,,,,,,,,,,,,,,,,,,,,,,,,,,,,,,,,,,,,,,,341.3653542000102,341.3814540000167,341.8666833000025,341.87278129998595,341.8831721000024,341.8831721000024,341.8831721000024,343.1215360999922,Objects\202a.jpg,pre,o,1.2285533000249416,None,,,,,,,,00054,001,2026-01-18_19h26.53.815,MST_test,2024.2.0,59.799599587464556,2026-01-18 19h27.21.827932 +0530,
65,0,66,s,1.9843895999947563,None,66,0,65,343.13772970001446,,,,,,,,,,,,,,,,,,,,,,,,,,,,,,,,,,,,,,,,,,,,,,,,,,343.12164289999055,343.13772970001446,343.6227543000132,343.62923650001176,343.63947900000494,343.63947900000494,343.63947900000494,345.6302114999853,Objects\250a.jpg,mid,s,1.9843895999947563,None,,,,,,,,00054,001,2026-01-18_19h26.53.815,MST_test,2024.2.0,59.799599587464556,2026-01-18 19h27.21.827932 +0530,
66,0,67,n,0.9226532999891788,None,67,0,66,345.64656730002025,,,,,,,,,,,,,,,,,,,,,,,,,,,,,,,,,,,,,,,,,,,,,,,,,,345.63030939997407,345.64656730002025,346.13160069996957,346.14566149999155,346.16495649999706,346.16495649999706,346.16495649999706,347.10284439998213,Objects\339b.jpg,mid,n,0.9226532999891788,None,,,,,,,,00054,001,2026-01-18_19h26.53.815,MST_test,2024.2.0,59.799599587464556,2026-01-18 19h27.21.827932 +0530,
67,0,68,o,1.7005377999739721,None,68,0,67,347.11820079997415,,,,,,,,,,,,,,,,,,,,,,,,,,,,,,,,,,,,,,,,,,,,,,,,,,347.1029427999747,347.11820079997415,347.6034084999701,347.6111777999904,347.61963309999555,347.61963309999555,347.61963309999555,349.3272407000186,Objects\130a.jpg,mid,o,1.7005377999739721,None,,,,,,,,00054,001,2026-01-18_19h26.53.815,MST_test,2024.2.0,59.799599587464556,2026-01-18 19h27.21.827932 +0530,
68,0,69,s,1.5947900000028312,None,69,0,68,349.3427765999804,,,,,,,,,,,,,,,,,,,,,,,,,,,,,,,,,,,,,,,,,,,,,,,,,,349.32733759999974,349.3427765999804,349.82774199999403,349.8370227999985,349.8612149999826,349.8612149999826,349.8612149999826,351.4672677000053,Objects\096b.jpg,mid,s,1.5947900000028312,None,,,,,,,,00054,001,2026-01-18_19h26.53.815,MST_test,2024.2.0,59.799599587464556,2026-01-18 19h27.21.827932 +0530,
69,0,70,n,1.1021407999796793,None,70,0,69,351.4835327999899,,,,,,,,,,,,,,,,,,,,,,,,,,,,,,,,,,,,,,,,,,,,,,,,,,351.467433599988,351.4835327999899,351.9688070999691,351.9718657999765,351.9852039000252,351.9852039000252,351.9852039000252,353.08957820001524,Foils\034a.jpg,none,n,1.1021407999796793,None,,,,,,,,00054,001,2026-01-18_19h26.53.815,MST_test,2024.2.0,59.799599587464556,2026-01-18 19h27.21.827932 +0530,
70,0,71,s,1.752043499960564,None,71,0,70,353.10595320002176,,,,,,,,,,,,,,,,,,,,,,,,,,,,,,,,,,,,,,,,,,,,,,,,,,353.0896902999957,353.10595320002176,353.59093130001565,353.5936157000251,353.60768309998093,353.60768309998093,353.60768309998093,355.3643920000177,Objects\072a.jpg,pre,s,1.752043499960564,None,,,,,,,,00054,001,2026-01-18_19h26.53.815,MST_test,2024.2.0,59.799599587464556,2026-01-18 19h27.21.827932 +0530,
71,0,72,o,2.1738685999880545,None,72,0,71,355.3805863999878,,,,,,,,,,,,,,,,,,,,,,,,,,,,,,,,,,,,,,,,,,,,,,,,,,355.36448270000983,355.3805863999878,355.86615449999226,355.8728799999808,355.88178809999954,355.88178809999954,355.88178809999954,358.05733410001267,Objects\346a.jpg,pre,o,2.1738685999880545,None,,,,,,,,00054,001,2026-01-18_19h26.53.815,MST_test,2024.2.0,59.799599587464556,2026-01-18 19h27.21.827932 +0530,
72,0,73,s,1.8243199000135064,None,73,0,72,358.07335109997075,,,,,,,,,,,,,,,,,,,,,,,,,,,,,,,,,,,,,,,,,,,,,,,,,,358.0574267000193,358.07335109997075,358.55832010001177,358.56562239996856,358.5750619000173,358.5750619000173,358.5750619000173,360.4154755999916,Objects\313a.jpg,pre,s,1.8243199000135064,None,,,,,,,,00054,001,2026-01-18_19h26.53.815,MST_test,2024.2.0,59.799599587464556,2026-01-18 19h27.21.827932 +0530,
73,0,74,o,1.593728799954988,None,74,0,73,360.4316555999685,,,,,,,,,,,,,,,,,,,,,,,,,,,,,,,,,,,,,,,,,,,,,,,,,,360.4155717000249,360.4316555999685,360.91670349997,360.92992359999334,360.949938500009,360.949938500009,360.949938500009,362.55614429997513,Objects\260b.jpg,mid,o,1.593728799954988,None,,,,,,,,00054,001,2026-01-18_19h26.53.815,MST_test,2024.2.0,59.799599587464556,2026-01-18 19h27.21.827932 +0530,
74,0,75,s,2.2605233999784105,None,75,0,74,362.5724497999763,,,,,,,,,,,,,,,,,,,,,,,,,,,,,,,,,,,,,,,,,,,,,,,,,,362.55623430002015,362.5724497999763,363.0578865999705,363.06626310001593,363.09129509999184,363.09129509999184,363.09129509999184,365.3659738000133,Foils\082a.jpg,none,s,2.2605233999784105,None,,,,,,,,00054,001,2026-01-18_19h26.53.815,MST_test,2024.2.0,59.799599587464556,2026-01-18 19h27.21.827932 +0530,
75,0,76,n,0.738826299959328,None,76,0,75,365.38217380002607,,,,,,,,,,,,,,,,,,,,,,,,,,,,,,,,,,,,,,,,,,,,,,,,,,365.36614880000707,365.38217380002607,365.86736739997286,365.87651450000703,365.90061150002293,365.90061150002293,365.90061150002293,366.6537865999853,Objects\046b.jpg,pre,n,0.738826299959328,None,,,,,,,,00054,001,2026-01-18_19h26.53.815,MST_test,2024.2.0,59.799599587464556,2026-01-18 19h27.21.827932 +0530,
76,0,77,n,0.6036948999972083,None,77,0,76,366.67001070000697,,,,,,,,,,,,,,,,,,,,,,,,,,,,,,,,,,,,,,,,,,,,,,,,,,366.6538777999813,366.67001070000697,367.15524059999734,367.1583810999873,367.171733199968,367.171733199968,367.171733199968,367.79112930002157,Foils\093b.jpg,none,n,0.6036948999972083,None,,,,,,,,00054,001,2026-01-18_19h26.53.815,MST_test,2024.2.0,59.799599587464556,2026-01-18 19h27.21.827932 +0530,
77,0,78,n,0.5706007999833673,None,78,0,77,367.8073145999806,,,,,,,,,,,,,,,,,,,,,,,,,,,,,,,,,,,,,,,,,,,,,,,,,,367.7912210000213,367.8073145999806,368.2925174999982,368.3069714999874,368.3257652000175,368.3257652000175,368.3257652000175,368.91194620000897,Objects\222b.jpg,mid,n,0.5706007999833673,None,,,,,,,,00054,001,2026-01-18_19h26.53.815,MST_test,2024.2.0,59.799599587464556,2026-01-18 19h27.21.827932 +0530,
78,0,79,s,1.6095036000479013,None,79,0,78,368.9278978999937,,,,,,,,,,,,,,,,,,,,,,,,,,,,,,,,,,,,,,,,,,,,,,,,,,368.91203499998664,368.9278978999937,369.4131179000251,369.4274835999822,369.4463414999773,369.4463414999773,369.4463414999773,371.06963300000643,Objects\090b.jpg,mid,s,1.6095036000479013,None,,,,,,,,00054,001,2026-01-18_19h26.53.815,MST_test,2024.2.0,59.799599587464556,2026-01-18 19h27.21.827932 +0530,
79,0,80,n,1.3727438999922015,None,80,0,79,371.08550400001695,,,,,,,,,,,,,,,,,,,,,,,,,,,,,,,,,,,,,,,,,,,,,,,,,,371.06973589997506,371.08550400001695,371.57065930002136,371.573307499988,371.5871834999998,371.5871834999998,371.5871834999998,372.976072999998,Objects\060b.jpg,pre,n,1.3727438999922015,None,,,,,,,,00054,001,2026-01-18_19h26.53.815,MST_test,2024.2.0,59.799599587464556,2026-01-18 19h27.21.827932 +0530,
80,0,81,n,0.721193699981086,None,81,0,80,372.9921491999994,,,,,,,,,,,,,,,,,,,,,,,,,,,,,,,,,,,,,,,,,,,,,,,,,,372.9761731000035,372.9921491999994,373.477350000001,373.4932597000152,373.51058589998866,373.51058589998866,373.51058589998866,374.24702299997443,Objects\227b.jpg,pre,n,0.721193699981086,None,,,,,,,,00054,001,2026-01-18_19h26.53.815,MST_test,2024.2.0,59.799599587464556,2026-01-18 19h27.21.827932 +0530,
81,0,82,n,0.6595551000209525,None,82,0,81,374.2635096000158,,,,,,,,,,,,,,,,,,,,,,,,,,,,,,,,,,,,,,,,,,,,,,,,,,374.24712130002445,374.2635096000158,374.74835539999185,374.7553783999756,374.7651213000063,374.7651213000063,374.7651213000063,375.4345916999737,Foils\049a.jpg,none,n,0.6595551000209525,None,,,,,,,,00054,001,2026-01-18_19h26.53.815,MST_test,2024.2.0,59.799599587464556,2026-01-18 19h27.21.827932 +0530,
82,0,83,o,1.8230091999867,None,83,0,82,375.45073989999946,,,,,,,,,,,,,,,,,,,,,,,,,,,,,,,,,,,,,,,,,,,,,,,,,,375.43468780000694,375.45073989999946,375.93594729999313,375.9450182999717,375.96919129998423,375.96919129998423,375.96919129998423,377.79294740001205,Objects\114b.jpg,mid,o,1.8230091999867,None,,,,,,,,00054,001,2026-01-18_19h26.53.815,MST_test,2024.2.0,59.799599587464556,2026-01-18 19h27.21.827932 +0530,
83,0,84,n,1.1125124000245705,None,84,0,83,377.80900319997454,,,,,,,,,,,,,,,,,,,,,,,,,,,,,,,,,,,,,,,,,,,,,,,,,,377.7930384000065,377.80900319997454,378.29436260001967,378.30752540001413,378.3274590999936,378.3274590999936,378.3274590999936,379.44883549999213,Objects\344b.jpg,mid,n,1.1125124000245705,None,,,,,,,,00054,001,2026-01-18_19h26.53.815,MST_test,2024.2.0,59.799599587464556,2026-01-18 19h27.21.827932 +0530,
84,0,85,o,1.3287586999940686,None,85,0,84,379.46530049998546,,,,,,,,,,,,,,,,,,,,,,,,,,,,,,,,,,,,,,,,,,,,,,,,,,379.44892340002116,379.46530049998546,379.9500059999991,379.9573735999875,379.9666222999804,379.9666222999804,379.9666222999804,381.30514760001097,Objects\005b.jpg,post,o,1.3287586999940686,None,,,,,,,,00054,001,2026-01-18_19h26.53.815,MST_test,2024.2.0,59.799599587464556,2026-01-18 19h27.21.827932 +0530,
85,0,86,n,2.7292059000465088,None,86,0,85,381.3214139000047,,,,,,,,,,,,,,,,,,,,,,,,,,,,,,,,,,,,,,,,,,,,,,,,,,381.3052375999978,381.3214139000047,381.8071894000168,381.81407730001956,381.82312209997326,381.82312209997326,381.82312209997326,384.5665995000163,Objects\224b.jpg,mid,n,2.7292059000465088,None,,,,,,,,00054,001,2026-01-18_19h26.53.815,MST_test,2024.2.0,59.799599587464556,2026-01-18 19h27.21.827932 +0530,
86,0,87,n,1.6582004000083543,None,87,0,86,384.58272679999936,,,,,,,,,,,,,,,,,,,,,,,,,,,,,,,,,,,,,,,,,,,,,,,,,,384.5666898000054,384.58272679999936,385.0679447000148,385.0805769999861,385.10117139999056,385.10117139999056,385.10117139999056,386.77413959999103,Objects\242b.jpg,pre,n,1.6582004000083543,None,,,,,,,,00054,001,2026-01-18_19h26.53.815,MST_test,2024.2.0,59.799599587464556,2026-01-18 19h27.21.827932 +0530,
87,0,88,n,0.6921961000189185,None,88,0,87,386.7905832999968,,,,,,,,,,,,,,,,,,,,,,,,,,,,,,,,,,,,,,,,,,,,,,,,,,386.7742302999832,386.7905832999968,387.2756604999886,387.2831933000125,387.2922395999776,387.2922395999776,387.2922395999776,387.99530940002296,Foils\106a.jpg,none,n,0.6921961000189185,None,,,,,,,,00054,001,2026-01-18_19h26.53.815,MST_test,2024.2.0,59.799599587464556,2026-01-18 19h27.21.827932 +0530,
88,0,89,n,1.7826427999534644,None,89,0,88,388.01139359996887,,,,,,,,,,,,,,,,,,,,,,,,,,,,,,,,,,,,,,,,,,,,,,,,,,387.99540130002424,388.01139359996887,388.4965901999967,388.5056306999759,388.52992240001913,388.52992240001913,388.52992240001913,390.32030929997563,Objects\004b.jpg,mid,n,1.7826427999534644,None,,,,,,,,00054,001,2026-01-18_19h26.53.815,MST_test,2024.2.0,59.799599587464556,2026-01-18 19h27.21.827932 +0530,
89,0,90,s,3.3218819000176154,None,90,0,89,390.3362186999875,,,,,,,,,,,,,,,,,,,,,,,,,,,,,,,,,,,,,,,,,,,,,,,,,,390.3204056000104,390.3362186999875,390.82158039999194,390.8242666000151,390.8379291999736,390.8379291999736,390.8379291999736,394.1668008000124,Objects\172a.jpg,pre,s,3.3218819000176154,None,,,,,,,,00054,001,2026-01-18_19h26.53.815,MST_test,2024.2.0,59.799599587464556,2026-01-18 19h27.21.827932 +0530,
90,0,91,o,0.9639940999913961,None,91,0,90,394.1831173999817,,,,,,,,,,,,,,,,,,,,,,,,,,,,,,,,,,,,,,,,,,,,,,,,,,394.16690190002555,394.1831173999817,394.6680987,394.6754990000045,394.68415430001915,394.68415430001915,394.68415430001915,395.65558359998977,Objects\333b.jpg,mid,o,0.9639940999913961,None,,,,,,,,00054,001,2026-01-18_19h26.53.815,MST_test,2024.2.0,59.799599587464556,2026-01-18 19h27.21.827932 +0530,
91,0,92,n,2.562966099998448,None,92,0,91,395.67155660002027,,,,,,,,,,,,,,,,,,,,,,,,,,,,,,,,,,,,,,,,,,,,,,,,,,395.6556880999706,395.67155660002027,396.1567617999972,396.1640170000028,396.1731091000256,396.1731091000256,396.1731091000256,398.74963400000706,Objects\087a.jpg,pre,n,2.562966099998448,None,,,,,,,,00054,001,2026-01-18_19h26.53.815,MST_test,2024.2.0,59.799599587464556,2026-01-18 19h27.21.827932 +0530,
92,0,93,s,1.5798724999767728,None,93,0,92,398.765854199999,,,,,,,,,,,,,,,,,,,,,,,,,,,,,,,,,,,,,,,,,,,,,,,,,,398.7497244999977,398.765854199999,399.2507991999737,399.2535766999936,399.26755059999414,399.26755059999414,399.26755059999414,400.85691470000893,Objects\038a.jpg,pre,s,1.5798724999767728,None,,,,,,,,00054,001,2026-01-18_19h26.53.815,MST_test,2024.2.0,59.799599587464556,2026-01-18 19h27.21.827932 +0530,
93,0,94,s,1.5129157000337727,None,94,0,93,400.87322810001206,,,,,,,,,,,,,,,,,,,,,,,,,,,,,,,,,,,,,,,,,,,,,,,,,,400.85700620000716,400.87322810001206,401.35819330002414,401.3677696000086,401.39166419999674,401.39166419999674,401.39166419999674,402.9139830999775,Objects\125b.jpg,post,s,1.5129157000337727,None,,,,,,,,00054,001,2026-01-18_19h26.53.815,MST_test,2024.2.0,59.799599587464556,2026-01-18 19h27.21.827932 +0530,
94,0,95,s,0.935494799981825,None,95,0,94,402.93042839999544,,,,,,,,,,,,,,,,,,,,,,,,,,,,,,,,,,,,,,,,,,,,,,,,,,402.91412129998207,402.93042839999544,403.4155425999779,403.42506580002373,403.44886880001286,403.44886880001286,403.44886880001286,404.386525799986,Objects\216b.jpg,post,s,0.935494799981825,None,,,,,,,,00054,001,2026-01-18_19h26.53.815,MST_test,2024.2.0,59.799599587464556,2026-01-18 19h27.21.827932 +0530,
95,0,96,n,1.1354737000074238,None,96,0,95,404.4021203999873,,,,,,,,,,,,,,,,,,,,,,,,,,,,,,,,,,,,,,,,,,,,,,,,,,404.38661619997583,404.4021203999873,404.8873414999689,404.8900762000121,404.90383309999015,404.90383309999015,404.90383309999015,406.0417613000027,Objects\192a.jpg,mid,n,1.1354737000074238,None,,,,,,,,00054,001,2026-01-18_19h26.53.815,MST_test,2024.2.0,59.799599587464556,2026-01-18 19h27.21.827932 +0530,
96,0,97,n,0.798750200017821,None,97,0,96,406.05804309999803,,,,,,,,,,,,,,,,,,,,,,,,,,,,,,,,,,,,,,,,,,,,,,,,,,406.0418632000219,406.05804309999803,406.54300379997585,406.5525869000121,406.57669249997707,406.57669249997707,406.57669249997707,407.379971700022,Objects\229b.jpg,post,n,0.798750200017821,None,,,,,,,,00054,001,2026-01-18_19h26.53.815,MST_test,2024.2.0,59.799599587464556,2026-01-18 19h27.21.827932 +0530,
97,0,98,n,0.9424469000077806,None,98,0,97,407.39593519998016,,,,,,,,,,,,,,,,,,,,,,,,,,,,,,,,,,,,,,,,,,,,,,,,,,407.38006749999477,407.39593519998016,407.88112959999125,407.88410570000997,407.8977645999985,407.8977645999985,407.8977645999985,408.85165989998495,Foils\017a.jpg,none,n,0.9424469000077806,None,,,,,,,,00054,001,2026-01-18_19h26.53.815,MST_test,2024.2.0,59.799599587464556,2026-01-18 19h27.21.827932 +0530,
98,0,99,n,0.6139057999826036,None,99,0,98,408.86788079998223,,,,,,,,,,,,,,,,,,,,,,,,,,,,,,,,,,,,,,,,,,,,,,,,,,408.8517534999992,408.86788079998223,409.35283970000455,409.3561708999914,409.36959479999496,409.36959479999496,409.36959479999496,409.9892118999851,Foils\002a.jpg,none,n,0.6139057999826036,None,,,,,,,,00054,001,2026-01-18_19h26.53.815,MST_test,2024.2.0,59.799599587464556,2026-01-18 19h27.21.827932 +0530,
99,0,100,n,0.5902032000012696,None,100,0,99,410.00519639998674,,,,,,,,,,,,,,,,,,,,,,,,,,,,,,,,,,,,,,,,,,,,,,,,,,409.9893079000176,410.00519639998674,410.49016049999045,410.49311149999266,410.5069076999789,410.5069076999789,410.5069076999789,411.1094928000239,Foils\033a.jpg,none,n,0.5902032000012696,None,,,,,,,,00054,001,2026-01-18_19h26.53.815,MST_test,2024.2.0,59.799599587464556,2026-01-18 19h27.21.827932 +0530,
100,0,101,s,2.2041159000364132,None,101,0,100,411.1256785999867,,,,,,,,,,,,,,,,,,,,,,,,,,,,,,,,,,,,,,,,,,,,,,,,,,411.10959010000806,411.1256785999867,411.6110312999808,411.61727250000695,411.6275654999772,411.6275654999772,411.6275654999772,413.83591099997284,Objects\258a.jpg,post,s,2.2041159000364132,None,,,,,,,,00054,001,2026-01-18_19h26.53.815,MST_test,2024.2.0,59.799599587464556,2026-01-18 19h27.21.827932 +0530,
101,0,102,n,1.0627506999881007,None,102,0,101,413.85188109998126,,,,,,,,,,,,,,,,,,,,,,,,,,,,,,,,,,,,,,,,,,,,,,,,,,413.8360111999791,413.85188109998126,414.3375455000205,414.3453031000099,414.3531679000007,414.3531679000007,414.3531679000007,415.4249200000195,Foils\009a.jpg,none,n,1.0627506999881007,None,,,,,,,,00054,001,2026-01-18_19h26.53.815,MST_test,2024.2.0,59.799599587464556,2026-01-18 19h27.21.827932 +0530,
102,0,103,o,1.6487887999974191,None,103,0,102,415.4408945000032,,,,,,,,,,,,,,,,,,,,,,,,,,,,,,,,,,,,,,,,,,,,,,,,,,415.4250183000113,415.4408945000032,415.92586519999895,415.93328130000737,415.9427572999848,415.9427572999848,415.9427572999848,417.59885499998927,Objects\207a.jpg,mid,o,1.6487887999974191,None,,,,,,,,00054,001,2026-01-18_19h26.53.815,MST_test,2024.2.0,59.799599587464556,2026-01-18 19h27.21.827932 +0530,
103,0,104,s,1.6104429999832064,None,104,0,103,417.61530230002245,,,,,,,,,,,,,,,,,,,,,,,,,,,,,,,,,,,,,,,,,,,,,,,,,,417.59895050001796,417.61530230002245,418.10014870000305,418.11514259997057,418.13361810002243,418.13361810002243,418.13361810002243,419.75644909997936,Objects\217b.jpg,mid,s,1.6104429999832064,None,,,,,,,,00054,001,2026-01-18_19h26.53.815,MST_test,2024.2.0,59.799599587464556,2026-01-18 19h27.21.827932 +0530,
104,0,105,s,1.5018108999938704,None,105,0,104,419.7727198000066,,,,,,,,,,,,,,,,,,,,,,,,,,,,,,,,,,,,,,,,,,,,,,,,,,419.7565390000236,419.7727198000066,420.2576904000016,420.265600099985,420.2742700999952,420.2742700999952,420.2742700999952,421.78048590000253,Objects\127a.jpg,pre,s,1.5018108999938704,None,,,,,,,,00054,001,2026-01-18_19h26.53.815,MST_test,2024.2.0,59.799599587464556,2026-01-18 19h27.21.827932 +0530,
105,0,106,n,0.8615759999956936,None,106,0,105,421.79651830001967,,,,,,,,,,,,,,,,,,,,,,,,,,,,,,,,,,,,,,,,,,,,,,,,,,421.7805792000145,421.79651830001967,422.28173759998754,422.2844292999944,422.2982475999743,422.2982475999743,422.2982475999743,423.16824620001717,Objects\104a.jpg,mid,n,0.8615759999956936,None,,,,,,,,00054,001,2026-01-18_19h26.53.815,MST_test,2024.2.0,59.799599587464556,2026-01-18 19h27.21.827932 +0530,
106,0,107,n,0.9141526999883354,None,107,0,106,423.1846764999791,,,,,,,,,,,,,,,,,,,,,,,,,,,,,,,,,,,,,,,,,,,,,,,,,,423.1683517000056,423.1846764999791,423.66978589998325,423.677117299987,423.6862100000144,423.6862100000144,423.6862100000144,424.6067334000254,Objects\286b.jpg,post,n,0.9141526999883354,None,,,,,,,,00054,001,2026-01-18_19h26.53.815,MST_test,2024.2.0,59.799599587464556,2026-01-18 19h27.21.827932 +0530,
107,0,108,o,1.2751307000289671,None,108,0,107,424.62303690001136,,,,,,,,,,,,,,,,,,,,,,,,,,,,,,,,,,,,,,,,,,,,,,,,,,424.60682380001526,424.62303690001136,425.10812260000966,425.1228975999984,425.1413737999974,425.1413737999974,425.1413737999974,426.42973699996946,Objects\050b.jpg,mid,o,1.2751307000289671,None,,,,,,,,00054,001,2026-01-18_19h26.53.815,MST_test,2024.2.0,59.799599587464556,2026-01-18 19h27.21.827932 +0530,
108,0,109,s,2.1070174000342377,None,109,0,108,426.4459760999889,,,,,,,,,,,,,,,,,,,,,,,,,,,,,,,,,,,,,,,,,,,,,,,,,,426.4298382999841,426.4459760999889,426.9313507999759,426.9455313999788,426.9644109000219,426.9644109000219,426.9644109000219,429.07254439999815,Objects\194b.jpg,post,s,2.1070174000342377,None,,,,,,,,00054,001,2026-01-18_19h26.53.815,MST_test,2024.2.0,59.799599587464556,2026-01-18 19h27.21.827932 +0530,
109,0,110,n,1.6971704000025056,None,110,0,109,429.0886852000258,,,,,,,,,,,,,,,,,,,,,,,,,,,,,,,,,,,,,,,,,,,,,,,,,,429.07263309997506,429.0886852000258,429.57375779998256,429.5816204000148,429.59024489996955,429.59024489996955,429.59024489996955,431.2972408999922,Objects\301a.jpg,mid,n,1.6971704000025056,None,,,,,,,,00054,001,2026-01-18_19h26.53.815,MST_test,2024.2.0,59.799599587464556,2026-01-18 19h27.21.827932 +0530,
110,0,111,s,2.2172342999838293,None,111,0,110,431.31312910001725,,,,,,,,,,,,,,,,,,,,,,,,,,,,,,,,,,,,,,,,,,,,,,,,,,431.29740939999465,431.31312910001725,431.7981105999788,431.80317739996826,431.8148394000018,431.8148394000018,431.8148394000018,434.03991849999875,Objects\343a.jpg,pre,s,2.2172342999838293,None,,,,,,,,00054,001,2026-01-18_19h26.53.815,MST_test,2024.2.0,59.799599587464556,2026-01-18 19h27.21.827932 +0530,
111,0,112,o,1.8586422000080347,None,112,0,111,434.05607779999264,,,,,,,,,,,,,,,,,,,,,,,,,,,,,,,,,,,,,,,,,,,,,,,,,,434.04000879998785,434.05607779999264,434.5410478999838,434.54883579997113,434.55766220000805,434.55766220000805,434.55766220000805,436.43179499998223,Objects\182a.jpg,post,o,1.8586422000080347,None,,,,,,,,00054,001,2026-01-18_19h26.53.815,MST_test,2024.2.0,59.799599587464556,2026-01-18 19h27.21.827932 +0530,
112,0,113,n,1.2502959000412375,None,113,0,112,436.44766780000646,,,,,,,,,,,,,,,,,,,,,,,,,,,,,,,,,,,,,,,,,,,,,,,,,,436.4318903000094,436.44766780000646,436.93299439997645,436.9356457000249,436.9493775999872,436.9493775999872,436.9493775999872,438.2046939000138,Objects\028b.jpg,pre,n,1.2502959000412375,None,,,,,,,,00054,001,2026-01-18_19h26.53.815,MST_test,2024.2.0,59.799599587464556,2026-01-18 19h27.21.827932 +0530,
113,0,114,s,2.6141408000257798,None,114,0,113,438.2205380999949,,,,,,,,,,,,,,,,,,,,,,,,,,,,,,,,,,,,,,,,,,,,,,,,,,438.20479240000714,438.2205380999949,438.7057293999824,438.7087621000246,438.722280099988,438.722280099988,438.722280099988,441.34887400001753,Foils\026a.jpg,none,s,2.6141408000257798,None,,,,,,,,00054,001,2026-01-18_19h26.53.815,MST_test,2024.2.0,59.799599587464556,2026-01-18 19h27.21.827932 +0530,
114,0,115,o,2.1250044999760576,None,115,0,114,441.364889999968,,,,,,,,,,,,,,,,,,,,,,,,,,,,,,,,,,,,,,,,,,,,,,,,,,441.3489686999819,441.364889999968,441.85030390002066,441.8532860999694,441.8665960999788,441.8665960999788,441.8665960999788,444.0080181999947,Objects\053a.jpg,pre,o,2.1250044999760576,None,,,,,,,,00054,001,2026-01-18_19h26.53.815,MST_test,2024.2.0,59.799599587464556,2026-01-18 19h27.21.827932 +0530,
115,0,116,n,0.8256583000184037,None,116,0,115,444.0243193000206,,,,,,,,,,,,,,,,,,,,,,,,,,,,,,,,,,,,,,,,,,,,,,,,,,444.0081164999865,444.0243193000206,444.50943739997456,444.5122629000107,444.5260304000112,444.5260304000112,444.5260304000112,445.3627358999802,Objects\133b.jpg,post,n,0.8256583000184037,None,,,,,,,,00054,001,2026-01-18_19h26.53.815,MST_test,2024.2.0,59.799599587464556,2026-01-18 19h27.21.827932 +0530,
116,0,117,n,0.7260945999878459,None,117,0,116,445.3789338999777,,,,,,,,,,,,,,,,,,,,,,,,,,,,,,,,,,,,,,,,,,,,,,,,,,445.36283840000397,445.3789338999777,445.8641295999987,445.8732533999719,445.89758719998645,445.89758719998645,445.89758719998645,446.6337172000203,Objects\056b.jpg,pre,n,0.7260945999878459,None,,,,,,,,00054,001,2026-01-18_19h26.53.815,MST_test,2024.2.0,59.799599587464556,2026-01-18 19h27.21.827932 +0530,
117,0,118,o,1.951896200014744,None,118,0,117,446.65029580000555,,,,,,,,,,,,,,,,,,,,,,,,,,,,,,,,,,,,,,,,,,,,,,,,,,446.63382300001103,446.65029580000555,447.1351320000249,447.1378673000145,447.15189009997994,447.15189009997994,447.15189009997994,449.11013629997615,Objects\035a.jpg,pre,o,1.951896200014744,None,,,,,,,,00054,001,2026-01-18_19h26.53.815,MST_test,2024.2.0,59.799599587464556,2026-01-18 19h27.21.827932 +0530,
118,0,119,n,1.4603379999753088,None,119,0,118,449.1253794999793,,,,,,,,,,,,,,,,,,,,,,,,,,,,,,,,,,,,,,,,,,,,,,,,,,449.11023619998014,449.1253794999793,449.610589399992,449.61912320001284,449.6438229000196,449.6438229000196,449.6438229000196,451.1163308999967,Objects\237a.jpg,mid,n,1.4603379999753088,None,,,,,,,,00054,001,2026-01-18_19h26.53.815,MST_test,2024.2.0,59.799599587464556,2026-01-18 19h27.21.827932 +0530,
119,0,120,n,0.9584000000031665,None,120,0,119,451.1325490999734,,,,,,,,,,,,,,,,,,,,,,,,,,,,,,,,,,,,,,,,,,,,,,,,,,451.116425300017,451.1325490999734,451.617508299998,451.6258377999766,451.63388739997754,451.63388739997754,451.63388739997754,452.6050970000215,Foils\097a.jpg,none,n,0.9584000000031665,None,,,,,,,,00054,001,2026-01-18_19h26.53.815,MST_test,2024.2.0,59.799599587464556,2026-01-18 19h27.21.827932 +0530,
120,0,121,o,2.517260399996303,None,121,0,120,452.6209590000217,,,,,,,,,,,,,,,,,,,,,,,,,,,,,,,,,,,,,,,,,,,,,,,,,,452.60519510001177,452.6209590000217,453.1061405999935,453.1095991000184,453.1227995000081,453.1227995000081,453.1227995000081,455.6487992000184,Objects\131a.jpg,pre,o,2.517260399996303,None,,,,,,,,00054,001,2026-01-18_19h26.53.815,MST_test,2024.2.0,59.799599587464556,2026-01-18 19h27.21.827932 +0530,
121,0,122,n,1.055507300014142,None,122,0,121,455.6650681999745,,,,,,,,,,,,,,,,,,,,,,,,,,,,,,,,,,,,,,,,,,,,,,,,,,455.64889690000564,455.6650681999745,456.15002030000323,456.17197450000094,456.1846097999951,456.1846097999951,456.1846097999951,457.2547511999728,Objects\051b.jpg,post,n,1.055507300014142,None,,,,,,,,00054,001,2026-01-18_19h26.53.815,MST_test,2024.2.0,59.799599587464556,2026-01-18 19h27.21.827932 +0530,
122,0,123,s,1.3708115000044927,None,123,0,122,457.27068840002175,,,,,,,,,,,,,,,,,,,,,,,,,,,,,,,,,,,,,,,,,,,,,,,,,,457.25484820001293,457.27068840002175,457.75578890001634,457.7633565000142,457.77256700000726,457.77256700000726,457.77256700000726,459.1445153999957,Objects\306a.jpg,post,s,1.3708115000044927,None,,,,,,,,00054,001,2026-01-18_19h26.53.815,MST_test,2024.2.0,59.799599587464556,2026-01-18 19h27.21.827932 +0530,
123,0,124,s,0.7680519999703392,None,124,0,123,459.16064800001914,,,,,,,,,,,,,,,,,,,,,,,,,,,,,,,,,,,,,,,,,,,,,,,,,,459.1446078000008,459.16064800001914,459.6456329000066,459.6605978999869,459.67987210000865,459.67987210000865,459.67987210000865,460.44958030001726,Objects\234b.jpg,pre,s,0.7680519999703392,None,,,,,,,,00054,001,2026-01-18_19h26.53.815,MST_test,2024.2.0,59.799599587464556,2026-01-18 19h27.21.827932 +0530,
124,0,125,s,0.8019427999970503,None,125,0,124,460.46524779999163,,,,,,,,,,,,,,,,,,,,,,,,,,,,,,,,,,,,,,,,,,,,,,,,,,460.4496751999832,460.46524779999163,460.9503022999852,460.95301980001386,460.9667967999703,460.9667967999703,460.9667967999703,461.7703182999976,Objects\147a.jpg,post,s,0.8019427999970503,None,,,,,,,,00054,001,2026-01-18_19h26.53.815,MST_test,2024.2.0,59.799599587464556,2026-01-18 19h27.21.827932 +0530,
125,0,126,n,1.0480331999715418,None,126,0,125,461.78651000000536,,,,,,,,,,,,,,,,,,,,,,,,,,,,,,,,,,,,,,,,,,,,,,,,,,461.7704163999879,461.78651000000536,462.2716357000172,462.27427019999595,462.2881158000091,462.2881158000091,462.2881158000091,463.34249399998225,Foils\121a.jpg,none,n,1.0480331999715418,None,,,,,,,,00054,001,2026-01-18_19h26.53.815,MST_test,2024.2.0,59.799599587464556,2026-01-18 19h27.21.827932 +0530,
126,0,127,s,1.7962786999996752,None,127,0,126,463.3586861999938,,,,,,,,,,,,,,,,,,,,,,,,,,,,,,,,,,,,,,,,,,,,,,,,,,463.342587799998,463.3586861999938,463.8437559999875,463.84645050001564,463.8603190999711,463.8603190999711,463.8603190999711,465.6672036999953,Objects\357a.jpg,post,s,1.7962786999996752,None,,,,,,,,00054,001,2026-01-18_19h26.53.815,MST_test,2024.2.0,59.799599587464556,2026-01-18 19h27.21.827932 +0530,
127,0,128,n,0.9508045999682508,None,128,0,127,465.68349089997355,,,,,,,,,,,,,,,,,,,,,,,,,,,,,,,,,,,,,,,,,,,,,,,,,,465.6673003999749,465.68349089997355,466.1686938999919,466.17219050001586,466.18508600001223,466.18508600001223,466.18508600001223,467.1391494999989,Objects\067b.jpg,mid,n,0.9508045999682508,None,,,,,,,,00054,001,2026-01-18_19h26.53.815,MST_test,2024.2.0,59.799599587464556,2026-01-18 19h27.21.827932 +0530,
128,0,129,n,0.7670240000006743,None,129,0,128,467.15518240001984,,,,,,,,,,,,,,,,,,,,,,,,,,,,,,,,,,,,,,,,,,,,,,,,,,467.1392554999911,467.15518240001984,467.64031719998457,467.64299329998903,467.65688939997926,467.65688939997926,467.65688939997926,468.42675159999635,Foils\098a.jpg,none,n,0.7670240000006743,None,,,,,,,,00054,001,2026-01-18_19h26.53.815,MST_test,2024.2.0,59.799599587464556,2026-01-18 19h27.21.827932 +0530,
129,0,130,n,0.8293611999833956,None,130,0,129,468.4431663000141,,,,,,,,,,,,,,,,,,,,,,,,,,,,,,,,,,,,,,,,,,,,,,,,,,468.4268472000258,468.4431663000141,468.92812050000066,468.94273229996907,468.9622246000217,468.9622246000217,468.9622246000217,469.798620400019,Objects\195b.jpg,pre,n,0.8293611999833956,None,,,,,,,,00054,001,2026-01-18_19h26.53.815,MST_test,2024.2.0,59.799599587464556,2026-01-18 19h27.21.827932 +0530,
130,0,131,n,1.5719764999812469,None,131,0,130,469.81448870000895,,,,,,,,,,,,,,,,,,,,,,,,,,,,,,,,,,,,,,,,,,,,,,,,,,469.7987125000218,469.81448870000895,470.299869999988,470.30508560000453,470.3163260999718,470.3163260999718,470.3163260999718,471.88933299999917,Foils\f5.jpg,none,n,1.5719764999812469,None,,,,,,,,00054,001,2026-01-18_19h26.53.815,MST_test,2024.2.0,59.799599587464556,2026-01-18 19h27.21.827932 +0530,
131,0,132,o,3.2957094000303186,None,132,0,131,471.90527160000056,,,,,,,,,,,,,,,,,,,,,,,,,,,,,,,,,,,,,,,,,,,,,,,,,,471.8894290999742,471.90527160000056,472.3902190999943,472.3984982999973,472.4238226999878,472.4238226999878,472.4238226999878,475.7357367000077,Objects\176a.jpg,post,o,3.2957094000303186,None,,,,,,,,00054,001,2026-01-18_19h26.53.815,MST_test,2024.2.0,59.799599587464556,2026-01-18 19h27.21.827932 +0530,
132,0,133,o,0.6816915000090376,None,133,0,132,475.7519495000015,,,,,,,,,,,,,,,,,,,,,,,,,,,,,,,,,,,,,,,,,,,,,,,,,,475.7358323999797,475.7519495000015,476.2371431000065,476.24454769998556,476.25392450002255,476.25392450002255,476.25392450002255,476.9403891999973,Objects\213a.jpg,mid,o,0.6816915000090376,None,,,,,,,,00054,001,2026-01-18_19h26.53.815,MST_test,2024.2.0,59.799599587464556,2026-01-18 19h27.21.827932 +0530,
133,0,134,o,0.7982490999856964,None,134,0,133,476.9562450000085,,,,,,,,,,,,,,,,,,,,,,,,,,,,,,,,,,,,,,,,,,,,,,,,,,476.94048499997007,476.9562450000085,477.44137610000325,477.4485291999881,477.45781009999337,477.45781009999337,477.45781009999337,478.26137939997716,Objects\003b.jpg,pre,o,0.7982490999856964,None,,,,,,,,00054,001,2026-01-18_19h26.53.815,MST_test,2024.2.0,59.799599587464556,2026-01-18 19h27.21.827932 +0530,
134,0,135,n,1.1093996000126936,None,135,0,134,478.27759150002385,,,,,,,,,,,,,,,,,,,,,,,,,,,,,,,,,,,,,,,,,,,,,,,,,,478.26146999996854,478.27759150002385,478.76274729997385,478.7653904000181,478.7792011999991,478.7792011999991,478.7792011999991,479.90074469998945,Foils\057a.jpg,none,n,1.1093996000126936,None,,,,,,,,00054,001,2026-01-18_19h26.53.815,MST_test,2024.2.0,59.799599587464556,2026-01-18 19h27.21.827932 +0530,
135,0,136,n,2.4854820999898948,None,136,0,135,479.91654509998625,,,,,,,,,,,,,,,,,,,,,,,,,,,,,,,,,,,,,,,,,,,,,,,,,,479.90085279999766,479.91654509998625,480.4018668999779,480.4045538000064,480.4182456000126,480.4182456000126,480.4182456000126,482.9112482999917,Foils\073a.jpg,none,n,2.4854820999898948,None,,,,,,,,00054,001,2026-01-18_19h26.53.815,MST_test,2024.2.0,59.799599587464556,2026-01-18 19h27.21.827932 +0530,
136,0,137,n,0.7227718000067398,None,137,0,136,482.9270752000157,,,,,,,,,,,,,,,,,,,,,,,,,,,,,,,,,,,,,,,,,,,,,,,,,,482.91134519997286,482.9270752000157,483.4121534000151,483.41940020001493,483.4290167000145,483.4290167000145,483.4290167000145,484.16531950002536,Objects\309b.jpg,pre,n,0.7227718000067398,None,,,,,,,,00054,001,2026-01-18_19h26.53.815,MST_test,2024.2.0,59.799599587464556,2026-01-18 19h27.21.827932 +0530,
137,0,138,n,2.700751099968329,None,138,0,137,484.18201849999605,,,,,,,,,,,,,,,,,,,,,,,,,,,,,,,,,,,,,,,,,,,,,,,,,,484.16542709997157,484.18201849999605,484.66670010000234,484.6752177000162,484.68284869997296,484.68284869997296,484.68284869997296,487.3933479000116,Foils\105a.jpg,none,n,2.700751099968329,None,,,,,,,,00054,001,2026-01-18_19h26.53.815,MST_test,2024.2.0,59.799599587464556,2026-01-18 19h27.21.827932 +0530,
138,0,139,s,1.2097251000232063,None,139,0,138,487.4095537000103,,,,,,,,,,,,,,,,,,,,,,,,,,,,,,,,,,,,,,,,,,,,,,,,,,487.3934424999752,487.4095537000103,487.89452259999234,487.897406700009,487.9112767999759,487.9112767999759,487.9112767999759,489.13281599996844,Objects\145a.jpg,pre,s,1.2097251000232063,None,,,,,,,,00054,001,2026-01-18_19h26.53.815,MST_test,2024.2.0,59.799599587464556,2026-01-18 19h27.21.827932 +0530,
139,0,140,s,0.9410323999472894,None,140,0,139,489.14898120000726,,,,,,,,,,,,,,,,,,,,,,,,,,,,,,,,,,,,,,,,,,,,,,,,,,489.1329097999842,489.14898120000726,489.6340791999828,489.6411614000099,489.65073749999283,489.65073749999283,489.65073749999283,490.60447299998486,Objects\289a.jpg,pre,s,0.9410323999472894,None,,,,,,,,00054,001,2026-01-18_19h26.53.815,MST_test,2024.2.0,59.799599587464556,2026-01-18 19h27.21.827932 +0530,
140,0,141,n,1.246245100046508,None,141,0,140,490.6209352000151,,,,,,,,,,,,,,,,,,,,,,,,,,,,,,,,,,,,,,,,,,,,,,,,,,490.6045732999919,490.6209352000151,491.1058273999952,491.1138584999717,491.12172589998227,491.12172589998227,491.12172589998227,492.37754159996985,Foils\086a.jpg,none,n,1.246245100046508,None,,,,,,,,00054,001,2026-01-18_19h26.53.815,MST_test,2024.2.0,59.799599587464556,2026-01-18 19h27.21.827932 +0530,
141,0,142,n,1.1593156000017188,None,142,0,141,492.3936772000161,,,,,,,,,,,,,,,,,,,,,,,,,,,,,,,,,,,,,,,,,,,,,,,,,,492.37763140001334,492.3936772000161,492.8786588999792,492.8902172999806,492.9129560000147,492.9129560000147,492.9129560000147,494.08339410001645,Objects\303a.jpg,mid,n,1.1593156000017188,None,,,,,,,,00054,001,2026-01-18_19h26.53.815,MST_test,2024.2.0,59.799599587464556,2026-01-18 19h27.21.827932 +0530,
142,0,143,s,0.9256163000245579,None,143,0,142,494.1004659999744,,,,,,,,,,,,,,,,,,,,,,,,,,,,,,,,,,,,,,,,,,,,,,,,,,494.08349270001054,494.1004659999744,494.58517929998925,494.59349250001833,494.618452100025,494.618452100025,494.618452100025,495.55502909998177,Foils\065a.jpg,none,s,0.9256163000245579,None,,,,,,,,00054,001,2026-01-18_19h26.53.815,MST_test,2024.2.0,59.799599587464556,2026-01-18 19h27.21.827932 +0530,
143,0,144,s,0.9252914999960922,None,144,0,143,495.5715928999707,,,,,,,,,,,,,,,,,,,,,,,,,,,,,,,,,,,,,,,,,,,,,,,,,,495.55512069998076,495.5715928999707,496.0570314999786,496.0737836000044,496.0906799000222,496.0906799000222,496.0906799000222,497.02697960002115,Objects\238b.jpg,post,s,0.9252914999960922,None,,,,,,,,00054,001,2026-01-18_19h26.53.815,MST_test,2024.2.0,59.799599587464556,2026-01-18 19h27.21.827932 +0530,
144,0,145,n,1.4934499000082724,None,145,0,144,497.043315900024,,,,,,,,,,,,,,,,,,,,,,,,,,,,,,,,,,,,,,,,,,,,,,,,,,497.02707349997945,497.043315900024,497.5284129999927,497.5378909999854,497.5619460999733,497.5619460999733,497.5619460999733,499.0674689000007,Objects\326a.jpg,mid,n,1.4934499000082724,None,,,,,,,,00054,001,2026-01-18_19h26.53.815,MST_test,2024.2.0,59.799599587464556,2026-01-18 19h27.21.827932 +0530,
145,0,146,n,1.3011716000037268,None,146,0,145,499.0837718999828,,,,,,,,,,,,,,,,,,,,,,,,,,,,,,,,,,,,,,,,,,,,,,,,,,499.0675623000134,499.0837718999828,499.56873409997206,499.584188000008,499.60220580000896,499.60220580000896,499.60220580000896,500.9074116999982,Objects\228b.jpg,pre,n,1.3011716000037268,None,,,,,,,,00054,001,2026-01-18_19h26.53.815,MST_test,2024.2.0,59.799599587464556,2026-01-18 19h27.21.827932 +0530,
146,0,147,s,1.1042475000140257,None,147,0,146,500.92340989998775,,,,,,,,,,,,,,,,,,,,,,,,,,,,,,,,,,,,,,,,,,,,,,,,,,500.9075106999953,500.92340989998775,501.4086908000172,501.41688819997944,501.42496099998243,501.42496099998243,501.42496099998243,502.53002760000527,Objects\261a.jpg,post,s,1.1042475000140257,None,,,,,,,,00054,001,2026-01-18_19h26.53.815,MST_test,2024.2.0,59.799599587464556,2026-01-18 19h27.21.827932 +0530,
147,0,148,s,0.5445925000240095,None,148,0,147,502.54578119999496,,,,,,,,,,,,,,,,,,,,,,,,,,,,,,,,,,,,,,,,,,,,,,,,,,502.5301159999799,502.54578119999496,503.03120540000964,503.0385282000061,503.0475241999957,503.0475241999957,503.0475241999957,503.6001129000215,Objects\116b.jpg,mid,s,0.5445925000240095,None,,,,,,,,00054,001,2026-01-18_19h26.53.815,MST_test,2024.2.0,59.799599587464556,2026-01-18 19h27.21.827932 +0530,
148,0,149,n,1.0495493999915197,None,149,0,148,503.6164306999999,,,,,,,,,,,,,,,,,,,,,,,,,,,,,,,,,,,,,,,,,,,,,,,,,,503.60020559997065,503.6164306999999,504.1013983999728,504.10421299998416,504.1179046999896,504.1179046999896,504.1179046999896,505.1723401999916,Objects\134a.jpg,post,n,1.0495493999915197,None,,,,,,,,00054,001,2026-01-18_19h26.53.815,MST_test,2024.2.0,59.799599587464556,2026-01-18 19h27.21.827932 +0530,
149,0,150,s,2.19091910001589,None,150,0,149,505.18840280000586,,,,,,,,,,,,,,,,,,,,,,,,,,,,,,,,,,,,,,,,,,,,,,,,,,505.1724421000108,505.18840280000586,505.67358449997846,505.6762357999687,505.69019990001107,505.69019990001107,505.69019990001107,507.8819697999861,Objects\305a.jpg,post,s,2.19091910001589,None,,,,,,,,00054,001,2026-01-18_19h26.53.815,MST_test,2024.2.0,59.799599587464556,2026-01-18 19h27.21.827932 +0530,
,,,,,,,,,,,,,,,,,,,,,,,,,,,,,,,,,,,,,,,,,,,,,,,,,,,,,,,,,,,,,,,,,,,,,,,,507.88203259999864,507.8978317999863,507.8978317999863,563.12558360002,space,55.21355110005243,None,00054,001,2026-01-18_19h26.53.815,MST_test,2024.2.0,59.799599587464556,2026-01-18 19h27.21.827932 +0530,
