Sl_no,image_path,thisN,thisTrialN,thisRepN,key_resp_5.keys,key_resp_7.keys,key_resp_7.rt,key_resp_7.duration,key_resp_5.rt,key_resp_5.duration,key_resp_9.keys,key_resp_8.keys,key_resp_8.rt,key_resp_8.duration,key_resp_9.rt,key_resp_9.duration,practice.thisRepN,practice.thisTrialN,practice.thisN,trials.thisRepN,trials.thisTrialN,trials.thisN,thisRow.t,notes,welcome_page.started,text.started,key_resp.started,welcome_page.stopped,key_resp.keys,key_resp.rt,key_resp.duration,instructions.started,ins.started,key_resp_2.started,instructions.stopped,key_resp_2.keys,key_resp_2.rt,key_resp_2.duration,objects_only_instruction.started,text_3.started,key_resp_3.started,objects_only_instruction.stopped,key_resp_3.keys,key_resp_3.rt,key_resp_3.duration,ISI.started,text_4.started,ISI.stopped,practice_block.started,image.started,key_resp_5.started,text_5.started,practice_block.stopped,practice.key_resp_5.keys,indoor_outdoor.started,text_7.started,key_resp_7.started,indoor_outdoor.stopped,practice.key_resp_7.keys,practice.key_resp_7.rt,practice.key_resp_7.duration,text_4.stopped,image.stopped,key_resp_5.stopped,text_5.stopped,practice.key_resp_5.rt,practice.key_resp_5.duration,practice_to_main.started,text_2.started,key_resp_4.started,practice_to_main.stopped,key_resp_4.keys,key_resp_4.rt,key_resp_4.duration,objects.started,image_2.started,text_9.started,key_resp_9.started,objects.stopped,category,trials.key_resp_9.keys,encoding_task.started,text_8.started,key_resp_8.started,encoding_task.stopped,trials.key_resp_8.keys,trials.key_resp_8.rt,trials.key_resp_8.duration,image_2.stopped,text_9.stopped,key_resp_9.stopped,trials.key_resp_9.rt,trials.key_resp_9.duration,end_experiment.started,text_6.started,key_resp_6.started,end_experiment.stopped,key_resp_6.keys,key_resp_6.rt,key_resp_6.duration,list_of_stimuli,encoding_task_accuracy,participant,session,date,expName,psychopyVersion,frameRate,expStart,
,,,,,,,,,,,,,,,,,,,,,,,,,0.0012669999850913882,0.003329399973154068,0.003329399973154068,11.811230799998157,space,11.760251300001983,None,,,,,,,,,,,,,,,,,,,,,,,,,,,,,,,,,,,,,,,,,,,,,,,,,,,,,,,,,,,,,,,,,,,,,,,,00059,001,2026-01-19_16h24.22.614,MST_task,2024.2.0,59.92624279080851,2026-01-19 16h24.35.053760 +0530,
,,,,,,,,,,,,,,,,,,,,,,,,,,,,,,,,11.81127090001246,11.822218899964355,11.822218899964355,31.216446799982805,space,19.38131580001209,None,,,,,,,,,,,,,,,,,,,,,,,,,,,,,,,,,,,,,,,,,,,,,,,,,,,,,,,,,,,,,,,,,00059,001,2026-01-19_16h24.22.614,MST_task,2024.2.0,59.92624279080851,2026-01-19 16h24.35.053760 +0530,
,,,,,,,,,,,,,,,,,,,,,,,,,,,,,,,,,,,,,,,31.216477899986785,31.23261890001595,31.23261890001595,53.34927800000878,space,22.107219099998474,None,,,,,,,,,,,,,,,,,,,,,,,,,,,,,,,,,,,,,,,,,,,,,,,,,,,,,,,,,,00059,001,2026-01-19_16h24.22.614,MST_task,2024.2.0,59.92624279080851,2026-01-19 16h24.35.053760 +0530,
7,practice_images/166a.jpg,0,0,1,None,f,0.21843409998109564,None,,,,,,,,,1,0,0,,,,53.37167480000062,,,,,,,,,,,,,,,,,,,,,,,53.369461599970236,53.37167480000062,53.86585180001566,53.88037610001629,53.8910100000212,53.8910100000212,53.8910100000212,56.86596729996381,None,56.86754259996815,56.88241459999699,56.88241459999699,57.116173600021284,f,0.21843409998109564,None,,,,,,,,,,,,,,,,,,,,,,,,,,,,,,,,,,,,,,,,,,00059,001,2026-01-19_16h24.22.614,MST_task,2024.2.0,59.92624279080851,2026-01-19 16h24.35.053760 +0530,
1,practice_images/013a.jpg,1,1,1,j,None,,,1.7470919999759644,0.15943100000731647,,,,,,,1,1,1,,,,57.1324049999821,,,,,,,,,,,,,,,,,,,,,,,57.116254599997774,57.1324049999821,57.61603139998624,57.62494169996353,57.63261430000421,57.63261430000421,57.63261430000421,60.61633410002105,j,60.61637389997486,,,60.6163870000164,None,,,57.63261430000421,60.63239549996797,60.63239549996797,60.63239549996797,1.7470919999759644,0.15943100000731647,,,,,,,,,,,,,,,,,,,,,,,,,,,,,,,,,,,,00059,001,2026-01-19_16h24.22.614,MST_task,2024.2.0,59.92624279080851,2026-01-19 16h24.35.053760 +0530,
2,practice_images/031a.jpg,2,2,1,None,f,0.238850400026422,None,,,,,,,,,1,2,2,,,,60.63239549996797,,,,,,,,,,,,,,,,,,,,,,,60.61645139998291,60.63239549996797,61.11598559998674,61.12409060000209,61.13261430000421,61.13261430000421,61.13261430000421,64.1161412000074,None,64.11617389996536,64.13236160000088,64.13236160000088,64.38281019998249,f,0.238850400026422,None,61.13261430000421,64.13236160000088,64.13236160000088,64.13236160000088,,,,,,,,,,,,,,,,,,,,,,,,,,,,,,,,,,,,,,00059,001,2026-01-19_16h24.22.614,MST_task,2024.2.0,59.92624279080851,2026-01-19 16h24.35.053760 +0530,
9,practice_images/180a.jpg,3,3,1,None,f,0.28028800000902265,None,,,,,,,,,1,3,3,,,,64.39900179998949,,,,,,,,,,,,,,,,,,,,,,,64.38289150001947,64.39900179998949,64.8825851000147,64.89099809998879,64.89920689997962,64.89920689997962,64.89920689997962,67.88296680001076,None,67.8830023999908,67.89892870001495,67.89892870001495,68.18298260000302,f,0.28028800000902265,None,64.89920689997962,67.89892870001495,67.89892870001495,67.89892870001495,,,,,,,,,,,,,,,,,,,,,,,,,,,,,,,,,,,,,,00059,001,2026-01-19_16h24.22.614,MST_task,2024.2.0,59.92624279080851,2026-01-19 16h24.35.053760 +0530,
10,practice_images/182a.jpg,4,4,1,None,f,0.24084380001295358,None,,,,,,,,,1,4,4,,,,68.19901739998022,,,,,,,,,,,,,,,,,,,,,,,68.18306890001986,68.19901739998022,68.68296910001663,68.69192179996753,68.69923470000504,68.69923470000504,68.69923470000504,71.68274959997507,None,71.68278199998895,71.69903249997878,71.69903249997878,71.94934389996342,f,0.24084380001295358,None,68.69923470000504,71.69903249997878,71.69903249997878,71.69903249997878,,,,,,,,,,,,,,,,,,,,,,,,,,,,,,,,,,,,,,00059,001,2026-01-19_16h24.22.614,MST_task,2024.2.0,59.92624279080851,2026-01-19 16h24.35.053760 +0530,
5,practice_images/139a.jpg,5,5,1,None,f,0.9774341000011191,None,,,,,,,,,1,5,5,,,,71.96574070001952,,,,,,,,,,,,,,,,,,,,,,,71.94942879996961,71.96574070001952,72.44916509999894,72.4607656999724,72.46629100001883,72.46629100001883,72.46629100001883,75.44940719997976,None,75.45165449997876,75.4657339999685,75.4657339999685,76.44942099996842,f,0.9774341000011191,None,72.46629100001883,75.4657339999685,75.4657339999685,75.4657339999685,,,,,,,,,,,,,,,,,,,,,,,,,,,,,,,,,,,,,,00059,001,2026-01-19_16h24.22.614,MST_task,2024.2.0,59.92624279080851,2026-01-19 16h24.35.053760 +0530,
8,practice_images/178a.jpg,6,6,1,None,f,0.6698150999727659,None,,,,,,,,,1,6,6,,,,76.46573729999363,,,,,,,,,,,,,,,,,,,,,,,76.44950200000312,76.46573729999363,76.94925449998118,76.95774390001316,76.96595270000398,76.96595270000398,76.96595270000398,79.9493912999751,None,79.94942269998137,79.96574519999558,79.96574519999558,80.64980569999898,f,0.6698150999727659,None,76.96595270000398,79.96574519999558,79.96574519999558,79.96574519999558,,,,,,,,,,,,,,,,,,,,,,,,,,,,,,,,,,,,,,00059,001,2026-01-19_16h24.22.614,MST_task,2024.2.0,59.92624279080851,2026-01-19 16h24.35.053760 +0530,
4,practice_images/002b.jpg,7,7,1,None,j,0.6064644000143744,None,,,,,,,,,1,7,7,,,,80.66578909999225,,,,,,,,,,,,,,,,,,,,,,,80.64989429997513,80.66578909999225,81.1491953000077,81.15750460000709,81.16599479998695,81.16599479998695,81.16599479998695,84.14941919996636,None,84.14945309999166,84.16574670001864,84.16574670001864,84.78275889996439,j,0.6064644000143744,None,81.16599479998695,84.16574670001864,84.16574670001864,84.16574670001864,,,,,,,,,,,,,,,,,,,,,,,,,,,,,,,,,,,,,,00059,001,2026-01-19_16h24.22.614,MST_task,2024.2.0,59.92624279080851,2026-01-19 16h24.35.053760 +0530,
3,practice_images/037a.jpg,8,8,1,None,f,0.5769611000432633,None,,,,,,,,,1,8,8,,,,84.79895700002089,,,,,,,,,,,,,,,,,,,,,,,84.78284190001432,84.79895700002089,85.28292829997372,85.29417999996804,85.29930259997491,85.29930259997491,85.29930259997491,88.28296839998802,None,88.28300280001713,88.29896849999204,88.29896849999204,88.88278129999526,f,0.5769611000432633,None,85.29930259997491,88.29896849999204,88.29896849999204,88.29896849999204,,,,,,,,,,,,,,,,,,,,,,,,,,,,,,,,,,,,,,00059,001,2026-01-19_16h24.22.614,MST_task,2024.2.0,59.92624279080851,2026-01-19 16h24.35.053760 +0530,
6,practice_images/158a.jpg,9,9,1,None,j,0.29286230000434443,None,,,,,,,,,1,9,9,,,,88.89884909999091,,,,,,,,,,,,,,,,,,,,,,,88.8828759000171,88.89884909999091,89.38271059998078,89.39144969999325,89.39921970001888,89.39921970001888,89.39921970001888,92.38281099998858,None,92.38288109999849,92.39895110001089,92.39895110001089,92.69946929998696,j,0.29286230000434443,None,89.39921970001888,92.39895110001089,92.39895110001089,92.39895110001089,,,,,,,,,,,,,,,,,,,,,,,,,,,,,,,,,,,,,,00059,001,2026-01-19_16h24.22.614,MST_task,2024.2.0,59.92624279080851,2026-01-19 16h24.35.053760 +0530,
,,,,,,,,,,,,,,,,,,,,,,,,,,,,,,,,,,,,,,,,,,,,,,,,,,,,,,,,,,,,,,,,,,,,92.69954070000676,92.71588490001159,92.71588490001159,98.66624099999899,space,5.942997099948116,None,,,,,,,,,,,,,,,,,,,,,,,,,,,,,00059,001,2026-01-19_16h24.22.614,MST_task,2024.2.0,59.92624279080851,2026-01-19 16h24.35.053760 +0530,
,Objects\299a.jpg,0,0,1,,,,,,,None,j,0.2684300999972038,None,,,,,,1,0,0,98.6824128999724,,,,,,,,,,,,,,,,,,,,,,,98.66689870000118,98.6824128999724,99.16595709999092,,,,,,,,,,,,,,99.18854399997508,,,,,,,,,,,,,99.18582800001604,99.18854399997508,99.18854399997508,99.18854399997508,102.18282699998235,shoe,None,102.18503120000241,102.19920859998092,102.19920859998092,102.48297120002098,j,0.2684300999972038,None,,,,,,,,,,,,,,,00059,001,2026-01-19_16h24.22.614,MST_task,2024.2.0,59.92624279080851,2026-01-19 16h24.35.053760 +0530,
,Objects\234a.jpg,1,0,2,,,,,,,None,j,0.2534095000009984,None,,,,,,2,0,1,102.49918230000185,,,,,,,,,,,,,,,,,,,,,,,102.48305759998038,102.49918230000185,102.98285299999407,,,,,,,,,,,,,,102.99948639998911,,,,,,,,,,,,,102.99471529998118,102.99948639998911,102.99948639998911,102.99948639998911,105.98310269997455,shoe,None,105.98314600001322,105.99920720001683,105.99920720001683,106.26620379998349,j,0.2534095000009984,None,105.99920720001683,105.99920720001683,105.99920720001683,,,,,,,,,,,,00059,001,2026-01-19_16h24.22.614,MST_task,2024.2.0,59.92624279080851,2026-01-19 16h24.35.053760 +0530,
,Objects\305a.jpg,2,0,3,,,,,,,None,f,0.30927189998328686,None,,,,,,3,0,2,106.28256389999297,,,,,,,,,,,,,,,,,,,,,,,106.26629030000186,106.28256389999297,106.76601269998355,,,,,,,,,,,,,,106.78276939998614,,,,,,,,,,,,,106.77569909999147,106.78276939998614,106.78276939998614,106.78276939998614,109.76658890000544,shoe,None,109.7666343000019,109.78259979997529,109.78259979997529,110.09951849997742,f,0.30927189998328686,None,109.78259979997529,109.78259979997529,109.78259979997529,,,,,,,,,,,,00059,001,2026-01-19_16h24.22.614,MST_task,2024.2.0,59.92624279080851,2026-01-19 16h24.35.053760 +0530,
,Objects\111a.jpg,3,0,4,,,,,,,None,j,0.27551870001479983,None,,,,,,4,0,3,110.11575009999797,,,,,,,,,,,,,,,,,,,,,,,110.09960519999731,110.11575009999797,110.59935580001911,,,,,,,,,,,,,,110.61612169997534,,,,,,,,,,,,,110.60938979999628,110.61612169997534,110.61612169997534,110.61612169997534,113.59986399998888,shoe,None,113.59990149998339,113.61580679996405,113.61580679996405,113.89962250000099,j,0.27551870001479983,None,113.61580679996405,113.61580679996405,113.61580679996405,,,,,,,,,,,,00059,001,2026-01-19_16h24.22.614,MST_task,2024.2.0,59.92624279080851,2026-01-19 16h24.35.053760 +0530,
,Objects\188a.jpg,4,0,5,,,,,,,None,f,0.2276551999966614,None,,,,,,5,0,4,113.91579629998887,,,,,,,,,,,,,,,,,,,,,,,113.89975019998383,113.91579629998887,114.39942759997211,,,,,,,,,,,,,,114.41603379999287,,,,,,,,,,,,,114.40925309999147,114.41603379999287,114.41603379999287,114.41603379999287,117.3996781000169,shoe,None,117.39971600001445,117.41577389999293,117.41577389999293,117.64954870002111,f,0.2276551999966614,None,117.41577389999293,117.41577389999293,117.41577389999293,,,,,,,,,,,,00059,001,2026-01-19_16h24.22.614,MST_task,2024.2.0,59.92624279080851,2026-01-19 16h24.35.053760 +0530,
,Objects\016a.jpg,5,0,6,,,,,,,None,f,0.23770060000242665,None,,,,,,6,0,5,117.66574650001712,,,,,,,,,,,,,,,,,,,,,,,117.6496715999674,117.66574650001712,118.1494498999673,,,,,,,,,,,,,,118.16602319997037,,,,,,,,,,,,,118.15962789999321,118.16602319997037,118.16602319997037,118.16602319997037,121.14954850001959,shoe,None,121.14958680002019,121.16575569997076,121.16575569997076,121.41638860001694,f,0.23770060000242665,None,121.16575569997076,121.16575569997076,121.16575569997076,,,,,,,,,,,,00059,001,2026-01-19_16h24.22.614,MST_task,2024.2.0,59.92624279080851,2026-01-19 16h24.35.053760 +0530,
,Objects\099a.jpg,6,0,7,,,,,,,None,j,0.30320470000151545,None,,,,,,7,0,6,121.43249139998807,,,,,,,,,,,,,,,,,,,,,,,121.41650340001797,121.43249139998807,121.91614689998096,,,,,,,,,,,,,,121.93288229999598,,,,,,,,,,,,,121.92680600000313,121.93288229999598,121.93288229999598,121.93288229999598,124.91643420001492,shoe,None,124.91647970001213,124.93244740000227,124.93244740000227,125.2495118000079,j,0.30320470000151545,None,124.93244740000227,124.93244740000227,124.93244740000227,,,,,,,,,,,,00059,001,2026-01-19_16h24.22.614,MST_task,2024.2.0,59.92624279080851,2026-01-19 16h24.35.053760 +0530,
,Objects\008a.jpg,7,0,8,,,,,,,None,f,0.4614278000080958,None,,,,,,8,0,7,125.26577489997726,,,,,,,,,,,,,,,,,,,,,,,125.24960789998295,125.26577489997726,125.74933839996811,,,,,,,,,,,,,,125.76601779996417,,,,,,,,,,,,,125.76254779996816,125.76601779996417,125.76601779996417,125.76601779996417,128.74968389997957,indoor,None,128.75134790001903,128.76587990002008,128.76587990002008,129.2328952999669,f,0.4614278000080958,None,128.76587990002008,128.76587990002008,128.76587990002008,,,,,,,,,,,,00059,001,2026-01-19_16h24.22.614,MST_task,2024.2.0,59.92624279080851,2026-01-19 16h24.35.053760 +0530,
,Objects\126a.jpg,8,0,9,,,,,,,None,j,0.2305519999936223,None,,,,,,9,0,8,129.24917710002046,,,,,,,,,,,,,,,,,,,,,,,129.23298209998757,129.24917710002046,129.73273579997476,,,,,,,,,,,,,,129.74937869998394,,,,,,,,,,,,,129.74260329996468,129.74937869998394,129.74937869998394,129.74937869998394,132.73305689997505,indoor,None,132.73309629998403,132.74888139998075,132.74888139998075,132.98289129999466,j,0.2305519999936223,None,132.74888139998075,132.74888139998075,132.74888139998075,,,,,,,,,,,,00059,001,2026-01-19_16h24.22.614,MST_task,2024.2.0,59.92624279080851,2026-01-19 16h24.35.053760 +0530,
,Objects\125a.jpg,9,0,10,,,,,,,None,j,0.24800750002032146,None,,,,,,10,0,9,132.99902809999185,,,,,,,,,,,,,,,,,,,,,,,132.9829776000115,132.99902809999185,133.48281159996986,,,,,,,,,,,,,,133.4993902000133,,,,,,,,,,,,,133.4924006999936,133.4993902000133,133.4993902000133,133.4993902000133,136.4830459000077,indoor,None,136.48308330000145,136.49892639997415,136.49892639997415,136.74944829999004,j,0.24800750002032146,None,136.49892639997415,136.49892639997415,136.49892639997415,,,,,,,,,,,,00059,001,2026-01-19_16h24.22.614,MST_task,2024.2.0,59.92624279080851,2026-01-19 16h24.35.053760 +0530,
,Objects\122a.jpg,10,0,11,,,,,,,None,f,0.41715929994825274,None,,,,,,11,0,10,136.76578139996855,,,,,,,,,,,,,,,,,,,,,,,136.74953179998556,136.76578139996855,137.2493819000083,,,,,,,,,,,,,,137.26594860001933,,,,,,,,,,,,,137.26079500000924,137.26594860001933,137.26594860001933,137.26594860001933,140.24995039997157,indoor,None,140.24999549996573,140.2658984999871,140.2658984999871,140.69937769998796,f,0.41715929994825274,None,140.2658984999871,140.2658984999871,140.2658984999871,,,,,,,,,,,,00059,001,2026-01-19_16h24.22.614,MST_task,2024.2.0,59.92624279080851,2026-01-19 16h24.35.053760 +0530,
,Objects\158a.jpg,11,0,12,,,,,,,None,f,0.4195839000167325,None,,,,,,12,0,11,140.71576230000937,,,,,,,,,,,,,,,,,,,,,,,140.69946340000024,140.71576230000937,141.19915629999014,,,,,,,,,,,,,,141.21600509999553,,,,,,,,,,,,,141.2080576000153,141.21600509999553,141.21600509999553,141.21600509999553,144.19958929996938,indoor,None,144.19962869997835,144.21576639998239,144.21576639998239,144.6498007000191,f,0.4195839000167325,None,144.21576639998239,144.21576639998239,144.21576639998239,,,,,,,,,,,,00059,001,2026-01-19_16h24.22.614,MST_task,2024.2.0,59.92624279080851,2026-01-19 16h24.35.053760 +0530,
,Objects\094a.jpg,12,0,13,,,,,,,None,f,0.3418322000070475,None,,,,,,13,0,12,144.6657573999837,,,,,,,,,,,,,,,,,,,,,,,144.64988639997318,144.6657573999837,145.14987610001117,,,,,,,,,,,,,,145.16609179996885,,,,,,,,,,,,,145.16206629999215,145.16609179996885,145.16609179996885,145.16609179996885,148.14958719996503,indoor,None,148.14962639997248,148.16592669999227,148.16592669999227,148.51619920000667,f,0.3418322000070475,None,148.16592669999227,148.16592669999227,148.16592669999227,,,,,,,,,,,,00059,001,2026-01-19_16h24.22.614,MST_task,2024.2.0,59.92624279080851,2026-01-19 16h24.35.053760 +0530,
,Objects\353a.jpg,13,0,14,,,,,,,None,f,0.3069297999609262,None,,,,,,14,0,13,148.5324248999823,,,,,,,,,,,,,,,,,,,,,,,148.51628480001818,148.5324248999823,149.01602959999582,,,,,,,,,,,,,,149.03285999997752,,,,,,,,,,,,,149.0260045999894,149.03285999997752,149.03285999997752,149.03285999997752,152.01631169999018,indoor,None,152.01635160000296,152.03244799998356,152.03244799998356,152.34931369998958,f,0.3069297999609262,None,152.03244799998356,152.03244799998356,152.03244799998356,,,,,,,,,,,,00059,001,2026-01-19_16h24.22.614,MST_task,2024.2.0,59.92624279080851,2026-01-19 16h24.35.053760 +0530,
,Objects\176a.jpg,14,0,15,,,,,,,None,j,0.28117590001784265,None,,,,,,15,0,14,152.36572870000964,,,,,,,,,,,,,,,,,,,,,,,152.34940020000795,152.36572870000964,152.84931069996674,,,,,,,,,,,,,,152.8661500000162,,,,,,,,,,,,,152.8621436000103,152.8661500000162,152.8661500000162,152.8661500000162,155.84958959999494,shoe,None,155.8518126999843,155.8658284000121,155.8658284000121,156.1496177999652,j,0.28117590001784265,None,155.8658284000121,155.8658284000121,155.8658284000121,,,,,,,,,,,,00059,001,2026-01-19_16h24.22.614,MST_task,2024.2.0,59.92624279080851,2026-01-19 16h24.35.053760 +0530,
,Objects\211a.jpg,15,0,16,,,,,,,None,f,0.27359230001457036,None,,,,,,16,0,15,156.1657651999849,,,,,,,,,,,,,,,,,,,,,,,156.1497367999982,156.1657651999849,156.64931790000992,,,,,,,,,,,,,,156.66624310001498,,,,,,,,,,,,,156.65962390002096,156.66624310001498,156.66624310001498,156.66624310001498,159.64954569999827,shoe,None,159.64958849997493,159.66576659999555,159.66576659999555,159.94946340000024,f,0.27359230001457036,None,159.66576659999555,159.66576659999555,159.66576659999555,,,,,,,,,,,,00059,001,2026-01-19_16h24.22.614,MST_task,2024.2.0,59.92624279080851,2026-01-19 16h24.35.053760 +0530,
,Objects\067a.jpg,16,0,17,,,,,,,None,j,0.3866507000057027,None,,,,,,17,0,16,159.96573589998297,,,,,,,,,,,,,,,,,,,,,,,159.949557200016,159.96573589998297,160.44922979996772,,,,,,,,,,,,,,160.4661074000178,,,,,,,,,,,,,160.45933169999626,160.4661074000178,160.4661074000178,160.4661074000178,163.4494150999817,shoe,None,163.44945319998078,163.46572899998864,163.46572899998864,163.86628010001732,j,0.3866507000057027,None,163.46572899998864,163.46572899998864,163.46572899998864,,,,,,,,,,,,00059,001,2026-01-19_16h24.22.614,MST_task,2024.2.0,59.92624279080851,2026-01-19 16h24.35.053760 +0530,
,Objects\206a.jpg,17,0,18,,,,,,,None,j,0.24514149996684864,None,,,,,,18,0,17,163.88276549999136,,,,,,,,,,,,,,,,,,,,,,,163.86636719998205,163.88276549999136,164.36597970000003,,,,,,,,,,,,,,164.38288059999468,,,,,,,,,,,,,164.37592059996678,164.38288059999468,164.38288059999468,164.38288059999468,167.3663492000196,shoe,None,167.36639079998713,167.3824675999931,167.3824675999931,167.63291769998614,j,0.24514149996684864,None,167.3824675999931,167.3824675999931,167.3824675999931,,,,,,,,,,,,00059,001,2026-01-19_16h24.22.614,MST_task,2024.2.0,59.92624279080851,2026-01-19 16h24.35.053760 +0530,
,Objects\252a.jpg,18,0,19,,,,,,,None,f,0.3420530000003055,None,,,,,,19,0,18,167.64889499999117,,,,,,,,,,,,,,,,,,,,,,,167.63300520001212,167.64889499999117,168.13267159997486,,,,,,,,,,,,,,168.14928800001508,,,,,,,,,,,,,168.14326619997155,168.14928800001508,168.14928800001508,168.14928800001508,171.1330401999876,shoe,None,171.13307809998514,171.14895409997553,171.14895409997553,171.4994370000204,f,0.3420530000003055,None,171.14895409997553,171.14895409997553,171.14895409997553,,,,,,,,,,,,00059,001,2026-01-19_16h24.22.614,MST_task,2024.2.0,59.92624279080851,2026-01-19 16h24.35.053760 +0530,
,Objects\019a.jpg,19,0,20,,,,,,,None,j,0.33924080000724643,None,,,,,,20,0,19,171.5157934000017,,,,,,,,,,,,,,,,,,,,,,,171.49952579999808,171.5157934000017,171.99930550000863,,,,,,,,,,,,,,172.0160950999707,,,,,,,,,,,,,172.0088389000157,172.0160950999707,172.0160950999707,172.0160950999707,174.99958359997254,shoe,None,174.99962959997356,175.01578839996364,175.01578839996364,175.36621050001122,j,0.33924080000724643,None,175.01578839996364,175.01578839996364,175.01578839996364,,,,,,,,,,,,00059,001,2026-01-19_16h24.22.614,MST_task,2024.2.0,59.92624279080851,2026-01-19 16h24.35.053760 +0530,
,Objects\241a.jpg,20,0,21,,,,,,,None,j,0.2966247000149451,None,,,,,,21,0,20,175.38239119999344,,,,,,,,,,,,,,,,,,,,,,,175.36629689997062,175.38239119999344,175.8661275000195,,,,,,,,,,,,,,175.8826606000075,,,,,,,,,,,,,175.87577569996938,175.8826606000075,175.8826606000075,175.8826606000075,178.8663067999878,shoe,None,178.86634409998078,178.8824054999859,178.8824054999859,179.182842899987,j,0.2966247000149451,None,178.8824054999859,178.8824054999859,178.8824054999859,,,,,,,,,,,,00059,001,2026-01-19_16h24.22.614,MST_task,2024.2.0,59.92624279080851,2026-01-19 16h24.35.053760 +0530,
,Objects\144a.jpg,21,0,22,,,,,,,None,f,0.33626519999234006,None,,,,,,22,0,21,179.19892830000026,,,,,,,,,,,,,,,,,,,,,,,179.18292870000005,179.19892830000026,179.6827411999693,,,,,,,,,,,,,,179.69931920000818,,,,,,,,,,,,,179.69493040000089,179.69931920000818,179.69931920000818,179.69931920000818,182.68304380000336,indoor,None,182.6848534999881,182.69898029998876,182.69898029998876,183.04951689997688,f,0.33626519999234006,None,182.69898029998876,182.69898029998876,182.69898029998876,,,,,,,,,,,,00059,001,2026-01-19_16h24.22.614,MST_task,2024.2.0,59.92624279080851,2026-01-19 16h24.35.053760 +0530,
,Objects\235a.jpg,22,0,23,,,,,,,None,f,0.27811539999675006,None,,,,,,23,0,22,183.065769799985,,,,,,,,,,,,,,,,,,,,,,,183.04960209998535,183.065769799985,183.54924590000883,,,,,,,,,,,,,,183.56620499998098,,,,,,,,,,,,,183.55938529997366,183.56620499998098,183.56620499998098,183.56620499998098,186.54954420001013,indoor,None,186.54958399996394,186.56579339999007,186.56579339999007,186.8495487999753,f,0.27811539999675006,None,186.56579339999007,186.56579339999007,186.56579339999007,,,,,,,,,,,,00059,001,2026-01-19_16h24.22.614,MST_task,2024.2.0,59.92624279080851,2026-01-19 16h24.35.053760 +0530,
,Objects\091a.jpg,23,0,24,,,,,,,None,f,0.32526660000439733,None,,,,,,24,0,23,186.86576279997826,,,,,,,,,,,,,,,,,,,,,,,186.8496386000188,186.86576279997826,187.34922689996893,,,,,,,,,,,,,,187.36637579998933,,,,,,,,,,,,,187.35994629998459,187.36637579998933,187.36637579998933,187.36637579998933,190.3495945999748,indoor,None,190.34963359998073,190.365785699978,190.365785699978,190.6994062999729,f,0.32526660000439733,None,190.365785699978,190.365785699978,190.365785699978,,,,,,,,,,,,00059,001,2026-01-19_16h24.22.614,MST_task,2024.2.0,59.92624279080851,2026-01-19 16h24.35.053760 +0530,
,Objects\222a.jpg,24,0,25,,,,,,,None,f,0.2514249000232667,None,,,,,,25,0,24,190.71577790001174,,,,,,,,,,,,,,,,,,,,,,,190.69949440000346,190.71577790001174,191.1993395999889,,,,,,,,,,,,,,191.21613949997118,,,,,,,,,,,,,191.20947120001074,191.21613949997118,191.21613949997118,191.21613949997118,194.19960459996946,indoor,None,194.19964309997158,194.2157207999844,194.2157207999844,194.4830296,f,0.2514249000232667,None,194.2157207999844,194.2157207999844,194.2157207999844,,,,,,,,,,,,00059,001,2026-01-19_16h24.22.614,MST_task,2024.2.0,59.92624279080851,2026-01-19 16h24.35.053760 +0530,
,Objects\193a.jpg,25,0,26,,,,,,,None,f,0.30146320001222193,None,,,,,,26,0,25,194.4990245999652,,,,,,,,,,,,,,,,,,,,,,,194.48312539997278,194.4990245999652,194.98264259996358,,,,,,,,,,,,,,194.99933489999967,,,,,,,,,,,,,194.99284720001742,194.99933489999967,194.99933489999967,194.99933489999967,197.98312350001652,indoor,None,197.9831630999688,197.99899310001638,197.99899310001638,198.31621469999664,f,0.30146320001222193,None,197.99899310001638,197.99899310001638,197.99899310001638,,,,,,,,,,,,00059,001,2026-01-19_16h24.22.614,MST_task,2024.2.0,59.92624279080851,2026-01-19 16h24.35.053760 +0530,
,Objects\357a.jpg,26,0,27,,,,,,,None,j,0.23484430002281442,None,,,,,,27,0,26,198.3324618000188,,,,,,,,,,,,,,,,,,,,,,,198.3163002000074,198.3324618000188,198.81601549999323,,,,,,,,,,,,,,198.83267749997322,,,,,,,,,,,,,198.82561130000977,198.83267749997322,198.83267749997322,198.83267749997322,201.81635879998794,indoor,None,201.8164015999646,201.83244430000195,201.83244430000195,202.08318790001795,j,0.23484430002281442,None,201.83244430000195,201.83244430000195,201.83244430000195,,,,,,,,,,,,00059,001,2026-01-19_16h24.22.614,MST_task,2024.2.0,59.92624279080851,2026-01-19 16h24.35.053760 +0530,
,Objects\018a.jpg,27,0,28,,,,,,,None,j,0.22043490002397448,None,,,,,,28,0,27,202.09919169999193,,,,,,,,,,,,,,,,,,,,,,,202.0832981999847,202.09919169999193,202.58267099998193,,,,,,,,,,,,,,202.5992697000038,,,,,,,,,,,,,202.59273929998744,202.5992697000038,202.5992697000038,202.5992697000038,205.58307230001083,indoor,None,205.58311070001218,205.5990988999838,205.5990988999838,205.8327818000107,j,0.22043490002397448,None,205.5990988999838,205.5990988999838,205.5990988999838,,,,,,,,,,,,00059,001,2026-01-19_16h24.22.614,MST_task,2024.2.0,59.92624279080851,2026-01-19 16h24.35.053760 +0530,
,Objects\187a.jpg,28,0,29,,,,,,,None,f,0.3586784999934025,None,,,,,,29,0,28,205.84904319996713,,,,,,,,,,,,,,,,,,,,,,,205.8328659000108,205.84904319996713,206.3327623999794,,,,,,,,,,,,,,206.3493029999663,,,,,,,,,,,,,206.34603109996533,206.3493029999663,206.3493029999663,206.3493029999663,209.33297059999313,shoe,None,209.3351375000202,209.34896839997964,209.34896839997964,209.7164017999894,f,0.3586784999934025,None,209.34896839997964,209.34896839997964,209.34896839997964,,,,,,,,,,,,00059,001,2026-01-19_16h24.22.614,MST_task,2024.2.0,59.92624279080851,2026-01-19 16h24.35.053760 +0530,
,Objects\297a.jpg,29,0,30,,,,,,,None,j,0.23488649999490008,None,,,,,,30,0,29,209.73246540001128,,,,,,,,,,,,,,,,,,,,,,,209.7165278000175,209.73246540001128,210.21602809999604,,,,,,,,,,,,,,210.23289220000152,,,,,,,,,,,,,210.22641080000903,210.23289220000152,210.23289220000152,210.23289220000152,213.2163353000069,shoe,None,213.21637209999608,213.23239279998234,213.23239279998234,213.48309589998098,j,0.23488649999490008,None,213.23239279998234,213.23239279998234,213.23239279998234,,,,,,,,,,,,00059,001,2026-01-19_16h24.22.614,MST_task,2024.2.0,59.92624279080851,2026-01-19 16h24.35.053760 +0530,
,Objects\192a.jpg,30,0,31,,,,,,,None,f,0.2519243999850005,None,,,,,,31,0,30,213.50027690001298,,,,,,,,,,,,,,,,,,,,,,,213.483185399964,213.50027690001298,213.99915699998382,,,,,,,,,,,,,,,,,,,,,,,,,,,214.01122039998882,214.0163338999846,214.0163338999846,214.0163338999846,216.9993109999923,shoe,None,216.9993554999819,217.01575560000492,217.01575560000492,217.28301690000808,f,0.2519243999850005,None,,,,,,,,,,,,,,,00059,001,2026-01-19_16h24.22.614,MST_task,2024.2.0,59.92624279080851,2026-01-19 16h24.35.053760 +0530,
,Objects\242a.jpg,31,0,32,,,,,,,None,j,0.588508200016804,None,,,,,,32,0,31,217.29902520001633,,,,,,,,,,,,,,,,,,,,,,,217.28310770000098,217.29902520001633,217.78291660000104,,,,,,,,,,,,,,217.7993496999843,,,,,,,,,,,,,217.79371709999396,217.7993496999843,217.7993496999843,217.7993496999843,220.7831237000064,shoe,None,220.78316310001537,220.79910999996355,220.79910999996355,221.3992944000056,j,0.588508200016804,None,220.79910999996355,220.79910999996355,220.79910999996355,,,,,,,,,,,,00059,001,2026-01-19_16h24.22.614,MST_task,2024.2.0,59.92624279080851,2026-01-19 16h24.35.053760 +0530,
,Objects\215a.jpg,32,0,33,,,,,,,None,f,0.26920999999856576,None,,,,,,33,0,32,221.41577700001653,,,,,,,,,,,,,,,,,,,,,,,221.3993812999688,221.41577700001653,221.89947050000774,,,,,,,,,,,,,,221.91608529997757,,,,,,,,,,,,,221.90944590000436,221.91608529997757,221.91608529997757,221.91608529997757,224.89951040002052,shoe,None,224.89954909996595,224.91800269996747,224.91800269996747,225.1996841999935,f,0.26920999999856576,None,,,,,,,,,,,,,,,00059,001,2026-01-19_16h24.22.614,MST_task,2024.2.0,59.92624279080851,2026-01-19 16h24.35.053760 +0530,
,Objects\326a.jpg,33,0,34,,,,,,,None,f,0.2803968000225723,None,,,,,,34,0,33,225.21588679996785,,,,,,,,,,,,,,,,,,,,,,,225.19977050001035,225.21588679996785,225.69954689999577,,,,,,,,,,,,,,225.7160763000138,,,,,,,,,,,,,225.71155539999017,225.7160763000138,225.7160763000138,225.7160763000138,228.69970559998183,shoe,None,228.6997441999847,228.7159052999923,228.7159052999923,228.99998540000524,f,0.2803968000225723,None,228.7159052999923,228.7159052999923,228.7159052999923,,,,,,,,,,,,00059,001,2026-01-19_16h24.22.614,MST_task,2024.2.0,59.92624279080851,2026-01-19 16h24.35.053760 +0530,
,Objects\017a.jpg,34,0,35,,,,,,,None,f,0.23976279998896644,None,,,,,,35,0,34,229.01600910001434,,,,,,,,,,,,,,,,,,,,,,,229.00009440002032,229.01600910001434,229.4994802000001,,,,,,,,,,,,,,229.51616709999507,,,,,,,,,,,,,229.50888579996536,229.51616709999507,229.51616709999507,229.51616709999507,232.49979859997984,shoe,None,232.4998387999949,232.51584279997041,232.51584279997041,232.76637229998596,f,0.23976279998896644,None,232.51584279997041,232.51584279997041,232.51584279997041,,,,,,,,,,,,00059,001,2026-01-19_16h24.22.614,MST_task,2024.2.0,59.92624279080851,2026-01-19 16h24.35.053760 +0530,
,Objects\340a.jpg,35,0,36,,,,,,,None,f,0.26566380000440404,None,,,,,,36,0,35,232.7825857999851,,,,,,,,,,,,,,,,,,,,,,,232.76645429997006,232.7825857999851,233.26611460000277,,,,,,,,,,,,,,233.28297599998768,,,,,,,,,,,,,233.2781401000102,233.28297599998768,233.28297599998768,233.28297599998768,236.26646720001008,indoor,None,236.2681173000019,236.2825889000087,236.2825889000087,236.54966650001006,f,0.26566380000440404,None,236.2825889000087,236.2825889000087,236.2825889000087,,,,,,,,,,,,00059,001,2026-01-19_16h24.22.614,MST_task,2024.2.0,59.92624279080851,2026-01-19 16h24.35.053760 +0530,
,Objects\232a.jpg,36,0,37,,,,,,,None,j,0.22490929998457432,None,,,,,,37,0,36,236.5659122999641,,,,,,,,,,,,,,,,,,,,,,,236.5497491999995,236.5659122999641,237.04961410001852,,,,,,,,,,,,,,237.06626130000222,,,,,,,,,,,,,237.05969869997352,237.06626130000222,237.06626130000222,237.06626130000222,240.04973580001388,indoor,None,240.0497755999677,240.0659893999691,240.0659893999691,240.2996464999742,j,0.22490929998457432,None,240.0659893999691,240.0659893999691,240.0659893999691,,,,,,,,,,,,00059,001,2026-01-19_16h24.22.614,MST_task,2024.2.0,59.92624279080851,2026-01-19 16h24.35.053760 +0530,
,Objects\348a.jpg,37,0,38,,,,,,,None,j,0.2916510999784805,None,,,,,,38,0,37,240.3159829999786,,,,,,,,,,,,,,,,,,,,,,,240.29973189998418,240.3159829999786,240.7994466999662,,,,,,,,,,,,,,240.81626200000755,,,,,,,,,,,,,240.8091266999836,240.81626200000755,240.81626200000755,240.81626200000755,243.79988469998352,indoor,None,243.79992479999783,243.81583330000285,243.81583330000285,244.11626069998601,j,0.2916510999784805,None,243.81583330000285,243.81583330000285,243.81583330000285,,,,,,,,,,,,00059,001,2026-01-19_16h24.22.614,MST_task,2024.2.0,59.92624279080851,2026-01-19 16h24.35.053760 +0530,
,Objects\330a.jpg,38,0,39,,,,,,,None,j,0.24296180001692846,None,,,,,,39,0,38,244.13255440001376,,,,,,,,,,,,,,,,,,,,,,,244.1163496999652,244.13255440001376,244.61614589998499,,,,,,,,,,,,,,244.6329600000172,,,,,,,,,,,,,244.6276465000119,244.6329600000172,244.6329600000172,244.6329600000172,247.61648079997394,indoor,None,247.6165183999692,247.63253780000377,247.63253780000377,247.88295140000992,j,0.24296180001692846,None,247.63253780000377,247.63253780000377,247.63253780000377,,,,,,,,,,,,00059,001,2026-01-19_16h24.22.614,MST_task,2024.2.0,59.92624279080851,2026-01-19 16h24.35.053760 +0530,
,Objects\119a.jpg,39,0,40,,,,,,,None,j,0.244692699983716,None,,,,,,40,0,39,247.89921429997776,,,,,,,,,,,,,,,,,,,,,,,247.88303510000696,247.89921429997776,248.3828706999775,,,,,,,,,,,,,,248.39962829998694,,,,,,,,,,,,,248.39380969997728,248.39962829998694,248.39962829998694,248.39962829998694,251.38330029998906,indoor,None,251.38334170001326,251.39927039999748,251.39927039999748,251.64944710000418,j,0.244692699983716,None,251.39927039999748,251.39927039999748,251.39927039999748,,,,,,,,,,,,00059,001,2026-01-19_16h24.22.614,MST_task,2024.2.0,59.92624279080851,2026-01-19 16h24.35.053760 +0530,
,Objects\174a.jpg,40,0,41,,,,,,,None,f,0.3102377000031993,None,,,,,,41,0,40,251.6657560999738,,,,,,,,,,,,,,,,,,,,,,,251.64953589998186,251.6657560999738,252.14934529998573,,,,,,,,,,,,,,252.16605619998882,,,,,,,,,,,,,252.1586167999776,252.16605619998882,252.16605619998882,252.16605619998882,255.1497111999779,indoor,None,255.14975119999144,255.16591129999142,255.16591129999142,255.48321169998962,f,0.3102377000031993,None,255.16591129999142,255.16591129999142,255.16591129999142,,,,,,,,,,,,00059,001,2026-01-19_16h24.22.614,MST_task,2024.2.0,59.92624279080851,2026-01-19 16h24.35.053760 +0530,
,Objects\168a.jpg,41,0,42,,,,,,,None,f,0.6208882000064477,None,,,,,,42,0,41,255.4990475999657,,,,,,,,,,,,,,,,,,,,,,,255.48330660001375,255.4990475999657,255.98286160000134,,,,,,,,,,,,,,255.99947639997117,,,,,,,,,,,,,255.99226520000957,255.99947639997117,255.99947639997117,255.99947639997117,258.98304449999705,indoor,None,258.9830864999676,258.99922840000363,258.99922840000363,259.63297430000966,f,0.6208882000064477,None,258.99922840000363,258.99922840000363,258.99922840000363,,,,,,,,,,,,00059,001,2026-01-19_16h24.22.614,MST_task,2024.2.0,59.92624279080851,2026-01-19 16h24.35.053760 +0530,
,Objects\177a.jpg,42,0,43,,,,,,,None,j,0.27065640001092106,None,,,,,,43,0,42,259.6491203000187,,,,,,,,,,,,,,,,,,,,,,,259.63309819996357,259.6491203000187,260.13311529997736,,,,,,,,,,,,,,260.1492334000068,,,,,,,,,,,,,260.1459430999821,260.1492334000068,260.1492334000068,260.1492334000068,263.1331359000178,shoe,None,263.135361499968,263.14911810000194,263.14911810000194,263.43307379999897,j,0.27065640001092106,None,263.14911810000194,263.14911810000194,263.14911810000194,,,,,,,,,,,,00059,001,2026-01-19_16h24.22.614,MST_task,2024.2.0,59.92624279080851,2026-01-19 16h24.35.053760 +0530,
,Objects\262a.jpg,43,0,44,,,,,,,None,f,0.2703582000103779,None,,,,,,44,0,43,263.44926849997137,,,,,,,,,,,,,,,,,,,,,,,263.4331934999791,263.44926849997137,263.9328615000122,,,,,,,,,,,,,,263.94934880000073,,,,,,,,,,,,,263.94308579998324,263.94934880000073,263.94934880000073,263.94934880000073,266.933053500019,shoe,None,266.9330915000173,266.9491430000053,266.9491430000053,267.2329605999985,f,0.2703582000103779,None,266.9491430000053,266.9491430000053,266.9491430000053,,,,,,,,,,,,00059,001,2026-01-19_16h24.22.614,MST_task,2024.2.0,59.92624279080851,2026-01-19 16h24.35.053760 +0530,
,Objects\251a.jpg,44,0,45,,,,,,,None,f,0.24579409998841584,None,,,,,,45,0,44,267.24920969997765,,,,,,,,,,,,,,,,,,,,,,,267.23304399999324,267.24920969997765,267.7327856000047,,,,,,,,,,,,,,267.74956079997355,,,,,,,,,,,,,267.74482459999854,267.74956079997355,267.74956079997355,267.74956079997355,270.73317069996847,shoe,None,270.7332083999645,270.7491446000058,270.7491446000058,270.9994762999704,f,0.24579409998841584,None,270.7491446000058,270.7491446000058,270.7491446000058,,,,,,,,,,,,00059,001,2026-01-19_16h24.22.614,MST_task,2024.2.0,59.92624279080851,2026-01-19 16h24.35.053760 +0530,
,Objects\161a.jpg,45,0,46,,,,,,,None,f,0.3442877000197768,None,,,,,,46,0,45,271.0157803000184,,,,,,,,,,,,,,,,,,,,,,,270.99956550000934,271.0157803000184,271.49936650000745,,,,,,,,,,,,,,271.5162432999932,,,,,,,,,,,,,271.5095818999689,271.5162432999932,271.5162432999932,271.5162432999932,274.4997068999801,shoe,None,274.4997538999887,274.51593709998997,274.51593709998997,274.86639699997613,f,0.3442877000197768,None,274.51593709998997,274.51593709998997,274.51593709998997,,,,,,,,,,,,00059,001,2026-01-19_16h24.22.614,MST_task,2024.2.0,59.92624279080851,2026-01-19 16h24.35.053760 +0530,
,Objects\102a.jpg,46,0,47,,,,,,,None,f,0.24509799998486415,None,,,,,,47,0,46,274.8825758000021,,,,,,,,,,,,,,,,,,,,,,,274.8664818999823,274.8825758000021,275.3661509999656,,,,,,,,,,,,,,275.3827382000163,,,,,,,,,,,,,275.3767240999732,275.3827382000163,275.3827382000163,275.3827382000163,278.36639229999855,shoe,None,278.3664333000197,278.3826054999954,278.3826054999954,278.63305449998006,f,0.24509799998486415,None,278.3826054999954,278.3826054999954,278.3826054999954,,,,,,,,,,,,00059,001,2026-01-19_16h24.22.614,MST_task,2024.2.0,59.92624279080851,2026-01-19 16h24.35.053760 +0530,
,Objects\246a.jpg,47,0,48,,,,,,,None,f,0.07880349998595193,None,,,,,,48,0,47,278.6492309999885,,,,,,,,,,,,,,,,,,,,,,,278.63314039999386,278.6492309999885,279.1327747000032,,,,,,,,,,,,,,279.1493259000126,,,,,,,,,,,,,279.14246730000013,279.1493259000126,279.1493259000126,279.1493259000126,282.13313339999877,shoe,None,282.1331726000062,282.1490129000158,282.1490129000158,282.232954600011,f,0.07880349998595193,None,282.1490129000158,282.1490129000158,282.1490129000158,,,,,,,,,,,,00059,001,2026-01-19_16h24.22.614,MST_task,2024.2.0,59.92624279080851,2026-01-19 16h24.35.053760 +0530,
,Objects\270a.jpg,48,0,49,,,,,,,None,j,0.25463540002238005,None,,,,,,49,0,48,282.2489978999947,,,,,,,,,,,,,,,,,,,,,,,282.23303599999053,282.2489978999947,282.7327659999719,,,,,,,,,,,,,,282.749406500021,,,,,,,,,,,,,282.74326680001104,282.749406500021,282.749406500021,282.749406500021,285.7331333999755,shoe,None,285.73317089997,285.7490788999712,285.7490788999712,286.01622310001403,j,0.25463540002238005,None,285.7490788999712,285.7490788999712,285.7490788999712,,,,,,,,,,,,00059,001,2026-01-19_16h24.22.614,MST_task,2024.2.0,59.92624279080851,2026-01-19 16h24.35.053760 +0530,
,Objects\203a.jpg,49,0,50,,,,,,,None,j,0.2226399999926798,None,,,,,,50,0,49,286.0324538999703,,,,,,,,,,,,,,,,,,,,,,,286.0163080000202,286.0324538999703,286.5161747999955,,,,,,,,,,,,,,286.5327866000007,,,,,,,,,,,,,286.5281201999751,286.5327866000007,286.5327866000007,286.5327866000007,289.51650329999393,indoor,None,289.5181712000049,289.5324438000098,289.5324438000098,289.7662460000138,j,0.2226399999926798,None,289.5324438000098,289.5324438000098,289.5324438000098,,,,,,,,,,,,00059,001,2026-01-19_16h24.22.614,MST_task,2024.2.0,59.92624279080851,2026-01-19 16h24.35.053760 +0530,
,Objects\103a.jpg,50,0,51,,,,,,,None,j,0.7133753999951296,None,,,,,,51,0,50,289.7824025999871,,,,,,,,,,,,,,,,,,,,,,,289.76632779999636,289.7824025999871,290.26599200000055,,,,,,,,,,,,,,290.28288660000544,,,,,,,,,,,,,290.2766424000147,290.28288660000544,290.28288660000544,290.28288660000544,293.2663653999916,indoor,None,293.2664026999846,293.28240299999015,293.28240299999015,293.99971529998584,j,0.7133753999951296,None,293.28240299999015,293.28240299999015,293.28240299999015,,,,,,,,,,,,00059,001,2026-01-19_16h24.22.614,MST_task,2024.2.0,59.92624279080851,2026-01-19 16h24.35.053760 +0530,
,Objects\279a.jpg,51,0,52,,,,,,,None,f,0.28798470000037923,None,,,,,,52,0,51,294.01588650001213,,,,,,,,,,,,,,,,,,,,,,,293.99982729996555,294.01588650001213,294.4993950999924,,,,,,,,,,,,,,294.5160422999761,,,,,,,,,,,,,294.5096112000174,294.5160422999761,294.5160422999761,294.5160422999761,297.4995611999766,indoor,None,297.4996012999909,297.5158386999974,297.5158386999974,297.81622649997007,f,0.28798470000037923,None,297.5158386999974,297.5158386999974,297.5158386999974,,,,,,,,,,,,00059,001,2026-01-19_16h24.22.614,MST_task,2024.2.0,59.92624279080851,2026-01-19 16h24.35.053760 +0530,
,Objects\151a.jpg,52,0,53,,,,,,,None,f,0.24724230001447722,None,,,,,,53,0,52,297.8324622999644,,,,,,,,,,,,,,,,,,,,,,,297.81630989996484,297.8324622999644,298.3160688999924,,,,,,,,,,,,,,298.332751000009,,,,,,,,,,,,,298.3254893000121,298.332751000009,298.332751000009,298.332751000009,301.31671300000744,indoor,None,301.3167567999917,301.3324915000121,301.3324915000121,301.5831892999704,f,0.24724230001447722,None,301.3324915000121,301.3324915000121,301.3324915000121,,,,,,,,,,,,00059,001,2026-01-19_16h24.22.614,MST_task,2024.2.0,59.92624279080851,2026-01-19 16h24.35.053760 +0530,
,Objects\293a.jpg,53,0,54,,,,,,,None,f,0.2800573999993503,None,,,,,,54,0,53,301.59902429999784,,,,,,,,,,,,,,,,,,,,,,,301.5832815999747,301.59902429999784,302.0827087999787,,,,,,,,,,,,,,302.099450299982,,,,,,,,,,,,,302.09296899999026,302.099450299982,302.099450299982,302.099450299982,305.0833560000174,indoor,None,305.08339739998337,305.0992664999794,305.0992664999794,305.38298029999714,f,0.2800573999993503,None,305.0992664999794,305.0992664999794,305.0992664999794,,,,,,,,,,,,00059,001,2026-01-19_16h24.22.614,MST_task,2024.2.0,59.92624279080851,2026-01-19 16h24.35.053760 +0530,
,Objects\255a.jpg,54,0,55,,,,,,,None,f,0.2640741000068374,None,,,,,,55,0,54,305.39911629998824,,,,,,,,,,,,,,,,,,,,,,,305.3830752999638,305.39911629998824,305.88271219999297,,,,,,,,,,,,,,305.89942699996755,,,,,,,,,,,,,305.8927033999935,305.89942699996755,305.89942699996755,305.89942699996755,308.8833135999739,indoor,None,308.88335600000573,308.89901230001124,308.89901230001124,309.1662758999737,f,0.2640741000068374,None,308.89901230001124,308.89901230001124,308.89901230001124,,,,,,,,,,,,00059,001,2026-01-19_16h24.22.614,MST_task,2024.2.0,59.92624279080851,2026-01-19 16h24.35.053760 +0530,
,Objects\202a.jpg,55,0,56,,,,,,,None,j,0.2565377000137232,None,,,,,,56,0,55,309.18335459998343,,,,,,,,,,,,,,,,,,,,,,,309.1663657000172,309.18335459998343,309.6660191999981,,,,,,,,,,,,,,309.6827831999981,,,,,,,,,,,,,309.675548899977,309.6827831999981,309.6827831999981,309.6827831999981,312.66629720001947,indoor,None,312.6663368999725,312.6824957000208,312.6824957000208,312.94941399997333,j,0.2565377000137232,None,312.6824957000208,312.6824957000208,312.6824957000208,,,,,,,,,,,,00059,001,2026-01-19_16h24.22.614,MST_task,2024.2.0,59.92624279080851,2026-01-19 16h24.35.053760 +0530,
,Objects\053a.jpg,56,0,57,,,,,,,None,f,0.6173991999821737,None,,,,,,57,0,56,312.96580479998374,,,,,,,,,,,,,,,,,,,,,,,312.94949979998637,312.96580479998374,313.4492744000163,,,,,,,,,,,,,,313.4661388999666,,,,,,,,,,,,,313.46257639996475,313.4661388999666,313.4661388999666,313.4661388999666,316.44951740000397,shoe,None,316.4516856999835,316.4658803999773,316.4658803999773,317.099858600006,f,0.6173991999821737,None,316.4658803999773,316.4658803999773,316.4658803999773,,,,,,,,,,,,00059,001,2026-01-19_16h24.22.614,MST_task,2024.2.0,59.92624279080851,2026-01-19 16h24.35.053760 +0530,
,Objects\370a.jpg,57,0,58,,,,,,,None,f,0.26745799998752773,None,,,,,,58,0,57,317.1158164999797,,,,,,,,,,,,,,,,,,,,,,,317.09997689997545,317.1158164999797,317.5992356999777,,,,,,,,,,,,,,317.6159723000019,,,,,,,,,,,,,317.6096688999678,317.6159723000019,317.6159723000019,317.6159723000019,320.5996521000052,shoe,None,320.5996941999765,320.6157987000188,320.6157987000188,320.8994864000124,f,0.26745799998752773,None,320.6157987000188,320.6157987000188,320.6157987000188,,,,,,,,,,,,00059,001,2026-01-19_16h24.22.614,MST_task,2024.2.0,59.92624279080851,2026-01-19 16h24.35.053760 +0530,
,Objects\172a.jpg,58,0,59,,,,,,,None,j,0.29186789999948815,None,,,,,,59,0,58,320.9158056000015,,,,,,,,,,,,,,,,,,,,,,,320.89957259997027,320.9158056000015,321.3993565000128,,,,,,,,,,,,,,321.41604909999296,,,,,,,,,,,,,321.40866299998015,321.41604909999296,321.41604909999296,321.41604909999296,324.39992300001904,shoe,None,324.39996509999037,324.41585089999717,324.41585089999717,324.71620429999894,j,0.29186789999948815,None,324.41585089999717,324.41585089999717,324.41585089999717,,,,,,,,,,,,00059,001,2026-01-19_16h24.22.614,MST_task,2024.2.0,59.92624279080851,2026-01-19 16h24.35.053760 +0530,
,Objects\063a.jpg,59,0,60,,,,,,,None,f,0.24308010004460812,None,,,,,,60,0,59,324.7324681999744,,,,,,,,,,,,,,,,,,,,,,,324.71631960000377,324.7324681999744,325.2163123000064,,,,,,,,,,,,,,325.2328611999983,,,,,,,,,,,,,325.2292808999773,325.2328611999983,325.2328611999983,325.2328611999983,328.2166826999746,shoe,None,328.21673340001144,328.23256269999547,328.23256269999547,328.48300339997513,f,0.24308010004460812,None,328.23256269999547,328.23256269999547,328.23256269999547,,,,,,,,,,,,00059,001,2026-01-19_16h24.22.614,MST_task,2024.2.0,59.92624279080851,2026-01-19 16h24.35.053760 +0530,
,Objects\284a.jpg,60,0,61,,,,,,,None,f,0.2689405999844894,None,,,,,,61,0,60,328.4990916000097,,,,,,,,,,,,,,,,,,,,,,,328.48313070001313,328.4990916000097,328.9827299999888,,,,,,,,,,,,,,328.999579299998,,,,,,,,,,,,,328.9928620000137,328.999579299998,328.999579299998,328.999579299998,331.9830732999835,shoe,None,331.9831083000172,331.99901570001384,331.99901570001384,332.28315309999743,f,0.2689405999844894,None,331.99901570001384,331.99901570001384,331.99901570001384,,,,,,,,,,,,00059,001,2026-01-19_16h24.22.614,MST_task,2024.2.0,59.92624279080851,2026-01-19 16h24.35.053760 +0530,
,Objects\274a.jpg,61,0,62,,,,,,,None,f,0.28438359999563545,None,,,,,,62,0,61,332.29900439997436,,,,,,,,,,,,,,,,,,,,,,,332.28324209997663,332.29900439997436,332.78269069996895,,,,,,,,,,,,,,332.79933660000097,,,,,,,,,,,,,332.7927802000195,332.79933660000097,332.79933660000097,332.79933660000097,335.78335049998714,shoe,None,335.7833963999874,335.79905979998875,335.79905979998875,336.099800099968,f,0.28438359999563545,None,335.79905979998875,335.79905979998875,335.79905979998875,,,,,,,,,,,,00059,001,2026-01-19_16h24.22.614,MST_task,2024.2.0,59.92624279080851,2026-01-19 16h24.35.053760 +0530,
,Objects\296a.jpg,62,0,63,,,,,,,None,j,0.2917804999742657,None,,,,,,63,0,62,336.11590460001025,,,,,,,,,,,,,,,,,,,,,,,336.09988940000767,336.11590460001025,336.59999449999304,,,,,,,,,,,,,,,,,,,,,,,,,,,336.61168109998107,336.6161953000119,336.6161953000119,336.6161953000119,339.59965220000595,shoe,None,339.5996895999997,339.6158357000095,339.6158357000095,339.9161868999945,j,0.2917804999742657,None,339.6158357000095,339.6158357000095,339.6158357000095,,,,,,,,,,,,00059,001,2026-01-19_16h24.22.614,MST_task,2024.2.0,59.92624279080851,2026-01-19 16h24.35.053760 +0530,
,Objects\029a.jpg,63,0,64,,,,,,,None,f,0.25040969997644424,None,,,,,,64,0,63,339.93248570000287,,,,,,,,,,,,,,,,,,,,,,,339.91627909999806,339.93248570000287,340.41612259997055,,,,,,,,,,,,,,340.43287379998947,,,,,,,,,,,,,340.4283770999755,340.43287379998947,340.43287379998947,340.43287379998947,343.41685330000473,indoor,None,343.41854529996635,343.43258279998554,343.43258279998554,343.69968740001787,f,0.25040969997644424,None,343.43258279998554,343.43258279998554,343.43258279998554,,,,,,,,,,,,00059,001,2026-01-19_16h24.22.614,MST_task,2024.2.0,59.92624279080851,2026-01-19 16h24.35.053760 +0530,
,Objects\180a.jpg,64,0,65,,,,,,,None,f,0.21994020004058257,None,,,,,,65,0,64,343.71590700000525,,,,,,,,,,,,,,,,,,,,,,,343.6997754999902,343.71590700000525,344.1996715000132,,,,,,,,,,,,,,344.2161808999954,,,,,,,,,,,,,344.2096938000177,344.2161808999954,344.2161808999954,344.2161808999954,347.1998477000161,indoor,None,347.19988540001214,347.2158635999658,347.2158635999658,347.44970349996584,f,0.21994020004058257,None,347.2158635999658,347.2158635999658,347.2158635999658,,,,,,,,,,,,00059,001,2026-01-19_16h24.22.614,MST_task,2024.2.0,59.92624279080851,2026-01-19 16h24.35.053760 +0530,
,Objects\300a.jpg,65,0,66,,,,,,,None,f,0.5352312999893911,None,,,,,,66,0,65,347.4658519999939,,,,,,,,,,,,,,,,,,,,,,,347.44978909997735,347.4658519999939,347.949659099977,,,,,,,,,,,,,,347.96631420002086,,,,,,,,,,,,,347.9600041999947,347.96631420002086,347.96631420002086,347.96631420002086,350.9498022000189,indoor,None,350.94984339998337,350.9658030999708,350.9658030999708,351.5162577999872,f,0.5352312999893911,None,350.9658030999708,350.9658030999708,350.9658030999708,,,,,,,,,,,,00059,001,2026-01-19_16h24.22.614,MST_task,2024.2.0,59.92624279080851,2026-01-19 16h24.35.053760 +0530,
,Objects\335a.jpg,66,0,67,,,,,,,None,j,0.27454920002492145,None,,,,,,67,0,66,351.5325329999905,,,,,,,,,,,,,,,,,,,,,,,351.5163434999995,351.5325329999905,352.0162559999735,,,,,,,,,,,,,,352.0329278999707,,,,,,,,,,,,,352.02609810000286,352.0329278999707,352.0329278999707,352.0329278999707,355.0165582000045,indoor,None,355.016595699999,355.03255329997046,355.03255329997046,355.3163623000146,j,0.27454920002492145,None,355.03255329997046,355.03255329997046,355.03255329997046,,,,,,,,,,,,00059,001,2026-01-19_16h24.22.614,MST_task,2024.2.0,59.92624279080851,2026-01-19 16h24.35.053760 +0530,
,Objects\088a.jpg,67,0,68,,,,,,,None,j,0.5946938000270166,None,,,,,,68,0,67,355.3326782999793,,,,,,,,,,,,,,,,,,,,,,,355.3164453000063,355.3326782999793,355.8163079000078,,,,,,,,,,,,,,355.8329730000114,,,,,,,,,,,,,355.827776799968,355.8329730000114,355.8329730000114,355.8329730000114,358.81647469999734,indoor,None,358.8165152000147,358.83253409998724,358.83253409998724,359.4329641999793,j,0.5946938000270166,None,358.83253409998724,358.83253409998724,358.83253409998724,,,,,,,,,,,,00059,001,2026-01-19_16h24.22.614,MST_task,2024.2.0,59.92624279080851,2026-01-19 16h24.35.053760 +0530,
,Objects\259a.jpg,68,0,69,,,,,,,None,j,0.5744765999843366,None,,,,,,69,0,68,359.4495472999988,,,,,,,,,,,,,,,,,,,,,,,359.43304669996724,359.4495472999988,359.93286319996696,,,,,,,,,,,,,,359.94970399996964,,,,,,,,,,,,,359.9434883000213,359.94970399996964,359.94970399996964,359.94970399996964,362.9332415999961,indoor,None,362.9332782999845,362.9492206000141,362.9492206000141,363.5329803000204,j,0.5744765999843366,None,362.9492206000141,362.9492206000141,362.9492206000141,,,,,,,,,,,,00059,001,2026-01-19_16h24.22.614,MST_task,2024.2.0,59.92624279080851,2026-01-19 16h24.35.053760 +0530,
,Objects\024a.jpg,69,0,70,,,,,,,None,f,0.2579939999850467,None,,,,,,70,0,69,363.5491236000089,,,,,,,,,,,,,,,,,,,,,,,363.5330677999882,363.5491236000089,364.03277429996524,,,,,,,,,,,,,,364.0496749000158,,,,,,,,,,,,,364.0433627999737,364.0496749000158,364.0496749000158,364.0496749000158,367.0332924000104,indoor,None,367.0333297000034,367.0492278999882,367.0492278999882,367.3163920000079,f,0.2579939999850467,None,367.0492278999882,367.0492278999882,367.0492278999882,,,,,,,,,,,,00059,001,2026-01-19_16h24.22.614,MST_task,2024.2.0,59.92624279080851,2026-01-19 16h24.35.053760 +0530,
,Objects\026a.jpg,70,0,71,,,,,,,None,f,0.7632255000062287,None,,,,,,71,0,70,367.3326429000008,,,,,,,,,,,,,,,,,,,,,,,367.3164737999905,367.3326429000008,367.81638129998464,,,,,,,,,,,,,,367.83279999997467,,,,,,,,,,,,,367.8286243000184,367.83279999997467,367.83279999997467,367.83279999997467,370.81666670000413,shoe,None,370.81892739998875,370.83256640000036,370.83256640000036,371.59963359998073,f,0.7632255000062287,None,370.83256640000036,370.83256640000036,370.83256640000036,,,,,,,,,,,,00059,001,2026-01-19_16h24.22.614,MST_task,2024.2.0,59.92624279080851,2026-01-19 16h24.35.053760 +0530,
,Objects\045a.jpg,71,0,72,,,,,,,None,j,0.28706800000509247,None,,,,,,72,0,71,371.6159135000198,,,,,,,,,,,,,,,,,,,,,,,371.5997643999872,371.6159135000198,372.09944499999983,,,,,,,,,,,,,,372.11612690001493,,,,,,,,,,,,,372.1102144999895,372.11612690001493,372.11612690001493,372.11612690001493,375.09974139998667,shoe,None,375.0997774999705,375.115958600014,375.115958600014,375.4163928999915,j,0.28706800000509247,None,375.115958600014,375.115958600014,375.115958600014,,,,,,,,,,,,00059,001,2026-01-19_16h24.22.614,MST_task,2024.2.0,59.92624279080851,2026-01-19 16h24.35.053760 +0530,
,Objects\146a.jpg,72,0,73,,,,,,,None,j,0.25440969999181107,None,,,,,,73,0,72,375.432630700001,,,,,,,,,,,,,,,,,,,,,,,375.4165111000184,375.432630700001,375.91619369998807,,,,,,,,,,,,,,375.9328050999902,,,,,,,,,,,,,375.92581190000055,375.9328050999902,375.9328050999902,375.9328050999902,378.91657900001155,shoe,None,378.9166155999992,378.9327522999956,378.9327522999956,379.19963829999324,j,0.25440969999181107,None,378.9327522999956,378.9327522999956,378.9327522999956,,,,,,,,,,,,00059,001,2026-01-19_16h24.22.614,MST_task,2024.2.0,59.92624279080851,2026-01-19 16h24.35.053760 +0530,
,Objects\179a.jpg,73,0,74,,,,,,,None,f,0.30294050002703443,None,,,,,,74,0,73,379.21593050000956,,,,,,,,,,,,,,,,,,,,,,,379.19972109998344,379.21593050000956,379.6994828999741,,,,,,,,,,,,,,379.71616680000443,,,,,,,,,,,,,379.7093251000042,379.71616680000443,379.71616680000443,379.71616680000443,382.6998549000127,shoe,None,382.69989180000266,382.7160145000089,382.7160145000089,383.03330680000363,f,0.30294050002703443,None,382.7160145000089,382.7160145000089,382.7160145000089,,,,,,,,,,,,00059,001,2026-01-19_16h24.22.614,MST_task,2024.2.0,59.92624279080851,2026-01-19 16h24.35.053760 +0530,
,Objects\218a.jpg,74,0,75,,,,,,,None,j,0.2618175999959931,None,,,,,,75,0,74,383.0492402999662,,,,,,,,,,,,,,,,,,,,,,,383.0334450000082,383.0492402999662,383.5327844999847,,,,,,,,,,,,,,383.54958140000235,,,,,,,,,,,,,383.54283409996424,383.54958140000235,383.54958140000235,383.54958140000235,386.53304589999607,shoe,None,386.5330829999875,386.5491847000085,386.5491847000085,386.8164035999798,j,0.2618175999959931,None,386.5491847000085,386.5491847000085,386.5491847000085,,,,,,,,,,,,00059,001,2026-01-19_16h24.22.614,MST_task,2024.2.0,59.92624279080851,2026-01-19 16h24.35.053760 +0530,
,Objects\110a.jpg,75,0,76,,,,,,,None,f,0.19071199995232746,None,,,,,,76,0,75,386.83260289998725,,,,,,,,,,,,,,,,,,,,,,,386.81652180000674,386.83260289998725,387.31643669999903,,,,,,,,,,,,,,387.33300759998383,,,,,,,,,,,,,387.32828839996364,387.33300759998383,387.33300759998383,387.33300759998383,390.3165275999927,shoe,None,390.31656439998187,390.33262519998243,390.33262519998243,390.5329976999783,f,0.19071199995232746,None,390.33262519998243,390.33262519998243,390.33262519998243,,,,,,,,,,,,00059,001,2026-01-19_16h24.22.614,MST_task,2024.2.0,59.92624279080851,2026-01-19 16h24.35.053760 +0530,
,Objects\276a.jpg,76,0,77,,,,,,,None,f,0.2742885000188835,None,,,,,,77,0,76,390.54921269998886,,,,,,,,,,,,,,,,,,,,,,,390.53307910001604,390.54921269998886,391.032778599998,,,,,,,,,,,,,,391.0494738999987,,,,,,,,,,,,,391.04258549999213,391.0494738999987,391.0494738999987,391.0494738999987,394.03307080001105,shoe,None,394.0331089000101,394.04925460001687,394.04925460001687,394.3330724000116,f,0.2742885000188835,None,394.04925460001687,394.04925460001687,394.04925460001687,,,,,,,,,,,,00059,001,2026-01-19_16h24.22.614,MST_task,2024.2.0,59.92624279080851,2026-01-19 16h24.35.053760 +0530,
,Objects\345a.jpg,77,0,78,,,,,,,None,f,0.3144002999761142,None,,,,,,78,0,77,394.34919219999574,,,,,,,,,,,,,,,,,,,,,,,394.333163400006,394.34919219999574,394.8327631999855,,,,,,,,,,,,,,394.8493831999949,,,,,,,,,,,,,394.84454369999,394.8493831999949,394.8493831999949,394.8493831999949,397.8332461999962,indoor,None,397.8349220000091,397.8492863000138,397.8492863000138,398.1663266000105,f,0.3144002999761142,None,397.8492863000138,397.8492863000138,397.8492863000138,,,,,,,,,,,,00059,001,2026-01-19_16h24.22.614,MST_task,2024.2.0,59.92624279080851,2026-01-19 16h24.35.053760 +0530,
,Objects\171a.jpg,78,0,79,,,,,,,None,j,0.3134644999518059,None,,,,,,79,0,78,398.1826275999774,,,,,,,,,,,,,,,,,,,,,,,398.16641629999503,398.1826275999774,398.66618160001235,,,,,,,,,,,,,,398.6828798999777,,,,,,,,,,,,,398.67655729997205,398.6828798999777,398.6828798999777,398.6828798999777,401.6664645000128,indoor,None,401.66650110000046,401.682464100013,401.682464100013,401.99964930000715,j,0.3134644999518059,None,401.682464100013,401.682464100013,401.682464100013,,,,,,,,,,,,00059,001,2026-01-19_16h24.22.614,MST_task,2024.2.0,59.92624279080851,2026-01-19 16h24.35.053760 +0530,
,Objects\277a.jpg,79,0,80,,,,,,,None,f,0.2959045000025071,None,,,,,,80,0,79,402.01583469996694,,,,,,,,,,,,,,,,,,,,,,,401.99973729997873,402.01583469996694,402.4993438000092,,,,,,,,,,,,,,402.51631460001227,,,,,,,,,,,,,402.5097548000049,402.51631460001227,402.51631460001227,402.51631460001227,405.4998897999758,indoor,None,405.49993130000075,405.51582099997904,405.51582099997904,405.81623719999334,f,0.2959045000025071,None,405.51582099997904,405.51582099997904,405.51582099997904,,,,,,,,,,,,00059,001,2026-01-19_16h24.22.614,MST_task,2024.2.0,59.92624279080851,2026-01-19 16h24.35.053760 +0530,
,Objects\230a.jpg,80,0,81,,,,,,,None,j,0.263088500010781,None,,,,,,81,0,80,405.8324629999697,,,,,,,,,,,,,,,,,,,,,,,405.8163215999957,405.8324629999697,406.31604180001887,,,,,,,,,,,,,,406.3328409999958,,,,,,,,,,,,,406.32622270000866,406.3328409999958,406.3328409999958,406.3328409999958,409.3162793999654,indoor,None,409.31631580000976,409.33251490001567,409.33251490001567,409.59950159996515,j,0.263088500010781,None,409.33251490001567,409.33251490001567,409.33251490001567,,,,,,,,,,,,00059,001,2026-01-19_16h24.22.614,MST_task,2024.2.0,59.92624279080851,2026-01-19 16h24.35.053760 +0530,
,Objects\331a.jpg,81,0,82,,,,,,,None,f,0.5592272999929264,None,,,,,,82,0,81,409.61579589999747,,,,,,,,,,,,,,,,,,,,,,,409.59958979999647,409.61579589999747,410.0993415999692,,,,,,,,,,,,,,410.1161565000075,,,,,,,,,,,,,410.10927269997774,410.1161565000075,410.1161565000075,410.1161565000075,413.09988429996883,indoor,None,413.09992459998466,413.1158475999837,413.1158475999837,413.6828453000053,f,0.5592272999929264,None,413.1158475999837,413.1158475999837,413.1158475999837,,,,,,,,,,,,00059,001,2026-01-19_16h24.22.614,MST_task,2024.2.0,59.92624279080851,2026-01-19 16h24.35.053760 +0530,
,Objects\107a.jpg,82,0,83,,,,,,,None,f,0.29201420000754297,None,,,,,,83,0,82,413.69913349999115,,,,,,,,,,,,,,,,,,,,,,,413.6829293000046,413.69913349999115,414.18273210001644,,,,,,,,,,,,,,414.1994260000065,,,,,,,,,,,,,414.1926248999662,414.1994260000065,414.1994260000065,414.1994260000065,417.1829984000069,indoor,None,417.18303610000294,417.19910269998945,417.19910269998945,417.4994437000132,f,0.29201420000754297,None,,,,,,,,,,,,,,,00059,001,2026-01-19_16h24.22.614,MST_task,2024.2.0,59.92624279080851,2026-01-19 16h24.35.053760 +0530,
,Objects\093a.jpg,83,0,84,,,,,,,None,j,0.2359516000142321,None,,,,,,84,0,83,417.5158330000122,,,,,,,,,,,,,,,,,,,,,,,417.4995268000057,417.5158330000122,417.99946249998175,,,,,,,,,,,,,,418.0161506999866,,,,,,,,,,,,,418.0096757999854,418.0161506999866,418.0161506999866,418.0161506999866,420.99961020000046,indoor,None,420.9996575000114,421.0157932000002,421.0157932000002,421.266187399975,j,0.2359516000142321,None,421.0157932000002,421.0157932000002,421.0157932000002,,,,,,,,,,,,00059,001,2026-01-19_16h24.22.614,MST_task,2024.2.0,59.92624279080851,2026-01-19 16h24.35.053760 +0530,
,Objects\350a.jpg,84,0,85,,,,,,,None,j,0.32497830002103,None,,,,,,85,0,84,421.2825035999995,,,,,,,,,,,,,,,,,,,,,,,421.2662741999957,421.2825035999995,421.76601269998355,,,,,,,,,,,,,,421.7829767999938,,,,,,,,,,,,,421.7785420999862,421.7829767999938,421.7829767999938,421.7829767999938,424.7663558999775,shoe,None,424.76857539999764,424.78254320000997,424.78254320000997,425.1164726999705,j,0.32497830002103,None,424.78254320000997,424.78254320000997,424.78254320000997,,,,,,,,,,,,00059,001,2026-01-19_16h24.22.614,MST_task,2024.2.0,59.92624279080851,2026-01-19 16h24.35.053760 +0530,
,Objects\003a.jpg,85,0,86,,,,,,,None,j,0.2591109999921173,None,,,,,,86,0,85,425.1325555999647,,,,,,,,,,,,,,,,,,,,,,,425.1165622000117,425.1325555999647,425.61627519998,,,,,,,,,,,,,,425.63292080000974,,,,,,,,,,,,,425.6270148999756,425.63292080000974,425.63292080000974,425.63292080000974,428.61640009999974,shoe,None,428.6164373999927,428.6325174999656,428.6325174999656,428.8996688000043,j,0.2591109999921173,None,428.6325174999656,428.6325174999656,428.6325174999656,,,,,,,,,,,,00059,001,2026-01-19_16h24.22.614,MST_task,2024.2.0,59.92624279080851,2026-01-19 16h24.35.053760 +0530,
,Objects\160a.jpg,86,0,87,,,,,,,f,None,,,2.7158280999865383,0.17576469999039546,,,,87,0,86,428.91576970001915,,,,,,,,,,,,,,,,,,,,,,,428.8997522999998,428.91576970001915,429.39950930001214,,,,,,,,,,,,,,429.41603069996927,,,,,,,,,,,,,429.40924359997734,429.41603069996927,429.41603069996927,429.41603069996927,432.39977269998053,shoe,f,432.39981709996937,,,432.3998300000094,None,,,432.4157821999979,432.4157821999979,432.4157821999979,2.7158280999865383,0.17576469999039546,,,,,,,,,,00059,001,2026-01-19_16h24.22.614,MST_task,2024.2.0,59.92624279080851,2026-01-19 16h24.35.053760 +0530,
,Objects\047a.jpg,87,0,88,,,,,,,None,f,0.2793264999636449,None,,,,,,88,0,87,432.4157821999979,,,,,,,,,,,,,,,,,,,,,,,432.39989629999036,432.4157821999979,432.8993295999826,,,,,,,,,,,,,,432.916195400001,,,,,,,,,,,,,432.9091598999803,432.916195400001,432.916195400001,432.916195400001,435.89998769998783,shoe,None,435.9000302000204,435.9159252999816,435.9159252999816,436.1995658999658,f,0.2793264999636449,None,435.9159252999816,435.9159252999816,435.9159252999816,,,,,,,,,,,,00059,001,2026-01-19_16h24.22.614,MST_task,2024.2.0,59.92624279080851,2026-01-19 16h24.35.053760 +0530,
,Objects\040a.jpg,88,0,89,,,,,,,None,f,0.2566031000460498,None,,,,,,89,0,88,436.2158385000075,,,,,,,,,,,,,,,,,,,,,,,436.1996938000084,436.2158385000075,436.6993500000099,,,,,,,,,,,,,,436.7161311999662,,,,,,,,,,,,,436.70907009998336,436.7161311999662,436.7161311999662,436.7161311999662,439.6996461999952,shoe,None,439.6996830999851,439.7158613000065,439.7158613000065,439.98292390001006,f,0.2566031000460498,None,439.7158613000065,439.7158613000065,439.7158613000065,,,,,,,,,,,,00059,001,2026-01-19_16h24.22.614,MST_task,2024.2.0,59.92624279080851,2026-01-19 16h24.35.053760 +0530,
,Objects\112a.jpg,89,0,90,,,,,,,None,f,0.37639230000786483,None,,,,,,90,0,89,439.9991032999824,,,,,,,,,,,,,,,,,,,,,,,439.9830062999972,439.9991032999824,440.4829449999961,,,,,,,,,,,,,,440.49928089999594,,,,,,,,,,,,,440.4936360999709,440.49928089999594,440.49928089999594,440.49928089999594,443.48316770000383,shoe,None,443.48320800001966,443.4990614000126,443.4990614000126,443.8829387999722,f,0.37639230000786483,None,443.4990614000126,443.4990614000126,443.4990614000126,,,,,,,,,,,,00059,001,2026-01-19_16h24.22.614,MST_task,2024.2.0,59.92624279080851,2026-01-19 16h24.35.053760 +0530,
,Objects\148a.jpg,90,0,91,,,,,,,None,f,0.2929080000030808,None,,,,,,91,0,90,443.8990304999752,,,,,,,,,,,,,,,,,,,,,,,443.88302349997684,443.8990304999752,444.3827431999962,,,,,,,,,,,,,,444.39921409997623,,,,,,,,,,,,,444.39287039998453,444.39921409997623,444.39921409997623,444.39921409997623,447.38308529998176,shoe,None,447.3831237999839,447.3991315999883,447.3991315999883,447.69946490001166,f,0.2929080000030808,None,447.3991315999883,447.3991315999883,447.3991315999883,,,,,,,,,,,,00059,001,2026-01-19_16h24.22.614,MST_task,2024.2.0,59.92624279080851,2026-01-19 16h24.35.053760 +0530,
,Objects\087a.jpg,91,0,92,,,,,,,None,j,0.30782250000629574,None,,,,,,92,0,91,447.71584129997063,,,,,,,,,,,,,,,,,,,,,,,447.6995513999718,447.71584129997063,448.1991920999717,,,,,,,,,,,,,,448.2160783999716,,,,,,,,,,,,,448.2119864000124,448.2160783999716,448.2160783999716,448.2160783999716,451.19959949998884,indoor,None,451.20127680001315,451.2161331999814,451.2161331999814,451.53310439997585,j,0.30782250000629574,None,451.2161331999814,451.2161331999814,451.2161331999814,,,,,,,,,,,,00059,001,2026-01-19_16h24.22.614,MST_task,2024.2.0,59.92624279080851,2026-01-19 16h24.35.053760 +0530,
,Objects\314a.jpg,92,0,93,,,,,,,None,f,0.30718809994868934,None,,,,,,93,0,92,451.5491064999951,,,,,,,,,,,,,,,,,,,,,,,451.53319469996495,451.5491064999951,452.03276759997243,,,,,,,,,,,,,,452.0495322999777,,,,,,,,,,,,,452.04338589997496,452.0495322999777,452.0495322999777,452.0495322999777,455.033087000018,indoor,None,455.03312410000945,455.0490226999973,455.0490226999973,455.3662676999811,f,0.30718809994868934,None,455.0490226999973,455.0490226999973,455.0490226999973,,,,,,,,,,,,00059,001,2026-01-19_16h24.22.614,MST_task,2024.2.0,59.92624279080851,2026-01-19 16h24.35.053760 +0530,
,Objects\140a.jpg,93,0,94,,,,,,,None,j,0.2576238000183366,None,,,,,,94,0,93,455.3825313000125,,,,,,,,,,,,,,,,,,,,,,,455.36636069999076,455.3825313000125,455.86608030000934,,,,,,,,,,,,,,455.8828511000029,,,,,,,,,,,,,455.8763217999949,455.8828511000029,455.8828511000029,455.8828511000029,458.86627850000514,indoor,None,458.8663155999966,458.8825316000148,458.8825316000148,459.1496144999983,j,0.2576238000183366,None,458.8825316000148,458.8825316000148,458.8825316000148,,,,,,,,,,,,00059,001,2026-01-19_16h24.22.614,MST_task,2024.2.0,59.92624279080851,2026-01-19 16h24.35.053760 +0530,
,Objects\301a.jpg,94,0,95,,,,,,,None,f,0.3692709999741055,None,,,,,,95,0,94,459.1659102999838,,,,,,,,,,,,,,,,,,,,,,,459.149705799995,459.1659102999838,459.64957010000944,,,,,,,,,,,,,,459.6660391999758,,,,,,,,,,,,,459.65919059998123,459.6660391999758,459.6660391999758,459.6660391999758,462.6498608000111,indoor,None,462.649901399971,462.6660696999752,462.6660696999752,463.0496000999701,f,0.3692709999741055,None,462.6660696999752,462.6660696999752,462.6660696999752,,,,,,,,,,,,00059,001,2026-01-19_16h24.22.614,MST_task,2024.2.0,59.92624279080851,2026-01-19 16h24.35.053760 +0530,
,Objects\306a.jpg,95,0,96,,,,,,,None,f,0.29313160001765937,None,,,,,,96,0,95,463.0658586999634,,,,,,,,,,,,,,,,,,,,,,,463.04969090002123,463.0658586999634,463.54953530000057,,,,,,,,,,,,,,463.566367899999,,,,,,,,,,,,,463.5593133000075,463.566367899999,463.566367899999,463.566367899999,466.5498565000016,indoor,None,466.54990280000493,466.56588629999897,466.56588629999897,466.86625670001376,f,0.29313160001765937,None,466.56588629999897,466.56588629999897,466.56588629999897,,,,,,,,,,,,00059,001,2026-01-19_16h24.22.614,MST_task,2024.2.0,59.92624279080851,2026-01-19 16h24.35.053760 +0530,
,Objects\382a.jpg,96,0,97,,,,,,,None,j,0.2604740000097081,None,,,,,,97,0,96,466.8824424999766,,,,,,,,,,,,,,,,,,,,,,,466.86634209996555,466.8824424999766,467.3661395999952,,,,,,,,,,,,,,467.3830450999667,,,,,,,,,,,,,467.37644949997775,467.3830450999667,467.3830450999667,467.3830450999667,470.36650800000643,indoor,None,470.3665484999656,470.3825586999883,470.3825586999883,470.64953569998033,j,0.2604740000097081,None,470.3825586999883,470.3825586999883,470.3825586999883,,,,,,,,,,,,00059,001,2026-01-19_16h24.22.614,MST_task,2024.2.0,59.92624279080851,2026-01-19 16h24.35.053760 +0530,
,Objects\066a.jpg,97,0,98,,,,,,,None,j,0.31885219999821857,None,,,,,,98,0,97,470.6659370000125,,,,,,,,,,,,,,,,,,,,,,,470.6496260999702,470.6659370000125,471.149587199965,,,,,,,,,,,,,,471.1662528999732,,,,,,,,,,,,,471.1612341,471.1662528999732,471.1662528999732,471.1662528999732,474.14988109999103,indoor,None,474.14992039999925,474.16588739998406,474.16588739998406,474.49980350001715,j,0.31885219999821857,None,474.16588739998406,474.16588739998406,474.16588739998406,,,,,,,,,,,,00059,001,2026-01-19_16h24.22.614,MST_task,2024.2.0,59.92624279080851,2026-01-19 16h24.35.053760 +0530,
,Objects\209a.jpg,98,0,99,,,,,,,None,f,0.2751054000109434,None,,,,,,99,0,98,474.5159718999639,,,,,,,,,,,,,,,,,,,,,,,474.4998887999682,474.5159718999639,474.99948840000434,,,,,,,,,,,,,,475.0165804999997,,,,,,,,,,,,,475.01225939998403,475.0165804999997,475.0165804999997,475.0165804999997,477.9999420999666,shoe,None,478.0022858000011,478.0158815999748,478.0158815999748,478.29952790000243,f,0.2751054000109434,None,478.0158815999748,478.0158815999748,478.0158815999748,,,,,,,,,,,,00059,001,2026-01-19_16h24.22.614,MST_task,2024.2.0,59.92624279080851,2026-01-19 16h24.35.053760 +0530,
,Objects\231a.jpg,99,0,100,,,,,,,None,j,0.3311432999907993,None,,,,,,100,0,99,478.31592670001555,,,,,,,,,,,,,,,,,,,,,,,478.2996131000109,478.31592670001555,478.79960029997164,,,,,,,,,,,,,,478.816353400005,,,,,,,,,,,,,478.8095854999847,478.816353400005,478.816353400005,478.816353400005,481.7996884000022,shoe,None,481.79972599999746,481.8159759999835,481.8159759999835,482.1496666999883,j,0.3311432999907993,None,481.8159759999835,481.8159759999835,481.8159759999835,,,,,,,,,,,,00059,001,2026-01-19_16h24.22.614,MST_task,2024.2.0,59.92624279080851,2026-01-19 16h24.35.053760 +0530,
,Objects\042a.jpg,100,0,101,,,,,,,None,j,0.2650370000046678,None,,,,,,101,0,100,482.16595320001943,,,,,,,,,,,,,,,,,,,,,,,482.1497518999968,482.16595320001943,482.64937270001974,,,,,,,,,,,,,,482.6662043000106,,,,,,,,,,,,,482.66019439999945,482.6662043000106,482.6662043000106,482.6662043000106,485.6497254999704,shoe,None,485.6497647999786,485.66598370001884,485.66598370001884,485.9329976000008,j,0.2650370000046678,None,485.66598370001884,485.66598370001884,485.66598370001884,,,,,,,,,,,,00059,001,2026-01-19_16h24.22.614,MST_task,2024.2.0,59.92624279080851,2026-01-19 16h24.35.053760 +0530,
,Objects\238a.jpg,101,0,102,,,,,,,None,f,0.4097149000153877,None,,,,,,102,0,101,485.94919349998236,,,,,,,,,,,,,,,,,,,,,,,485.93309629999567,485.94919349998236,486.4328232000116,,,,,,,,,,,,,,486.4495967999683,,,,,,,,,,,,,486.44375510001555,486.4495967999683,486.4495967999683,486.4495967999683,489.43310510000447,shoe,None,489.43314290000126,489.44929439999396,489.44929439999396,489.86633459996665,f,0.4097149000153877,None,489.44929439999396,489.44929439999396,489.44929439999396,,,,,,,,,,,,00059,001,2026-01-19_16h24.22.614,MST_task,2024.2.0,59.92624279080851,2026-01-19 16h24.35.053760 +0530,
,Objects\344a.jpg,102,0,103,,,,,,,None,j,0.27678820001892745,None,,,,,,103,0,102,489.8826502999873,,,,,,,,,,,,,,,,,,,,,,,489.8664218999911,489.8826502999873,490.3661967999651,,,,,,,,,,,,,,490.3828470999724,,,,,,,,,,,,,490.3754548999714,490.3828470999724,490.3828470999724,490.3828470999724,493.3664260999649,shoe,None,493.3664648999693,493.3824782000156,493.3824782000156,493.6663563000038,j,0.27678820001892745,None,493.3824782000156,493.3824782000156,493.3824782000156,,,,,,,,,,,,00059,001,2026-01-19_16h24.22.614,MST_task,2024.2.0,59.92624279080851,2026-01-19 16h24.35.053760 +0530,
,Objects\363a.jpg,103,0,104,,,,,,,None,f,0.26001730002462864,None,,,,,,104,0,103,493.68246510002064,,,,,,,,,,,,,,,,,,,,,,,493.66644080000697,493.68246510002064,494.166141099995,,,,,,,,,,,,,,494.1830142000108,,,,,,,,,,,,,494.17644609999843,494.1830142000108,494.1830142000108,494.1830142000108,497.1664756999817,shoe,None,497.16651279997313,497.18363189999945,497.18363189999945,497.4497002999997,f,0.26001730002462864,None,497.18363189999945,497.18363189999945,497.18363189999945,,,,,,,,,,,,00059,001,2026-01-19_16h24.22.614,MST_task,2024.2.0,59.92624279080851,2026-01-19 16h24.35.053760 +0530,
,Objects\201a.jpg,104,0,105,,,,,,,None,f,0.22983209998346865,None,,,,,,105,0,104,497.46585209999466,,,,,,,,,,,,,,,,,,,,,,,497.44979579997016,497.46585209999466,497.9494068999775,,,,,,,,,,,,,,497.96634649997577,,,,,,,,,,,,,497.9594924999983,497.96634649997577,497.96634649997577,497.96634649997577,500.9497258000192,shoe,None,500.9497629000107,500.96584049996454,500.96584049996454,501.1994900999707,f,0.22983209998346865,None,500.96584049996454,500.96584049996454,500.96584049996454,,,,,,,,,,,,00059,001,2026-01-19_16h24.22.614,MST_task,2024.2.0,59.92624279080851,2026-01-19 16h24.35.053760 +0530,
,Objects\049a.jpg,105,0,106,,,,,,,None,j,0.3198343000258319,None,,,,,,106,0,105,501.21581749996403,,,,,,,,,,,,,,,,,,,,,,,501.1995816999697,501.21581749996403,501.6994482000009,,,,,,,,,,,,,,501.7162801999948,,,,,,,,,,,,,501.7115780999884,501.7162801999948,501.7162801999948,501.7162801999948,504.69966260000365,indoor,None,504.70130680000875,504.71588530001463,504.71588530001463,505.05003619997296,j,0.3198343000258319,None,504.71588530001463,504.71588530001463,504.71588530001463,,,,,,,,,,,,00059,001,2026-01-19_16h24.22.614,MST_task,2024.2.0,59.92624279080851,2026-01-19 16h24.35.053760 +0530,
,Objects\002a.jpg,106,0,107,,,,,,,None,f,0.22962499997811392,None,,,,,,107,0,106,505.0660607999889,,,,,,,,,,,,,,,,,,,,,,,505.0501294999849,505.0660607999889,505.5493771000183,,,,,,,,,,,,,,505.5662166000111,,,,,,,,,,,,,505.55885649996344,505.5662166000111,505.5662166000111,505.5662166000111,508.55031879997114,indoor,None,508.55035809997935,508.565875899978,508.565875899978,508.79966389999026,f,0.22962499997811392,None,508.565875899978,508.565875899978,508.565875899978,,,,,,,,,,,,00059,001,2026-01-19_16h24.22.614,MST_task,2024.2.0,59.92624279080851,2026-01-19 16h24.35.053760 +0530,
,Objects\170a.jpg,107,0,108,,,,,,,None,f,0.33504709997214377,None,,,,,,108,0,107,508.8159213999752,,,,,,,,,,,,,,,,,,,,,,,508.79975790000753,508.8159213999752,509.2994359000004,,,,,,,,,,,,,,509.31618829997024,,,,,,,,,,,,,509.3104379000142,509.31618829997024,509.31618829997024,509.31618829997024,512.2994806999923,indoor,None,512.2995170999784,512.3159703999991,512.3159703999991,512.6666150999954,f,0.33504709997214377,None,512.3159703999991,512.3159703999991,512.3159703999991,,,,,,,,,,,,00059,001,2026-01-19_16h24.22.614,MST_task,2024.2.0,59.92624279080851,2026-01-19 16h24.35.053760 +0530,
,Objects\164a.jpg,108,0,109,,,,,,,None,f,0.5076557999709621,None,,,,,,109,0,108,512.6826583999791,,,,,,,,,,,,,,,,,,,,,,,512.6667045999784,512.6826583999791,513.1662439999636,,,,,,,,,,,,,,513.1828433999908,,,,,,,,,,,,,513.1767182999756,513.1828433999908,513.1828433999908,513.1828433999908,516.1664564000093,indoor,None,516.166492999997,516.1834113000077,516.1834113000077,516.699569199991,f,0.5076557999709621,None,516.1834113000077,516.1834113000077,516.1834113000077,,,,,,,,,,,,00059,001,2026-01-19_16h24.22.614,MST_task,2024.2.0,59.92624279080851,2026-01-19 16h24.35.053760 +0530,
,Objects\041a.jpg,109,0,110,,,,,,,None,j,0.10723159997723997,None,,,,,,110,0,109,516.7157934000134,,,,,,,,,,,,,,,,,,,,,,,516.6996545000002,516.7157934000134,517.199355299992,,,,,,,,,,,,,,517.2161892000004,,,,,,,,,,,,,517.208968699968,517.2161892000004,517.2161892000004,517.2161892000004,520.1997508999775,indoor,None,520.199787999969,520.2158104999689,520.2158104999689,520.3329554999946,j,0.10723159997723997,None,520.2158104999689,520.2158104999689,520.2158104999689,,,,,,,,,,,,00059,001,2026-01-19_16h24.22.614,MST_task,2024.2.0,59.92624279080851,2026-01-19 16h24.35.053760 +0530,
,Objects\153a.jpg,110,0,111,,,,,,,None,f,0.21065009996527806,None,,,,,,111,0,110,520.3490367999766,,,,,,,,,,,,,,,,,,,,,,,520.3330782999983,520.3490367999766,520.8327395999804,,,,,,,,,,,,,,520.8495104999747,,,,,,,,,,,,,520.8426329999929,520.8495104999747,520.8495104999747,520.8495104999747,523.8331638000091,indoor,None,523.8332027000142,523.8490644000121,523.8490644000121,524.0664067000034,f,0.21065009996527806,None,,,,,,,,,,,,,,,00059,001,2026-01-19_16h24.22.614,MST_task,2024.2.0,59.92624279080851,2026-01-19 16h24.35.053760 +0530,
,Objects\064a.jpg,111,0,112,,,,,,,None,j,0.18102090002503246,None,,,,,,112,0,111,524.082588499994,,,,,,,,,,,,,,,,,,,,,,,524.0664944999735,524.082588499994,524.5661406000145,,,,,,,,,,,,,,524.582716999983,,,,,,,,,,,,,524.5758171000052,524.582716999983,524.582716999983,524.582716999983,527.566519999993,indoor,None,527.566559400002,527.5825455000158,527.5825455000158,527.7662509999936,j,0.18102090002503246,None,527.5825455000158,527.5825455000158,527.5825455000158,,,,,,,,,,,,00059,001,2026-01-19_16h24.22.614,MST_task,2024.2.0,59.92624279080851,2026-01-19 16h24.35.053760 +0530,
,Objects\127a.jpg,112,0,113,,,,,,,None,f,0.280408599996008,None,,,,,,113,0,112,527.7824725999963,,,,,,,,,,,,,,,,,,,,,,,527.7663348999922,527.7824725999963,528.2662712999736,,,,,,,,,,,,,,528.2827876000083,,,,,,,,,,,,,528.2791491000098,528.2827876000083,528.2827876000083,528.2827876000083,531.2665089999791,shoe,None,531.2689103999874,531.2825942999916,531.2825942999916,531.5663607000024,f,0.280408599996008,None,531.2825942999916,531.2825942999916,531.2825942999916,,,,,,,,,,,,00059,001,2026-01-19_16h24.22.614,MST_task,2024.2.0,59.92624279080851,2026-01-19 16h24.35.053760 +0530,
,Objects\286a.jpg,113,0,114,,,,,,,None,j,0.2729926999891177,None,,,,,,114,0,113,531.582542899996,,,,,,,,,,,,,,,,,,,,,,,531.5664462000132,531.582542899996,532.066147400008,,,,,,,,,,,,,,532.082869899983,,,,,,,,,,,,,532.0755968000158,532.082869899983,532.082869899983,532.082869899983,535.0666872999864,shoe,None,535.0667329999851,535.0826438000076,535.0826438000076,535.3662068999838,j,0.2729926999891177,None,535.0826438000076,535.0826438000076,535.0826438000076,,,,,,,,,,,,00059,001,2026-01-19_16h24.22.614,MST_task,2024.2.0,59.92624279080851,2026-01-19 16h24.35.053760 +0530,
,Objects\355a.jpg,114,0,115,,,,,,,None,f,0.27196779998485,None,,,,,,115,0,114,535.3825594999944,,,,,,,,,,,,,,,,,,,,,,,535.3662915999885,535.3825594999944,535.8660360000213,,,,,,,,,,,,,,535.8829393999767,,,,,,,,,,,,,535.8764194999821,535.8829393999767,535.8829393999767,535.8829393999767,538.8664879999706,shoe,None,538.8665265999734,538.8830967000104,538.8830967000104,539.1663573000114,f,0.27196779998485,None,538.8830967000104,538.8830967000104,538.8830967000104,,,,,,,,,,,,00059,001,2026-01-19_16h24.22.614,MST_task,2024.2.0,59.92624279080851,2026-01-19 16h24.35.053760 +0530,
,Objects\322a.jpg,115,0,116,,,,,,,None,f,0.24850869999499992,None,,,,,,116,0,115,539.1830068000127,,,,,,,,,,,,,,,,,,,,,,,539.1664426999632,539.1830068000127,539.6660852999776,,,,,,,,,,,,,,539.6829144000076,,,,,,,,,,,,,539.6769000000204,539.6829144000076,539.6829144000076,539.6829144000076,542.6665042999666,shoe,None,542.6665474000038,542.6825803999673,542.6825803999673,542.9328846000135,f,0.24850869999499992,None,542.6825803999673,542.6825803999673,542.6825803999673,,,,,,,,,,,,00059,001,2026-01-19_16h24.22.614,MST_task,2024.2.0,59.92624279080851,2026-01-19 16h24.35.053760 +0530,
,Objects\334a.jpg,116,0,117,,,,,,,None,j,0.32310829998459667,None,,,,,,117,0,116,542.9490313999704,,,,,,,,,,,,,,,,,,,,,,,542.9329691000166,542.9490313999704,543.4328228000086,,,,,,,,,,,,,,543.4494397999952,,,,,,,,,,,,,543.4435563000152,543.4494397999952,543.4494397999952,543.4494397999952,546.4331493999925,shoe,None,546.4331863999832,546.4490541999694,546.4490541999694,546.7829729999648,j,0.32310829998459667,None,546.4490541999694,546.4490541999694,546.4490541999694,,,,,,,,,,,,00059,001,2026-01-19_16h24.22.614,MST_task,2024.2.0,59.92624279080851,2026-01-19 16h24.35.053760 +0530,
,Objects\097a.jpg,117,0,118,,,,,,,None,j,0.2724117000470869,None,,,,,,118,0,117,546.7990350999753,,,,,,,,,,,,,,,,,,,,,,,546.783067899989,546.7990350999753,547.2828759999829,,,,,,,,,,,,,,547.2993173999712,,,,,,,,,,,,,547.2926809000201,547.2993173999712,547.2993173999712,547.2993173999712,550.2831817999831,shoe,None,550.2832219999982,550.2991348999785,550.2991348999785,550.583331700007,j,0.2724117000470869,None,550.2991348999785,550.2991348999785,550.2991348999785,,,,,,,,,,,,00059,001,2026-01-19_16h24.22.614,MST_task,2024.2.0,59.92624279080851,2026-01-19 16h24.35.053760 +0530,
,Objects\221a.jpg,118,0,119,,,,,,,None,j,0.4965751999989152,None,,,,,,119,0,118,550.5991651999648,,,,,,,,,,,,,,,,,,,,,,,550.5834177999641,550.5991651999648,551.0828226999729,,,,,,,,,,,,,,551.0996644999832,,,,,,,,,,,,,551.093620700005,551.0996644999832,551.0996644999832,551.0996644999832,554.0831077999901,shoe,None,554.0831455999869,554.0991554000066,554.0991554000066,554.5999602999655,j,0.4965751999989152,None,554.0991554000066,554.0991554000066,554.0991554000066,,,,,,,,,,,,00059,001,2026-01-19_16h24.22.614,MST_task,2024.2.0,59.92624279080851,2026-01-19 16h24.35.053760 +0530,
,Objects\050a.jpg,119,0,120,,,,,,,None,j,0.2800837000249885,None,,,,,,120,0,119,554.6158896000125,,,,,,,,,,,,,,,,,,,,,,,554.600050900015,554.6158896000125,555.099496699986,,,,,,,,,,,,,,555.1162873000139,,,,,,,,,,,,,555.1119233000209,555.1162873000139,555.1162873000139,555.1162873000139,558.0998123000027,indoor,None,558.1015039000195,558.1158856999828,558.1158856999828,558.3994961999706,j,0.2800837000249885,None,558.1158856999828,558.1158856999828,558.1158856999828,,,,,,,,,,,,00059,001,2026-01-19_16h24.22.614,MST_task,2024.2.0,59.92624279080851,2026-01-19 16h24.35.053760 +0530,
,Objects\031a.jpg,120,0,121,,,,,,,None,f,0.23128849995555356,None,,,,,,121,0,120,558.4158672000049,,,,,,,,,,,,,,,,,,,,,,,558.3995783000137,558.4158672000049,558.8992672999739,,,,,,,,,,,,,,558.9162044000113,,,,,,,,,,,,,558.9089475999936,558.9162044000113,558.9162044000113,558.9162044000113,561.8999246999738,indoor,None,561.8999629999744,561.9158843000187,561.9158843000187,562.1503193000099,f,0.23128849995555356,None,561.9158843000187,561.9158843000187,561.9158843000187,,,,,,,,,,,,00059,001,2026-01-19_16h24.22.614,MST_task,2024.2.0,59.92624279080851,2026-01-19 16h24.35.053760 +0530,
,Objects\375a.jpg,121,0,122,,,,,,,None,j,0.21785620000446215,None,,,,,,122,0,121,562.165955799981,,,,,,,,,,,,,,,,,,,,,,,562.1504357999656,562.165955799981,562.6492697999929,,,,,,,,,,,,,,562.6662687999778,,,,,,,,,,,,,562.659663199971,562.6662687999778,562.6662687999778,562.6662687999778,565.6498098999728,indoor,None,565.649849199981,565.6658722999855,565.6658722999855,565.8994059999823,j,0.21785620000446215,None,565.6658722999855,565.6658722999855,565.6658722999855,,,,,,,,,,,,00059,001,2026-01-19_16h24.22.614,MST_task,2024.2.0,59.92624279080851,2026-01-19 16h24.35.053760 +0530,
,Objects\228a.jpg,122,0,123,,,,,,,None,f,0.22808540001278743,None,,,,,,123,0,122,565.9158616000204,,,,,,,,,,,,,,,,,,,,,,,565.8994916999945,565.9158616000204,566.3993200999685,,,,,,,,,,,,,,566.416247199988,,,,,,,,,,,,,566.4106601999956,566.416247199988,566.416247199988,566.416247199988,569.3997698000167,indoor,None,569.3998094999697,569.4159000999643,569.4159000999643,569.6496273999801,f,0.22808540001278743,None,569.4159000999643,569.4159000999643,569.4159000999643,,,,,,,,,,,,00059,001,2026-01-19_16h24.22.614,MST_task,2024.2.0,59.92624279080851,2026-01-19 16h24.35.053760 +0530,
,Objects\256a.jpg,123,0,124,,,,,,,j,None,,,2.7887731000082567,None,,,,124,0,123,569.6658570999862,,,,,,,,,,,,,,,,,,,,,,,569.649718199973,569.6658570999862,570.1493924999959,,,,,,,,,,,,,,570.1663907999755,,,,,,,,,,,,,570.1612720999983,570.1663907999755,570.1663907999755,570.1663907999755,573.1496873999713,indoor,j,573.1497298000031,,,573.1497422999819,None,,,573.1658875999856,573.1658875999856,573.1658875999856,2.7887731000082567,None,,,,,,,,,,00059,001,2026-01-19_16h24.22.614,MST_task,2024.2.0,59.92624279080851,2026-01-19 16h24.35.053760 +0530,
,Objects\149a.jpg,124,0,125,,,,,,,None,f,0.2335540999774821,None,,,,,,125,0,124,573.1658875999856,,,,,,,,,,,,,,,,,,,,,,,573.1498045999906,573.1658875999856,573.6494655999704,,,,,,,,,,,,,,573.6663003999856,,,,,,,,,,,,,573.6594131999882,573.6663003999856,573.6663003999856,573.6663003999856,576.649899800017,indoor,None,576.6499426999944,576.6659654999967,576.6659654999967,576.9163794000051,f,0.2335540999774821,None,576.6659654999967,576.6659654999967,576.6659654999967,,,,,,,,,,,,00059,001,2026-01-19_16h24.22.614,MST_task,2024.2.0,59.92624279080851,2026-01-19 16h24.35.053760 +0530,
,Objects\253a.jpg,125,0,126,,,,,,,None,j,0.1795187999960035,None,,,,,,126,0,125,576.932536599983,,,,,,,,,,,,,,,,,,,,,,,576.9164698999957,576.932536599983,577.4162801000057,,,,,,,,,,,,,,577.4327790999669,,,,,,,,,,,,,577.4254062999971,577.4327790999669,577.4327790999669,577.4327790999669,580.4164862000034,indoor,None,580.4165246000048,580.4325623000041,580.4325623000041,580.6166846000124,j,0.1795187999960035,None,580.4325623000041,580.4325623000041,580.4325623000041,,,,,,,,,,,,00059,001,2026-01-19_16h24.22.614,MST_task,2024.2.0,59.92624279080851,2026-01-19 16h24.35.053760 +0530,
,Objects\291a.jpg,126,0,127,,,,,,,None,j,0.7424361000303179,None,,,,,,127,0,126,580.6325470000156,,,,,,,,,,,,,,,,,,,,,,,580.616767200001,580.6325470000156,581.1164605999948,,,,,,,,,,,,,,581.1330615999759,,,,,,,,,,,,,581.1297918999917,581.1330615999759,581.1330615999759,581.1330615999759,584.1165862000198,shoe,None,584.1187325000064,584.132678999973,584.132678999973,584.8830998999765,j,0.7424361000303179,None,584.132678999973,584.132678999973,584.132678999973,,,,,,,,,,,,00059,001,2026-01-19_16h24.22.614,MST_task,2024.2.0,59.92624279080851,2026-01-19 16h24.35.053760 +0530,
,Objects\287a.jpg,127,0,128,,,,,,,None,f,0.428274399950169,None,,,,,,128,0,127,584.8992579000187,,,,,,,,,,,,,,,,,,,,,,,584.8831837999751,584.8992579000187,585.3829325999832,,,,,,,,,,,,,,585.3997041999828,,,,,,,,,,,,,585.3928604999674,585.3997041999828,585.3997041999828,585.3997041999828,588.3832906999742,shoe,None,588.3833283999702,588.399424800009,588.399424800009,588.8330699999933,f,0.428274399950169,None,588.399424800009,588.399424800009,588.399424800009,,,,,,,,,,,,00059,001,2026-01-19_16h24.22.614,MST_task,2024.2.0,59.92624279080851,2026-01-19 16h24.35.053760 +0530,
,Objects\115a.jpg,128,0,129,,,,,,,None,f,0.23937550000846386,None,,,,,,129,0,128,588.8493151000002,,,,,,,,,,,,,,,,,,,,,,,588.8331553000025,588.8493151000002,589.3329336000024,,,,,,,,,,,,,,589.3497332999832,,,,,,,,,,,,,589.343725099985,589.3497332999832,589.3497332999832,589.3497332999832,592.3335318000172,shoe,None,592.3335792999715,592.3492439999827,592.3492439999827,592.5999333999935,f,0.23937550000846386,None,592.3492439999827,592.3492439999827,592.3492439999827,,,,,,,,,,,,00059,001,2026-01-19_16h24.22.614,MST_task,2024.2.0,59.92624279080851,2026-01-19 16h24.35.053760 +0530,
,Objects\117a.jpg,129,0,130,,,,,,,None,f,0.3038386999978684,None,,,,,,130,0,129,592.6159538999782,,,,,,,,,,,,,,,,,,,,,,,592.6000643000007,592.6159538999782,593.0997960999957,,,,,,,,,,,,,,593.1162195999641,,,,,,,,,,,,,593.1106128999963,593.1162195999641,593.1162195999641,593.1162195999641,596.0997169999755,shoe,None,596.0997551999753,596.1160344000091,596.1160344000091,596.433360999974,f,0.3038386999978684,None,596.1160344000091,596.1160344000091,596.1160344000091,,,,,,,,,,,,00059,001,2026-01-19_16h24.22.614,MST_task,2024.2.0,59.92624279080851,2026-01-19 16h24.35.053760 +0530,
,Objects\377a.jpg,130,0,131,,,,,,,None,j,0.29417670000111684,None,,,,,,131,0,130,596.4494524999755,,,,,,,,,,,,,,,,,,,,,,,596.4334530999768,596.4494524999755,596.9329216000042,,,,,,,,,,,,,,596.9497417999664,,,,,,,,,,,,,596.9434048999683,596.9497417999664,596.9497417999664,596.9497417999664,599.9333155999775,shoe,None,599.933355199988,599.9493827999686,599.9493827999686,600.2496700999909,j,0.29417670000111684,None,599.9493827999686,599.9493827999686,599.9493827999686,,,,,,,,,,,,00059,001,2026-01-19_16h24.22.614,MST_task,2024.2.0,59.92624279080851,2026-01-19 16h24.35.053760 +0530,
,Objects\268a.jpg,131,0,132,,,,,,,None,f,0.27713679999578744,None,,,,,,132,0,131,600.2660575999762,,,,,,,,,,,,,,,,,,,,,,,600.2497864000034,600.2660575999762,600.7496383999824,,,,,,,,,,,,,,600.7663306000177,,,,,,,,,,,,,600.7596836999874,600.7663306000177,600.7663306000177,600.7663306000177,603.7497654000181,shoe,None,603.7498022000073,603.7660174000193,603.7660174000193,604.0496840999695,f,0.27713679999578744,None,603.7660174000193,603.7660174000193,603.7660174000193,,,,,,,,,,,,00059,001,2026-01-19_16h24.22.614,MST_task,2024.2.0,59.92624279080851,2026-01-19 16h24.35.053760 +0530,
,Objects\319a.jpg,132,0,133,,,,,,,f,None,,,2.9170758999534883,None,,,,133,0,132,604.0660142999841,,,,,,,,,,,,,,,,,,,,,,,604.0497669000179,604.0660142999841,604.5496004999732,,,,,,,,,,,,,,604.5663907999988,,,,,,,,,,,,,604.5598316999967,604.5663907999988,604.5663907999988,604.5663907999988,607.5498266000068,shoe,f,607.5498696999857,,,607.5498815000174,None,,,607.5660095000057,607.5660095000057,607.5660095000057,2.9170758999534883,None,,,,,,,,,,00059,001,2026-01-19_16h24.22.614,MST_task,2024.2.0,59.92624279080851,2026-01-19 16h24.35.053760 +0530,
,Objects\329a.jpg,133,0,134,,,,,,,f,None,,,0.09716839995235205,0.1522222000057809,,,,134,0,133,607.5660095000057,,,,,,,,,,,,,,,,,,,,,,,607.549976099981,607.5660095000057,608.0496497999993,,,,,,,,,,,,,,608.0665015999693,,,,,,,,,,,,,608.0622841999866,608.0665015999693,608.0665015999693,608.0665015999693,611.0500892999698,indoor,f,611.0517457000096,,,611.0517629999667,None,,,611.065928099968,611.065928099968,611.065928099968,0.09716839995235205,0.1522222000057809,,,,,,,,,,00059,001,2026-01-19_16h24.22.614,MST_task,2024.2.0,59.92624279080851,2026-01-19 16h24.35.053760 +0530,
,Objects\194a.jpg,134,0,135,,,,,,,None,f,0.5494395999703556,None,,,,,,135,0,134,611.065928099968,,,,,,,,,,,,,,,,,,,,,,,611.0518311000196,611.065928099968,611.5495721999905,,,,,,,,,,,,,,611.56643050001,,,,,,,,,,,,,611.559777699993,611.56643050001,611.56643050001,611.56643050001,614.5497469999827,indoor,None,614.5497859999887,614.5659266000148,614.5659266000148,615.116431900009,f,0.5494395999703556,None,614.5659266000148,614.5659266000148,614.5659266000148,,,,,,,,,,,,00059,001,2026-01-19_16h24.22.614,MST_task,2024.2.0,59.92624279080851,2026-01-19 16h24.35.053760 +0530,
,Objects\165a.jpg,135,0,136,,,,,,,None,f,0.338878599985037,None,,,,,,136,0,135,615.1325964999851,,,,,,,,,,,,,,,,,,,,,,,615.1165156000061,615.1325964999851,615.6162897999748,,,,,,,,,,,,,,615.6331027999986,,,,,,,,,,,,,615.6268313999753,615.6331027999986,615.6331027999986,615.6331027999986,618.6165429999819,indoor,None,618.6165804999764,618.6326460000128,618.6326460000128,618.9830201999866,f,0.338878599985037,None,618.6326460000128,618.6326460000128,618.6326460000128,,,,,,,,,,,,00059,001,2026-01-19_16h24.22.614,MST_task,2024.2.0,59.92624279080851,2026-01-19 16h24.35.053760 +0530,
,Objects\052a.jpg,136,0,137,,,,,,,None,j,0.42454910004744306,None,,,,,,137,0,136,618.9993054000079,,,,,,,,,,,,,,,,,,,,,,,618.9831047999905,618.9993054000079,619.4830626000185,,,,,,,,,,,,,,619.4993307999684,,,,,,,,,,,,,619.4924598999787,619.4993307999684,619.4993307999684,619.4993307999684,622.483023400011,indoor,None,622.4830608000048,622.499356299988,622.499356299988,622.9330871999846,j,0.42454910004744306,None,622.499356299988,622.499356299988,622.499356299988,,,,,,,,,,,,00059,001,2026-01-19_16h24.22.614,MST_task,2024.2.0,59.92624279080851,2026-01-19 16h24.35.053760 +0530,
,Objects\341a.jpg,137,0,138,,,,,,,None,f,0.3224370999960229,None,,,,,,138,0,137,622.949077999976,,,,,,,,,,,,,,,,,,,,,,,622.9331727999961,622.949077999976,623.432963499974,,,,,,,,,,,,,,623.4494093999965,,,,,,,,,,,,,623.4424462000025,623.4494093999965,623.4494093999965,623.4494093999965,626.4331883999985,indoor,None,626.4332360000117,626.4492550999857,626.4492550999857,626.7832896999898,f,0.3224370999960229,None,626.4492550999857,626.4492550999857,626.4492550999857,,,,,,,,,,,,00059,001,2026-01-19_16h24.22.614,MST_task,2024.2.0,59.92624279080851,2026-01-19 16h24.35.053760 +0530,
,Objects\116a.jpg,138,0,139,,,,,,,None,j,0.28021280001848936,None,,,,,,139,0,138,626.7990898999851,,,,,,,,,,,,,,,,,,,,,,,626.783376700012,626.7990898999851,627.2829798000166,,,,,,,,,,,,,,627.2994548999704,,,,,,,,,,,,,627.2946533999639,627.2994548999704,627.2994548999704,627.2994548999704,630.2832188999746,indoor,None,630.2832567999722,630.2996020999853,630.2996020999853,630.5832036999636,j,0.28021280001848936,None,630.2996020999853,630.2996020999853,630.2996020999853,,,,,,,,,,,,00059,001,2026-01-19_16h24.22.614,MST_task,2024.2.0,59.92624279080851,2026-01-19 16h24.35.053760 +0530,
,Objects\185a.jpg,139,0,140,,,,,,,None,f,0.31195099995238706,None,,,,,,140,0,139,630.5993166000117,,,,,,,,,,,,,,,,,,,,,,,630.5832887999713,630.5993166000117,631.0829301999765,,,,,,,,,,,,,,631.0995672999998,,,,,,,,,,,,,631.0947686000145,631.0995672999998,631.0995672999998,631.0995672999998,634.0833344999701,indoor,None,634.083379699965,634.0991827999824,634.0991827999824,634.4166705000098,f,0.31195099995238706,None,634.0991827999824,634.0991827999824,634.0991827999824,,,,,,,,,,,,00059,001,2026-01-19_16h24.22.614,MST_task,2024.2.0,59.92624279080851,2026-01-19 16h24.35.053760 +0530,
,Objects\367a.jpg,140,0,141,,,,,,,None,j,0.31054029997903854,None,,,,,,141,0,140,634.4326691000024,,,,,,,,,,,,,,,,,,,,,,,634.4167659999803,634.4326691000024,634.9162540999823,,,,,,,,,,,,,,634.9330648999894,,,,,,,,,,,,,634.9286277999636,634.9330648999894,634.9330648999894,634.9330648999894,637.9165688999929,shoe,None,637.919175899995,637.9326232000021,637.9326232000021,638.2497403000016,j,0.31054029997903854,None,637.9326232000021,637.9326232000021,637.9326232000021,,,,,,,,,,,,00059,001,2026-01-19_16h24.22.614,MST_task,2024.2.0,59.92624279080851,2026-01-19 16h24.35.053760 +0530,
,Objects\030a.jpg,141,0,142,,,,,,,None,f,0.47010939999017864,None,,,,,,142,0,141,638.2660200999817,,,,,,,,,,,,,,,,,,,,,,,638.2498278999701,638.2660200999817,638.7496416000067,,,,,,,,,,,,,,638.7663870999822,,,,,,,,,,,,,638.759814399993,638.7663870999822,638.7663870999822,638.7663870999822,641.7498384999926,shoe,None,641.7498803000199,641.7659518999862,641.7659518999862,642.2494944999926,f,0.47010939999017864,None,641.7659518999862,641.7659518999862,641.7659518999862,,,,,,,,,,,,00059,001,2026-01-19_16h24.22.614,MST_task,2024.2.0,59.92624279080851,2026-01-19 16h24.35.053760 +0530,
,Objects\323a.jpg,142,0,143,,,,,,,None,j,0.061813200009055436,None,,,,,,143,0,142,642.2658954999642,,,,,,,,,,,,,,,,,,,,,,,642.2496120000142,642.2658954999642,642.7493900000118,,,,,,,,,,,,,,642.7663774999673,,,,,,,,,,,,,642.7597736999742,642.7663774999673,642.7663774999673,642.7663774999673,645.7497150999843,shoe,None,645.7497508999659,645.765854199999,645.765854199999,645.8330140999751,j,0.061813200009055436,None,645.765854199999,645.765854199999,645.765854199999,,,,,,,,,,,,00059,001,2026-01-19_16h24.22.614,MST_task,2024.2.0,59.92624279080851,2026-01-19 16h24.35.053760 +0530,
,Objects\210a.jpg,143,0,144,,,,,,,None,f,0.774034500005655,None,,,,,,144,0,143,645.8491695999983,,,,,,,,,,,,,,,,,,,,,,,645.8330952000106,645.8491695999983,646.3328616999788,,,,,,,,,,,,,,646.3494163000141,,,,,,,,,,,,,646.3425087999785,646.3494163000141,646.3494163000141,646.3494163000141,649.3334692000062,shoe,None,649.3335119999829,649.3491266000201,649.3491266000201,650.1328971000039,f,0.774034500005655,None,649.3491266000201,649.3491266000201,649.3491266000201,,,,,,,,,,,,00059,001,2026-01-19_16h24.22.614,MST_task,2024.2.0,59.92624279080851,2026-01-19 16h24.35.053760 +0530,
,Objects\037a.jpg,144,0,145,,,,,,,None,f,0.9386205999762751,None,,,,,,145,0,144,650.1490569000016,,,,,,,,,,,,,,,,,,,,,,,650.1329799999949,650.1490569000016,650.6328226000187,,,,,,,,,,,,,,650.6495119999745,,,,,,,,,,,,,650.6439064000151,650.6495119999745,650.6495119999745,650.6495119999745,653.6329644999932,shoe,None,653.6330025999923,653.6491778999916,653.6491778999916,654.5995058999979,f,0.9386205999762751,None,,,,,,,,,,,,,,,00059,001,2026-01-19_16h24.22.614,MST_task,2024.2.0,59.92624279080851,2026-01-19 16h24.35.053760 +0530,
,Objects\197a.jpg,145,0,146,,,,,,,None,j,0.47952540003461763,None,,,,,,146,0,145,654.6158751000185,,,,,,,,,,,,,,,,,,,,,,,654.5996348999906,654.6158751000185,655.0994116999791,,,,,,,,,,,,,,655.1160823999671,,,,,,,,,,,,,655.1092277999851,655.1160823999671,655.1160823999671,655.1160823999671,658.0996888999944,shoe,None,658.0997256999835,658.1158624999807,658.1158624999807,658.5998367000138,j,0.47952540003461763,None,658.1158624999807,658.1158624999807,658.1158624999807,,,,,,,,,,,,00059,001,2026-01-19_16h24.22.614,MST_task,2024.2.0,59.92624279080851,2026-01-19 16h24.35.053760 +0530,
,Objects\062a.jpg,146,0,147,,,,,,,None,j,0.3444654999766499,None,,,,,,147,0,146,658.6160337000038,,,,,,,,,,,,,,,,,,,,,,,658.599966800015,658.6160337000038,659.0993598999921,,,,,,,,,,,,,,659.1161189000122,,,,,,,,,,,,,659.1086803000071,659.1161189000122,659.1161189000122,659.1161189000122,662.0996652999893,shoe,None,662.0997031999868,662.1159455999732,662.1159455999732,662.4664744000183,j,0.3444654999766499,None,662.1159455999732,662.1159455999732,662.1159455999732,,,,,,,,,,,,00059,001,2026-01-19_16h24.22.614,MST_task,2024.2.0,59.92624279080851,2026-01-19 16h24.35.053760 +0530,
,Objects\143a.jpg,147,0,148,,,,,,,None,j,0.37329829996451735,None,,,,,,148,0,147,662.4825764999841,,,,,,,,,,,,,,,,,,,,,,,662.4665601999732,662.4825764999841,662.9662052000058,,,,,,,,,,,,,,662.9828428999754,,,,,,,,,,,,,662.977893000003,662.9828428999754,662.9828428999754,662.9828428999754,665.9666141999769,indoor,None,665.9682535000029,665.982513099967,665.982513099967,666.3664527999936,j,0.37329829996451735,None,665.982513099967,665.982513099967,665.982513099967,,,,,,,,,,,,00059,001,2026-01-19_16h24.22.614,MST_task,2024.2.0,59.92624279080851,2026-01-19 16h24.35.053760 +0530,
,Objects\006a.jpg,148,0,149,,,,,,,None,j,0.42491969995899126,None,,,,,,149,0,148,666.3825332999695,,,,,,,,,,,,,,,,,,,,,,,666.3665425999789,666.3825332999695,666.8661503000185,,,,,,,,,,,,,,666.882875500014,,,,,,,,,,,,,666.8755490999902,666.882875500014,666.882875500014,666.882875500014,669.8664391000057,indoor,None,669.8664769000025,669.8826161000179,669.8826161000179,670.3163395000156,j,0.42491969995899126,None,669.8826161000179,669.8826161000179,669.8826161000179,,,,,,,,,,,,00059,001,2026-01-19_16h24.22.614,MST_task,2024.2.0,59.92624279080851,2026-01-19 16h24.35.053760 +0530,
,Objects\101a.jpg,149,0,150,,,,,,,None,f,0.6827884999802336,None,,,,,,150,0,149,670.3325042999932,,,,,,,,,,,,,,,,,,,,,,,670.3164272999857,670.3325042999932,670.816168099991,,,,,,,,,,,,,,670.8327632999863,,,,,,,,,,,,,670.8257248000009,670.8327632999863,670.8327632999863,670.8327632999863,673.81670939998,indoor,None,673.8167534999666,673.8325858999742,673.8325858999742,674.516316299967,f,0.6827884999802336,None,673.8325858999742,673.8325858999742,673.8325858999742,,,,,,,,,,,,00059,001,2026-01-19_16h24.22.614,MST_task,2024.2.0,59.92624279080851,2026-01-19 16h24.35.053760 +0530,
,Objects\372a.jpg,150,0,151,,,,,,,j,None,,,2.8743285999516957,None,,,,151,0,150,674.5325011999812,,,,,,,,,,,,,,,,,,,,,,,674.516450199997,674.5325011999812,675.0161623000167,,,,,,,,,,,,,,675.0329866000102,,,,,,,,,,,,,675.0268200999708,675.0329866000102,675.0329866000102,675.0329866000102,678.0164219000144,indoor,j,678.0164637999842,,,678.0164760000189,None,,,678.0325176999904,678.0325176999904,678.0325176999904,2.8743285999516957,None,,,,,,,,,,00059,001,2026-01-19_16h24.22.614,MST_task,2024.2.0,59.92624279080851,2026-01-19 16h24.35.053760 +0530,
,Objects\267a.jpg,151,0,152,,,,,,,None,j,0.3830578000051901,None,,,,,,152,0,151,678.0325176999904,,,,,,,,,,,,,,,,,,,,,,,678.0165399999823,678.0325176999904,678.5162259999779,,,,,,,,,,,,,,678.5329764999915,,,,,,,,,,,,,678.5268861000077,678.5329764999915,678.5329764999915,678.5329764999915,681.5165200000047,indoor,None,681.5165587000083,681.5325987999677,681.5325987999677,681.9164147999836,j,0.3830578000051901,None,681.5325987999677,681.5325987999677,681.5325987999677,,,,,,,,,,,,00059,001,2026-01-19_16h24.22.614,MST_task,2024.2.0,59.92624279080851,2026-01-19 16h24.35.053760 +0530,
,Objects\302a.jpg,152,0,153,,,,,,,None,j,0.2909330999827944,None,,,,,,153,0,152,681.9325715000159,,,,,,,,,,,,,,,,,,,,,,,681.9165007999982,681.9325715000159,682.4162300999742,,,,,,,,,,,,,,682.4330160999671,,,,,,,,,,,,,682.4262800000142,682.4330160999671,682.4330160999671,682.4330160999671,685.4165148999891,indoor,None,685.416553499992,685.4325938000111,685.4325938000111,685.7331317999633,j,0.2909330999827944,None,685.4325938000111,685.4325938000111,685.4325938000111,,,,,,,,,,,,00059,001,2026-01-19_16h24.22.614,MST_task,2024.2.0,59.92624279080851,2026-01-19 16h24.35.053760 +0530,
,Objects\138a.jpg,153,0,154,,,,,,,None,j,0.2905555000179447,None,,,,,,154,0,153,685.7491837000125,,,,,,,,,,,,,,,,,,,,,,,685.7332222000114,685.7491837000125,686.232969500008,,,,,,,,,,,,,,686.2496387999854,,,,,,,,,,,,,686.2432861999841,686.2496387999854,686.2496387999854,686.2496387999854,689.2331688000122,indoor,None,689.2332074000151,689.249190100003,689.249190100003,689.5495671000099,j,0.2905555000179447,None,689.249190100003,689.249190100003,689.249190100003,,,,,,,,,,,,00059,001,2026-01-19_16h24.22.614,MST_task,2024.2.0,59.92624279080851,2026-01-19 16h24.35.053760 +0530,
,Objects\154a.jpg,154,0,155,,,,,,,None,f,0.33012329996563494,None,,,,,,155,0,154,689.5659411000088,,,,,,,,,,,,,,,,,,,,,,,689.5496611999697,689.5659411000088,690.0494506999967,,,,,,,,,,,,,,690.0661675999872,,,,,,,,,,,,,690.0628421999863,690.0661675999872,690.0661675999872,690.0661675999872,693.0495976000093,shoe,None,693.0517345999833,693.0659448999795,693.0659448999795,693.3997433999903,f,0.33012329996563494,None,693.0659448999795,693.0659448999795,693.0659448999795,,,,,,,,,,,,00059,001,2026-01-19_16h24.22.614,MST_task,2024.2.0,59.92624279080851,2026-01-19 16h24.35.053760 +0530,
