Sl_no,image_path,thisN,thisTrialN,thisRepN,key_resp_5.keys,key_resp_7.keys,key_resp_7.rt,key_resp_7.duration,key_resp_5.rt,key_resp_5.duration,key_resp_9.keys,key_resp_9.rt,key_resp_9.duration,key_resp_8.keys,key_resp_8.rt,key_resp_8.duration,practice.thisRepN,practice.thisTrialN,practice.thisN,trials.thisRepN,trials.thisTrialN,trials.thisN,thisRow.t,notes,welcome_page.started,text.started,key_resp.started,welcome_page.stopped,key_resp.keys,key_resp.rt,key_resp.duration,instructions.started,ins.started,key_resp_2.started,instructions.stopped,key_resp_2.keys,key_resp_2.rt,key_resp_2.duration,objects_only_instruction.started,text_3.started,key_resp_3.started,objects_only_instruction.stopped,key_resp_3.keys,key_resp_3.rt,key_resp_3.duration,ISI.started,text_4.started,text_4.stopped,ISI.stopped,practice_block.started,image.started,key_resp_5.started,text_5.started,practice_block.stopped,practice.key_resp_5.keys,indoor_outdoor.started,text_7.started,key_resp_7.started,indoor_outdoor.stopped,practice.key_resp_7.keys,practice.key_resp_7.rt,practice.key_resp_7.duration,image.stopped,key_resp_5.stopped,text_5.stopped,practice.key_resp_5.rt,practice.key_resp_5.duration,practice_to_main.started,text_2.started,key_resp_4.started,practice_to_main.stopped,key_resp_4.keys,key_resp_4.rt,key_resp_4.duration,objects.started,image_2.started,text_9.started,key_resp_9.started,image_2.stopped,text_9.stopped,key_resp_9.stopped,objects.stopped,category,trials.key_resp_9.keys,trials.key_resp_9.rt,trials.key_resp_9.duration,encoding_task.started,encoding_task.stopped,trials.key_resp_8.keys,text_8.started,key_resp_8.started,trials.key_resp_8.rt,trials.key_resp_8.duration,end_experiment.started,text_6.started,key_resp_6.started,end_experiment.stopped,key_resp_6.keys,key_resp_6.rt,key_resp_6.duration,list_of_stimuli,encoding_task_accuracy,participant,session,date,expName,psychopyVersion,frameRate,expStart,
,,,,,,,,,,,,,,,,,,,,,,,,,0.0012787000000571425,0.0034894999998869025,0.0034894999998869025,18.577160299999832,space,18.56195260000004,None,,,,,,,,,,,,,,,,,,,,,,,,,,,,,,,,,,,,,,,,,,,,,,,,,,,,,,,,,,,,,,,,,,,,,,,,00051,001,2026-01-18_16h47.53.463,MST_task,2024.2.0,60.27411461852794,2026-01-18 16h48.04.389745 +0530,
,,,,,,,,,,,,,,,,,,,,,,,,,,,,,,,,18.577244199999768,18.59080219999987,18.59080219999987,48.52324589999989,space,29.918044199999713,None,,,,,,,,,,,,,,,,,,,,,,,,,,,,,,,,,,,,,,,,,,,,,,,,,,,,,,,,,,,,,,,,,00051,001,2026-01-18_16h47.53.463,MST_task,2024.2.0,60.27411461852794,2026-01-18 16h48.04.389745 +0530,
,,,,,,,,,,,,,,,,,,,,,,,,,,,,,,,,,,,,,,,48.52337140000009,48.54150200000004,48.54150200000004,75.8895223999998,space,27.336239300000216,None,,,,,,,,,,,,,,,,,,,,,,,,,,,,,,,,,,,,,,,,,,,,,,,,,,,,,,,,,,00051,001,2026-01-18_16h47.53.463,MST_task,2024.2.0,60.27411461852794,2026-01-18 16h48.04.389745 +0530,
2,practice_images/031a.jpg,0,0,1,None,f,0.4476316999998744,None,,,,,,,,,1,0,0,,,,75.90441749999991,,,,,,,,,,,,,,,,,,,,,,,75.90015529999982,75.90441749999991,76.43818389999979,76.38893689999986,76.40258799999992,76.43818389999979,76.43818389999979,76.43818389999979,79.40505239999993,None,79.41018359999998,79.4212580999997,79.4212580999997,79.87304820000008,f,0.4476316999998744,None,,,,,,,,,,,,,,,,,,,,,,,,,,,,,,,,,,,,,,,,,00051,001,2026-01-18_16h47.53.463,MST_task,2024.2.0,60.27411461852794,2026-01-18 16h48.04.389745 +0530,
7,practice_images/166a.jpg,1,1,1,j,None,,,2.1611312,0.07156720000011774,,,,,,,1,1,1,,,,79.88768359999995,,,,,,,,,,,,,,,,,,,,,,,79.87340760000006,79.88768359999995,80.3882792999998,80.37311890000001,80.37875749999967,80.3882792999998,80.3882792999998,80.3882792999998,83.37245099999973,j,83.37256750000006,,,83.37261529999978,None,,,83.38786819999996,83.38786819999996,83.38786819999996,2.1611312,0.07156720000011774,,,,,,,,,,,,,,,,,,,,,,,,,,,,,,,,,,,,00051,001,2026-01-18_16h47.53.463,MST_task,2024.2.0,60.27411461852794,2026-01-18 16h48.04.389745 +0530,
10,practice_images/182a.jpg,2,2,1,f,None,,,1.268984299999829,0.12034260000018548,,,,,,,1,2,2,,,,83.38786819999996,,,,,,,,,,,,,,,,,,,,,,,83.37282030000006,83.38786819999996,83.88811229999965,83.87272779999967,83.87697939999998,83.88811229999965,83.88811229999965,83.88811229999965,86.87337919999982,f,86.87351739999986,,,86.87356839999984,None,,,86.88795979999986,86.88795979999986,86.88795979999986,1.268984299999829,0.12034260000018548,,,,,,,,,,,,,,,,,,,,,,,,,,,,,,,,,,,,00051,001,2026-01-18_16h47.53.463,MST_task,2024.2.0,60.27411461852794,2026-01-18 16h48.04.389745 +0530,
1,practice_images/013a.jpg,3,3,1,j,None,,,1.593500899999981,0.09600619999991977,,,,,,,1,3,3,,,,86.88795979999986,,,,,,,,,,,,,,,,,,,,,,,86.87385469999981,86.88795979999986,87.38793739999983,87.3722416999999,87.37760919999982,87.38793739999983,87.38793739999983,87.38793739999983,90.37258479999991,j,90.37270259999968,,,90.37275009999985,None,,,90.38789919999999,90.38789919999999,90.38789919999999,1.593500899999981,0.09600619999991977,,,,,,,,,,,,,,,,,,,,,,,,,,,,,,,,,,,,00051,001,2026-01-18_16h47.53.463,MST_task,2024.2.0,60.27411461852794,2026-01-18 16h48.04.389745 +0530,
6,practice_images/158a.jpg,4,4,1,j,None,,,1.5255247000000054,0.11215700000002471,,,,,,,1,4,4,,,,90.38789919999999,,,,,,,,,,,,,,,,,,,,,,,90.37295139999969,90.38789919999999,90.88783839999996,90.8722386999998,90.87731589999976,90.88783839999996,90.88783839999996,90.88783839999996,93.87226280000004,j,93.87236219999977,,,93.87240329999986,None,,,93.88766689999966,93.88766689999966,93.88766689999966,1.5255247000000054,0.11215700000002471,,,,,,,,,,,,,,,,,,,,,,,,,,,,,,,,,,,,00051,001,2026-01-18_16h47.53.463,MST_task,2024.2.0,60.27411461852794,2026-01-18 16h48.04.389745 +0530,
8,practice_images/178a.jpg,5,5,1,None,f,0.2981294999999591,None,,,,,,,,,1,5,5,,,,93.88766689999966,,,,,,,,,,,,,,,,,,,,,,,93.87258350000002,93.88766689999966,94.38787610000008,94.37228490000007,94.38250749999997,94.38787610000008,94.38787610000008,94.38787610000008,97.37243629999966,None,97.3784354999998,97.38767549999966,97.38767549999966,97.68955389999974,f,0.2981294999999591,None,97.38767549999966,97.38767549999966,97.38767549999966,,,,,,,,,,,,,,,,,,,,,,,,,,,,,,,,,,,,,,00051,001,2026-01-18_16h47.53.463,MST_task,2024.2.0,60.27411461852794,2026-01-18 16h48.04.389745 +0530,
5,practice_images/139a.jpg,6,6,1,j,None,,,2.3121931000000586,0.08866439999974318,,,,,,,1,6,6,,,,97.70462539999971,,,,,,,,,,,,,,,,,,,,,,,97.6899113999998,97.70462539999971,98.20461559999967,98.18923249999989,98.19341689999965,98.20461559999967,98.20461559999967,98.20461559999967,101.18899169999986,j,101.18911679999974,,,101.18916910000007,None,,,101.20447250000007,101.20447250000007,101.20447250000007,2.3121931000000586,0.08866439999974318,,,,,,,,,,,,,,,,,,,,,,,,,,,,,,,,,,,,00051,001,2026-01-18_16h47.53.463,MST_task,2024.2.0,60.27411461852794,2026-01-18 16h48.04.389745 +0530,
4,practice_images/002b.jpg,7,7,1,j,None,,,1.5647014000001036,0.09611610000001747,,,,,,,1,7,7,,,,101.20447250000007,,,,,,,,,,,,,,,,,,,,,,,101.18942049999987,101.20447250000007,101.7045991,101.68868819999989,101.6939625,101.7045991,101.7045991,101.7045991,104.69031489999998,j,104.69053729999996,,,104.69060919999993,None,,,104.70454759999984,104.70454759999984,104.70454759999984,1.5647014000001036,0.09611610000001747,,,,,,,,,,,,,,,,,,,,,,,,,,,,,,,,,,,,00051,001,2026-01-18_16h47.53.463,MST_task,2024.2.0,60.27411461852794,2026-01-18 16h48.04.389745 +0530,
3,practice_images/037a.jpg,8,8,1,f,None,,,2.080871599999682,0.14433980000012525,,,,,,,1,8,8,,,,104.70454759999984,,,,,,,,,,,,,,,,,,,,,,,104.6908383,104.70454759999984,105.20465419999982,105.18887959999984,105.19229059999998,105.20465419999982,105.20465419999982,105.20465419999982,108.18933389999984,f,108.18943889999991,,,108.1894828999998,None,,,108.20450219999975,108.20450219999975,108.20450219999975,2.080871599999682,0.14433980000012525,,,,,,,,,,,,,,,,,,,,,,,,,,,,,,,,,,,,00051,001,2026-01-18_16h47.53.463,MST_task,2024.2.0,60.27411461852794,2026-01-18 16h48.04.389745 +0530,
9,practice_images/180a.jpg,9,9,1,j,None,,,1.164686999999958,0.0964590000003227,,,,,,,1,9,9,,,,108.20450219999975,,,,,,,,,,,,,,,,,,,,,,,108.18967239999984,108.20450219999975,108.70454449999988,108.68879979999974,108.69270439999991,108.70454449999988,108.70454449999988,108.70454449999988,111.68940329999987,j,111.6895486999997,,,111.68962499999998,None,,,111.70431000000008,111.70431000000008,111.70431000000008,1.164686999999958,0.0964590000003227,,,,,,,,,,,,,,,,,,,,,,,,,,,,,,,,,,,,00051,001,2026-01-18_16h47.53.463,MST_task,2024.2.0,60.27411461852794,2026-01-18 16h48.04.389745 +0530,
,,,,,,,,,,,,,,,,,,,,,,,,,,,,,,,,,,,,,,,,,,,,,,,,,,,,,,,,,,,,,,,,,,,,111.68982389999974,111.70431000000008,111.70431000000008,127.44012329999987,space,15.733448500000122,None,,,,,,,,,,,,,,,,,,,,,,,,,,,,,00051,001,2026-01-18_16h47.53.463,MST_task,2024.2.0,60.27411461852794,2026-01-18 16h48.04.389745 +0530,
,Objects\245a.jpg,0,0,1,,,,,,,f,2.106132699999762,0.1126177999999527,None,,,,,,1,0,0,127.45470429999978,,,,,,,,,,,,,,,,,,,,,,,127.44277269999975,127.45470429999978,127.95472160000008,127.93891459999986,,,,,,,,,,,,,,,,,,,,,,,,,,127.94826849999981,127.95472160000008,127.95472160000008,127.95472160000008,130.95445109999991,130.95445109999991,130.95445109999991,130.93972429999985,shoe,f,2.106132699999762,0.1126177999999527,130.94550660000004,130.94556299999977,None,,,,,,,,,,,,,,00051,001,2026-01-18_16h47.53.463,MST_task,2024.2.0,60.27411461852794,2026-01-18 16h48.04.389745 +0530,
,Objects\230a.jpg,1,0,2,,,,,,,j,2.0629886999995506,0.08767920000036611,None,,,,,,2,0,1,130.95445109999991,,,,,,,,,,,,,,,,,,,,,,,130.94576899999993,130.95445109999991,131.45497049999994,131.43911720000006,,,,,,,,,,,,,,,,,,,,,,,,,,131.44738899999993,131.45497049999994,131.45497049999994,131.45497049999994,134.45445249999966,134.45445249999966,134.45445249999966,134.43972379999968,shoe,j,2.0629886999995506,0.08767920000036611,134.43985829999974,134.4399043999997,None,,,,,,,,,,,,,,00051,001,2026-01-18_16h47.53.463,MST_task,2024.2.0,60.27411461852794,2026-01-18 16h48.04.389745 +0530,
,Objects\100a.jpg,2,0,3,,,,,,,f,1.0980022000003373,0.1285413000000517,None,,,,,,3,0,2,134.45445249999966,,,,,,,,,,,,,,,,,,,,,,,134.4402339999997,134.45445249999966,134.95483999999988,134.9389382999998,,,,,,,,,,,,,,,,,,,,,,,,,,134.94557559999976,134.95483999999988,134.95483999999988,134.95483999999988,137.95455939999965,137.95455939999965,137.95455939999965,137.9393627999998,shoe,f,1.0980022000003373,0.1285413000000517,137.93954099999974,137.93959939999968,None,,,,,,,,,,,,,,00051,001,2026-01-18_16h47.53.463,MST_task,2024.2.0,60.27411461852794,2026-01-18 16h48.04.389745 +0530,
,Objects\110a.jpg,3,0,4,,,,,,,None,,,j,4.063147099999696,None,,,,4,0,3,137.95455939999965,,,,,,,,,,,,,,,,,,,,,,,137.93981029999986,137.95455939999965,138.45484269999997,138.43901449999976,,,,,,,,,,,,,,,,,,,,,,,,,,138.44446160000007,138.45484269999997,138.45484269999997,138.45484269999997,141.45458099999996,141.45458099999996,141.45458099999996,141.43981459999986,shoe,None,,,141.43994380000004,145.5233859,j,141.45458099999996,141.45458099999996,4.063147099999696,None,,,,,,,,,,00051,001,2026-01-18_16h47.53.463,MST_task,2024.2.0,60.27411461852794,2026-01-18 16h48.04.389745 +0530,
,Objects\186a.jpg,4,0,5,,,,,,,f,2.0382855000002564,0.1277421999998296,None,,,,,,5,0,4,145.5379883999999,,,,,,,,,,,,,,,,,,,,,,,145.5237619999998,145.5379883999999,146.03837959999964,146.02242509999996,,,,,,,,,,,,,,,,,,,,,,,,,,146.03155939999988,146.03837959999964,146.03837959999964,146.03837959999964,149.03757330000008,149.03757330000008,149.03757330000008,149.02328959999977,shoe,f,2.0382855000002564,0.1277421999998296,149.02343789999986,149.0234900999999,None,,,,,,,,,,,,,,00051,001,2026-01-18_16h47.53.463,MST_task,2024.2.0,60.27411461852794,2026-01-18 16h48.04.389745 +0530,
,Objects\224a.jpg,5,0,6,,,,,,,None,,,f,0.3153917999998157,None,,,,6,0,5,149.03757330000008,,,,,,,,,,,,,,,,,,,,,,,149.0237431999999,149.03757330000008,149.53862889999982,149.52239370000007,,,,,,,,,,,,,,,,,,,,,,,,,,149.52831939999987,149.53862889999982,149.53862889999982,149.53862889999982,152.53773589999992,152.53773589999992,152.53773589999992,152.5227488999999,shoe,None,,,152.52284089999966,152.8561335999998,f,152.53773589999992,152.53773589999992,0.3153917999998157,None,,,,,,,,,,00051,001,2026-01-18_16h47.53.463,MST_task,2024.2.0,60.27411461852794,2026-01-18 16h48.04.389745 +0530,
,Objects\374a.jpg,6,0,7,,,,,,,f,2.0574369999999362,0.11135620000004565,None,,,,,,7,0,6,152.87103149999984,,,,,,,,,,,,,,,,,,,,,,,152.85637419999966,152.87103149999984,153.37166359999992,153.35544649999974,,,,,,,,,,,,,,,,,,,,,,,,,,153.36374079999996,153.37166359999992,153.37166359999992,153.37166359999992,156.37102679999998,156.37102679999998,156.37102679999998,156.35632170000008,shoe,f,2.0574369999999362,0.11135620000004565,156.3565079,156.3565779999999,None,,,,,,,,,,,,,,00051,001,2026-01-18_16h47.53.463,MST_task,2024.2.0,60.27411461852794,2026-01-18 16h48.04.389745 +0530,
,Objects\102a.jpg,7,0,8,,,,,,,None,,,f,0.27816710000024614,None,,,,8,0,7,156.37102679999998,,,,,,,,,,,,,,,,,,,,,,,156.35686469999973,156.37102679999998,156.8711731999997,156.85567569999967,,,,,,,,,,,,,,,,,,,,,,,,,,156.86666990000003,156.8711731999997,156.8711731999997,156.8711731999997,159.87137649999977,159.87137649999977,159.87137649999977,159.8568793999998,indoor,None,,,159.86125349999975,160.15642389999994,f,159.87137649999977,159.87137649999977,0.27816710000024614,None,,,,,,,,,,00051,001,2026-01-18_16h47.53.463,MST_task,2024.2.0,60.27411461852794,2026-01-18 16h48.04.389745 +0530,
,Objects\284a.jpg,8,0,9,,,,,,,j,2.268897200000083,0.11246660000006159,None,,,,,,9,0,8,160.17141939999965,,,,,,,,,,,,,,,,,,,,,,,160.15682759999981,160.17141939999965,160.6716234999999,160.65555289999975,,,,,,,,,,,,,,,,,,,,,,,,,,160.66337169999997,160.6716234999999,160.6716234999999,160.6716234999999,163.67114549999997,163.67114549999997,163.67114549999997,163.65641000000005,indoor,j,2.268897200000083,0.11246660000006159,163.65659830000004,163.6566699,None,,,,,,,,,,,,,,00051,001,2026-01-18_16h47.53.463,MST_task,2024.2.0,60.27411461852794,2026-01-18 16h48.04.389745 +0530,
,Objects\254a.jpg,9,0,10,,,,,,,j,1.8968925999997737,0.1428603999997904,None,,,,,,10,0,9,163.67114549999997,,,,,,,,,,,,,,,,,,,,,,,163.65689500000008,163.67114549999997,164.17275759999984,164.15600049999966,,,,,,,,,,,,,,,,,,,,,,,,,,164.1686823,164.17275759999984,164.17275759999984,164.17275759999984,,,,167.17163789999995,indoor,j,1.8968925999997737,0.1428603999997904,167.1717547999997,167.17179719999967,None,,,,,,,,,,,,,,00051,001,2026-01-18_16h47.53.463,MST_task,2024.2.0,60.27411461852794,2026-01-18 16h48.04.389745 +0530,
,Objects\136a.jpg,10,0,11,,,,,,,f,2.009927399999924,0.14409329999989495,None,,,,,,11,0,10,167.18788019999965,,,,,,,,,,,,,,,,,,,,,,,167.17199309999978,167.18788019999965,167.70714129999988,167.67241689999992,,,,,,,,,,,,,,,,,,,,,,,,,,167.7038475999998,167.70714129999988,167.70714129999988,167.70714129999988,,,,170.67235570000003,indoor,f,2.009927399999924,0.14409329999989495,170.67246440000008,170.67250409999997,None,,,,,,,,,,,,,,00051,001,2026-01-18_16h47.53.463,MST_task,2024.2.0,60.27411461852794,2026-01-18 16h48.04.389745 +0530,
,Objects\278a.jpg,11,0,12,,,,,,,f,2.1199969999997847,0.14515430000028573,None,,,,,,12,0,11,170.6877015,,,,,,,,,,,,,,,,,,,,,,,170.67269309999983,170.6877015,171.18844790000003,171.17213549999997,,,,,,,,,,,,,,,,,,,,,,,,,,171.17913529999987,171.18844790000003,171.18844790000003,171.18844790000003,174.18767579999985,174.18767579999985,174.18767579999985,174.17284569999993,indoor,f,2.1199969999997847,0.14515430000028573,174.17296050000004,174.1730017,None,,,,,,,,,,,,,,00051,001,2026-01-18_16h47.53.463,MST_task,2024.2.0,60.27411461852794,2026-01-18 16h48.04.389745 +0530,
,Objects\229a.jpg,12,0,13,,,,,,,None,,,f,0.3573197999999138,None,,,,13,0,12,174.18767579999985,,,,,,,,,,,,,,,,,,,,,,,174.17319999999972,174.18767579999985,174.68792759999997,174.6723493999998,,,,,,,,,,,,,,,,,,,,,,,,,,174.6820045999998,174.68792759999997,174.68792759999997,174.68792759999997,177.68776049999997,177.68776049999997,177.68776049999997,177.67291029999978,indoor,None,,,177.67301929999985,178.0563890999997,f,177.68776049999997,177.68776049999997,0.3573197999999138,None,,,,,,,,,,00051,001,2026-01-18_16h47.53.463,MST_task,2024.2.0,60.27411461852794,2026-01-18 16h48.04.389745 +0530,
,Objects\353a.jpg,13,0,14,,,,,,,f,2.537977899999987,0.12732359999972687,None,,,,,,14,0,13,178.0710836999997,,,,,,,,,,,,,,,,,,,,,,,178.05668699999978,178.0710836999997,178.57168699999966,178.55560190000006,,,,,,,,,,,,,,,,,,,,,,,,,,178.56274589999975,178.57168699999966,178.57168699999966,178.57168699999966,181.57109379999974,181.57109379999974,181.57109379999974,181.55626230000007,indoor,f,2.537977899999987,0.12732359999972687,181.55644779999966,181.5565173,None,,,,,,,,,,,,,,00051,001,2026-01-18_16h47.53.463,MST_task,2024.2.0,60.27411461852794,2026-01-18 16h48.04.389745 +0530,
,Objects\045a.jpg,14,0,15,,,,,,,j,1.7496976000002178,0.1282200999999077,None,,,,,,15,0,14,181.57109379999974,,,,,,,,,,,,,,,,,,,,,,,181.55672389999972,181.57109379999974,182.07136319999972,182.05524939999987,,,,,,,,,,,,,,,,,,,,,,,,,,182.06581119999964,182.07136319999972,182.07136319999972,182.07136319999972,185.07109039999978,185.07109039999978,185.07109039999978,185.05687279999984,shoe,j,1.7496976000002178,0.1282200999999077,185.06047499999977,185.06050319999986,None,,,,,,,,,,,,,,00051,001,2026-01-18_16h47.53.463,MST_task,2024.2.0,60.27411461852794,2026-01-18 16h48.04.389745 +0530,
,Objects\128a.jpg,15,0,16,,,,,,,None,,,f,0.3225928000001659,None,,,,16,0,15,185.07109039999978,,,,,,,,,,,,,,,,,,,,,,,185.06066220000002,185.07109039999978,185.57133350000004,185.55552940000007,,,,,,,,,,,,,,,,,,,,,,,,,,185.5615684999998,185.57133350000004,185.57133350000004,185.57133350000004,188.57115440000007,188.57115440000007,188.57115440000007,188.55614209999976,shoe,None,,,188.55625310000005,188.9062853999999,f,188.57115440000007,188.57115440000007,0.3225928000001659,None,,,,,,,,,,00051,001,2026-01-18_16h47.53.463,MST_task,2024.2.0,60.27411461852794,2026-01-18 16h48.04.389745 +0530,
,Objects\178a.jpg,16,0,17,,,,,,,None,,,f,0.6723468999998659,None,,,,17,0,16,188.92110999999977,,,,,,,,,,,,,,,,,,,,,,,188.9066171999998,188.92110999999977,189.4214004999999,189.40562240000008,,,,,,,,,,,,,,,,,,,,,,,,,,189.41502300000002,189.4214004999999,189.4214004999999,189.4214004999999,192.42117039999994,192.42117039999994,192.42117039999994,192.40604699999994,shoe,None,,,192.4062113,193.10627419999992,f,192.42117039999994,192.42117039999994,0.6723468999998659,None,,,,,,,,,,00051,001,2026-01-18_16h47.53.463,MST_task,2024.2.0,60.27411461852794,2026-01-18 16h48.04.389745 +0530,
,Objects\002a.jpg,17,0,18,,,,,,,None,,,f,0.8869541000003665,None,,,,18,0,17,193.12108769999986,,,,,,,,,,,,,,,,,,,,,,,193.10660289999987,193.12108769999986,193.6341192,193.60567509999964,,,,,,,,,,,,,,,,,,,,,,,,,,193.63114739999992,193.6341192,193.6341192,193.6341192,,,,196.62161920000017,shoe,None,,,196.6217840999998,197.53994770000008,f,196.6376991999996,196.6376991999996,0.8869541000003665,None,,,,,,,,,,00051,001,2026-01-18_16h47.53.463,MST_task,2024.2.0,60.27411461852794,2026-01-18 16h48.04.389745 +0530,
,Objects\134a.jpg,18,0,19,,,,,,,None,,,j,0.4873799999995754,None,,,,19,0,18,197.55451699999958,,,,,,,,,,,,,,,,,,,,,,,197.54031329999998,197.55451699999958,198.05504709999968,198.0386693999999,,,,,,,,,,,,,,,,,,,,,,,,,,198.04612550000002,198.05504709999968,198.05504709999968,198.05504709999968,201.05454910000026,201.05454910000026,201.05454910000026,201.03963769999973,shoe,None,,,201.03980049999973,201.5561361,j,201.05454910000026,201.05454910000026,0.4873799999995754,None,,,,,,,,,,00051,001,2026-01-18_16h47.53.463,MST_task,2024.2.0,60.27411461852794,2026-01-18 16h48.04.389745 +0530,
,Objects\082a.jpg,19,0,20,,,,,,,None,,,j,0.26953750000029686,None,,,,20,0,19,201.57119309999962,,,,,,,,,,,,,,,,,,,,,,,201.55657509999946,201.57119309999962,202.07141409999986,202.05557750000025,,,,,,,,,,,,,,,,,,,,,,,,,,202.06412529999943,202.07141409999986,202.07141409999986,202.07141409999986,205.07108179999977,205.07108179999977,205.07108179999977,205.0562657999999,shoe,None,,,205.05644349999966,205.35643509999954,j,205.07108179999977,205.07108179999977,0.26953750000029686,None,,,,,,,,,,00051,001,2026-01-18_16h47.53.463,MST_task,2024.2.0,60.27411461852794,2026-01-18 16h48.04.389745 +0530,
,Objects\317a.jpg,20,0,21,,,,,,,j,2.5900668999993286,0.09561790000043402,None,,,,,,21,0,20,205.37107070000002,,,,,,,,,,,,,,,,,,,,,,,205.3568538999998,205.37107070000002,205.8712790999998,205.85573579999982,,,,,,,,,,,,,,,,,,,,,,,,,,205.86417849999998,205.8712790999998,205.8712790999998,205.8712790999998,208.87104120000004,208.87104120000004,208.87104120000004,208.85653120000006,shoe,j,2.5900668999993286,0.09561790000043402,208.85670130000017,208.85676090000015,None,,,,,,,,,,,,,,00051,001,2026-01-18_16h47.53.463,MST_task,2024.2.0,60.27411461852794,2026-01-18 16h48.04.389745 +0530,
,Objects\039a.jpg,21,0,22,,,,,,,j,2.1402422999999544,0.11875890000010259,None,,,,,,22,0,21,208.87104120000004,,,,,,,,,,,,,,,,,,,,,,,208.85716390000016,208.87104120000004,209.39390550000007,209.35568989999956,,,,,,,,,,,,,,,,,,,,,,,,,,209.39129140000023,209.39390550000007,209.39390550000007,209.39390550000007,,,,212.37162720000015,indoor,j,2.1402422999999544,0.11875890000010259,212.37489629999982,212.37493079999967,None,,,,,,,,,,,,,,00051,001,2026-01-18_16h47.53.463,MST_task,2024.2.0,60.27411461852794,2026-01-18 16h48.04.389745 +0530,
,Objects\046a.jpg,22,0,23,,,,,,,f,2.8203952999992907,0.13599390000035783,None,,,,,,23,0,22,212.3879496999998,,,,,,,,,,,,,,,,,,,,,,,212.37506059999941,212.3879496999998,212.88800420000007,212.87229879999995,,,,,,,,,,,,,,,,,,,,,,,,,,212.87818309999966,212.88800420000007,212.88800420000007,212.88800420000007,215.88788889999978,215.88788889999978,215.88788889999978,215.87295670000003,indoor,f,2.8203952999992907,0.13599390000035783,215.87314330000027,215.87321189999966,None,,,,,,,,,,,,,,00051,001,2026-01-18_16h47.53.463,MST_task,2024.2.0,60.27411461852794,2026-01-18 16h48.04.389745 +0530,
,Objects\223a.jpg,23,0,24,,,,,,,None,,,f,2.3618599999999788,None,,,,24,0,23,215.88788889999978,,,,,,,,,,,,,,,,,,,,,,,215.87340799999947,215.88788889999978,216.38794809999945,216.37230550000004,,,,,,,,,,,,,,,,,,,,,,,,,,216.37794699999995,216.38794809999945,216.38794809999945,216.38794809999945,219.38768290000007,219.38768290000007,219.38768290000007,219.37289069999952,indoor,None,,,219.3730227999995,221.7562382999995,f,219.38768290000007,219.38768290000007,2.3618599999999788,None,,,,,,,,,,00051,001,2026-01-18_16h47.53.463,MST_task,2024.2.0,60.27411461852794,2026-01-18 16h48.04.389745 +0530,
,Objects\017a.jpg,24,0,25,,,,,,,None,,,f,0.10969649999969988,None,,,,25,0,24,221.7710049999996,,,,,,,,,,,,,,,,,,,,,,,221.75656179999987,221.7710049999996,222.2717321,222.25572779999948,,,,,,,,,,,,,,,,,,,,,,,,,,222.26217069999984,222.2717321,222.2717321,222.2717321,225.27109550000023,225.27109550000023,225.27109550000023,225.25625709999986,indoor,None,,,225.25642309999967,225.3895338000002,f,225.27109550000023,225.27109550000023,0.10969649999969988,None,,,,,,,,,,00051,001,2026-01-18_16h47.53.463,MST_task,2024.2.0,60.27411461852794,2026-01-18 16h48.04.389745 +0530,
,Objects\104a.jpg,25,0,26,,,,,,,None,,,j,2.059724799999458,None,,,,26,0,25,225.40436510000018,,,,,,,,,,,,,,,,,,,,,,,225.38988100000006,225.40436510000018,225.90557360000003,225.8888992000002,,,,,,,,,,,,,,,,,,,,,,,,,,225.8943790000003,225.90557360000003,225.90557360000003,225.90557360000003,,,,228.9047915000001,indoor,None,,,228.90495439999995,230.9895633999995,j,228.9210862,228.9210862,2.059724799999458,None,,,,,,,,,,00051,001,2026-01-18_16h47.53.463,MST_task,2024.2.0,60.27411461852794,2026-01-18 16h48.04.389745 +0530,
,Objects\141a.jpg,26,0,27,,,,,,,None,,,j,1.355839100000594,None,,,,27,0,26,231.00462770000013,,,,,,,,,,,,,,,,,,,,,,,230.98996949999946,231.00462770000013,231.50471029999972,231.48896559999957,,,,,,,,,,,,,,,,,,,,,,,,,,231.4940606,231.50471029999972,231.50471029999972,231.50471029999972,234.50460310000017,234.50460310000017,234.50460310000017,234.48967530000027,indoor,None,,,234.4897890000002,235.87318940000023,j,234.50460310000017,234.50460310000017,1.355839100000594,None,,,,,,,,,,00051,001,2026-01-18_16h47.53.463,MST_task,2024.2.0,60.27411461852794,2026-01-18 16h48.04.389745 +0530,
,Objects\133a.jpg,27,0,28,,,,,,,j,2.873027500000717,None,None,,,,,,28,0,27,235.88772379999955,,,,,,,,,,,,,,,,,,,,,,,235.87344219999977,235.88772379999955,236.42020039999989,236.37258699999984,,,,,,,,,,,,,,,,,,,,,,,,,,236.41739429999961,236.42020039999989,236.42020039999989,236.42020039999989,,,,239.38815009999962,indoor,j,2.873027500000717,None,239.38828879999983,239.38834080000015,None,,,,,,,,,,,,,,00051,001,2026-01-18_16h47.53.463,MST_task,2024.2.0,60.27411461852794,2026-01-18 16h48.04.389745 +0530,
,Objects\183a.jpg,28,0,29,,,,,,,None,,,j,0.12464360000012675,None,,,,29,0,28,239.40443210000012,,,,,,,,,,,,,,,,,,,,,,,239.38857569999982,239.40443210000012,239.90469370000028,239.88903980000032,,,,,,,,,,,,,,,,,,,,,,,,,,239.89782860000014,239.90469370000028,239.90469370000028,239.90469370000028,242.90439509999942,242.90439509999942,242.90439509999942,242.88951579999957,shoe,None,,,242.89462469999944,243.03931980000016,j,242.90439509999942,242.90439509999942,0.12464360000012675,None,,,,,,,,,,00051,001,2026-01-18_16h47.53.463,MST_task,2024.2.0,60.27411461852794,2026-01-18 16h48.04.389745 +0530,
,Objects\365a.jpg,29,0,30,,,,,,,None,,,f,1.7070988000004945,None,,,,30,0,29,243.05483249999997,,,,,,,,,,,,,,,,,,,,,,,243.03977440000017,243.05483249999997,243.55541689999973,243.53931899999952,,,,,,,,,,,,,,,,,,,,,,,,,,243.54899130000013,243.55541689999973,243.55541689999973,243.55541689999973,246.55446349999966,246.55446349999966,246.55446349999966,246.53954770000018,shoe,None,,,246.53967569999986,248.27265559999978,f,246.55446349999966,246.55446349999966,1.7070988000004945,None,,,,,,,,,,00051,001,2026-01-18_16h47.53.463,MST_task,2024.2.0,60.27411461852794,2026-01-18 16h48.04.389745 +0530,
,Objects\328a.jpg,30,0,31,,,,,,,f,2.1143585999998322,0.1443491999998514,None,,,,,,31,0,30,248.28808169999957,,,,,,,,,,,,,,,,,,,,,,,248.27279959999942,248.28808169999957,248.81048819999978,248.77230599999984,,,,,,,,,,,,,,,,,,,,,,,,,,248.80709190000016,248.81048819999978,248.81048819999978,248.81048819999978,,,,251.7883208000003,shoe,f,2.1143585999998322,0.1443491999998514,251.78850890000012,251.78858070000024,None,,,,,,,,,,,,,,00051,001,2026-01-18_16h47.53.463,MST_task,2024.2.0,60.27411461852794,2026-01-18 16h48.04.389745 +0530,
,Objects\111a.jpg,31,0,32,,,,,,,None,,,j,0.30836399999952846,None,,,,32,0,31,251.80433999999968,,,,,,,,,,,,,,,,,,,,,,,251.78890039999987,251.80433999999968,252.3267249999999,252.28882900000008,,,,,,,,,,,,,,,,,,,,,,,,,,252.3236993999999,252.3267249999999,252.3267249999999,252.3267249999999,,,,255.30556629999955,shoe,None,,,255.30568179999955,255.63932810000006,j,255.32116810000025,255.32116810000025,0.30836399999952846,None,,,,,,,,,,00051,001,2026-01-18_16h47.53.463,MST_task,2024.2.0,60.27411461852794,2026-01-18 16h48.04.389745 +0530,
,Objects\340a.jpg,32,0,33,,,,,,,f,2.2655558999995264,0.11970019999989745,None,,,,,,33,0,32,255.65475909999986,,,,,,,,,,,,,,,,,,,,,,,255.63979589999963,255.65475909999986,256.1551365999994,256.1387377000001,,,,,,,,,,,,,,,,,,,,,,,,,,256.1469443999995,256.1551365999994,256.1551365999994,256.1551365999994,259.15440639999997,259.15440639999997,259.15440639999997,259.1396371000001,shoe,f,2.2655558999995264,0.11970019999989745,259.1398264999998,259.1398750999997,None,,,,,,,,,,,,,,00051,001,2026-01-18_16h47.53.463,MST_task,2024.2.0,60.27411461852794,2026-01-18 16h48.04.389745 +0530,
,Objects\073a.jpg,33,0,34,,,,,,,f,2.390530900000158,0.11174189999928785,None,,,,,,34,0,33,259.15440639999997,,,,,,,,,,,,,,,,,,,,,,,259.1401500000002,259.15440639999997,259.6549342999997,259.63907949999975,,,,,,,,,,,,,,,,,,,,,,,,,,259.6475854,259.6549342999997,259.6549342999997,259.6549342999997,262.65511160000005,262.65511160000005,262.65511160000005,262.63941799999975,shoe,f,2.390530900000158,0.11174189999928785,262.6396109999996,262.6396804999995,None,,,,,,,,,,,,,,00051,001,2026-01-18_16h47.53.463,MST_task,2024.2.0,60.27411461852794,2026-01-18 16h48.04.389745 +0530,
,Objects\248a.jpg,34,0,35,,,,,,,f,2.0661247999996704,0.1205314000008002,None,,,,,,35,0,34,262.65511160000005,,,,,,,,,,,,,,,,,,,,,,,262.6401146999997,262.65511160000005,263.15492900000027,263.13907279999967,,,,,,,,,,,,,,,,,,,,,,,,,,263.1497492999997,263.15492900000027,263.15492900000027,263.15492900000027,266.1543703999996,266.1543703999996,266.1543703999996,266.13972899999953,shoe,f,2.0661247999996704,0.1205314000008002,266.13988960000006,266.13993669999945,None,,,,,,,,,,,,,,00051,001,2026-01-18_16h47.53.463,MST_task,2024.2.0,60.27411461852794,2026-01-18 16h48.04.389745 +0530,
,Objects\150a.jpg,35,0,36,,,,,,,None,,,j,1.3332688999998936,None,,,,36,0,35,266.1543703999996,,,,,,,,,,,,,,,,,,,,,,,266.1401215999995,266.1543703999996,266.6849086000002,266.6388901999999,,,,,,,,,,,,,,,,,,,,,,,,,,266.6811846999999,266.6849086000002,266.6849086000002,266.6849086000002,,,,269.65474559999984,indoor,None,,,269.6596227,271.00671409999995,j,269.6711286,269.6711286,1.3332688999998936,None,,,,,,,,,,00051,001,2026-01-18_16h47.53.463,MST_task,2024.2.0,60.27411461852794,2026-01-18 16h48.04.389745 +0530,
,Objects\281a.jpg,36,0,37,,,,,,,f,2.443148299999848,0.10362259999965318,None,,,,,,37,0,36,271.02120319999995,,,,,,,,,,,,,,,,,,,,,,,271.00712620000013,271.02120319999995,271.5627537999999,271.5053845000002,,,,,,,,,,,,,,,,,,,,,,,,,,271.5597608999997,271.5627537999999,271.5627537999999,271.5627537999999,,,,274.52154729999984,indoor,f,2.443148299999848,0.10362259999965318,274.5216680000003,274.5217130000001,None,,,,,,,,,,,,,,00051,001,2026-01-18_16h47.53.463,MST_task,2024.2.0,60.27411461852794,2026-01-18 16h48.04.389745 +0530,
,Objects\377a.jpg,37,0,38,,,,,,,j,1.6545567999992272,0.14441380000062054,None,,,,,,38,0,37,274.53775640000003,,,,,,,,,,,,,,,,,,,,,,,274.5219205000003,274.53775640000003,275.0383171000003,275.0219559999996,,,,,,,,,,,,,,,,,,,,,,,,,,275.0281495999998,275.0383171000003,275.0383171000003,275.0383171000003,278.03785179999977,278.03785179999977,278.03785179999977,278.02274380000017,indoor,j,1.6545567999992272,0.14441380000062054,278.0228570999998,278.02289699999983,None,,,,,,,,,,,,,,00051,001,2026-01-18_16h47.53.463,MST_task,2024.2.0,60.27411461852794,2026-01-18 16h48.04.389745 +0530,
,Objects\292a.jpg,38,0,39,,,,,,,j,2.6271311000000424,0.09524129999954312,None,,,,,,39,0,38,278.03785179999977,,,,,,,,,,,,,,,,,,,,,,,278.0231610999999,278.03785179999977,278.5384389999999,278.52218579999953,,,,,,,,,,,,,,,,,,,,,,,,,,278.5296916999996,278.5384389999999,278.5384389999999,278.5384389999999,281.5379186,281.5379186,281.5379186,281.5229442,indoor,j,2.6271311000000424,0.09524129999954312,281.5230526999994,281.5230915000002,None,,,,,,,,,,,,,,00051,001,2026-01-18_16h47.53.463,MST_task,2024.2.0,60.27411461852794,2026-01-18 16h48.04.389745 +0530,
,Objects\338a.jpg,39,0,40,,,,,,,f,2.463366599999972,0.15975049999997282,None,,,,,,40,0,39,281.5379186,,,,,,,,,,,,,,,,,,,,,,,281.52326709999943,281.5379186,282.0380401000002,282.02279459999954,,,,,,,,,,,,,,,,,,,,,,,,,,282.03051439999945,282.0380401000002,282.0380401000002,282.0380401000002,285.0377884999998,285.0377884999998,285.0377884999998,285.0226026999999,indoor,f,2.463366599999972,0.15975049999997282,285.02271329999985,285.0227524000002,None,,,,,,,,,,,,,,00051,001,2026-01-18_16h47.53.463,MST_task,2024.2.0,60.27411461852794,2026-01-18 16h48.04.389745 +0530,
,Objects\298a.jpg,40,0,41,,,,,,,None,,,f,4.85794420000002,None,,,,41,0,40,285.0377884999998,,,,,,,,,,,,,,,,,,,,,,,285.0229314999997,285.0377884999998,285.5383960999998,285.5221959999999,,,,,,,,,,,,,,,,,,,,,,,,,,285.5284918999996,285.5383960999998,285.5383960999998,285.5383960999998,288.5389041999997,288.5389041999997,288.5389041999997,288.5225406999998,indoor,None,,,288.52263799999946,293.40643099999943,f,288.5389041999997,288.5389041999997,4.85794420000002,None,,,,,,,,,,00051,001,2026-01-18_16h47.53.463,MST_task,2024.2.0,60.27411461852794,2026-01-18 16h48.04.389745 +0530,
,Objects\231a.jpg,41,0,42,,,,,,,j,1.7962537000003067,0.09557849999964674,None,,,,,,42,0,41,293.4213829,,,,,,,,,,,,,,,,,,,,,,,293.4067736999996,293.4213829,293.9213354000003,293.90577979999944,,,,,,,,,,,,,,,,,,,,,,,,,,293.91467999999986,293.9213354000003,293.9213354000003,293.9213354000003,296.9217126000003,296.9217126000003,296.9217126000003,296.9062807,indoor,j,1.7962537000003067,0.09557849999964674,296.90646800000013,296.9065492999998,None,,,,,,,,,,,,,,00051,001,2026-01-18_16h47.53.463,MST_task,2024.2.0,60.27411461852794,2026-01-18 16h48.04.389745 +0530,
,Objects\036a.jpg,42,0,43,,,,,,,None,,,j,1.7512281999997867,None,,,,43,0,42,296.9217126000003,,,,,,,,,,,,,,,,,,,,,,,296.9068550000002,296.9217126000003,297.4214575999995,297.4056853000002,,,,,,,,,,,,,,,,,,,,,,,,,,297.41742179999983,297.4214575999995,297.4214575999995,297.4214575999995,300.42121059999954,300.42121059999954,300.42121059999954,300.4059916999995,shoe,None,,,300.4096662000002,302.18915449999986,j,300.42121059999954,300.42121059999954,1.7512281999997867,None,,,,,,,,,,00051,001,2026-01-18_16h47.53.463,MST_task,2024.2.0,60.27411461852794,2026-01-18 16h48.04.389745 +0530,
,Objects\194a.jpg,43,0,44,,,,,,,f,1.7030608999994001,0.12836300000071788,None,,,,,,44,0,43,302.2043298999997,,,,,,,,,,,,,,,,,,,,,,,302.1893965999998,302.2043298999997,302.7258942999997,302.68885260000025,,,,,,,,,,,,,,,,,,,,,,,,,,302.7229043999996,302.7258942999997,302.7258942999997,302.7258942999997,,,,305.7048249999998,shoe,f,1.7030608999994001,0.12836300000071788,305.70502680000027,305.70509870000024,None,,,,,,,,,,,,,,00051,001,2026-01-18_16h47.53.463,MST_task,2024.2.0,60.27411461852794,2026-01-18 16h48.04.389745 +0530,
,Objects\216a.jpg,44,0,45,,,,,,,f,1.502619500000037,0.12127710000004299,None,,,,,,45,0,44,305.72122750000017,,,,,,,,,,,,,,,,,,,,,,,305.70544549999977,305.72122750000017,306.22159719999945,306.2056984999999,,,,,,,,,,,,,,,,,,,,,,,,,,306.21384209999997,306.22159719999945,306.22159719999945,306.22159719999945,309.22096469999997,309.22096469999997,309.22096469999997,309.20643649999965,shoe,f,1.502619500000037,0.12127710000004299,309.2066401000002,309.20670210000026,None,,,,,,,,,,,,,,00051,001,2026-01-18_16h47.53.463,MST_task,2024.2.0,60.27411461852794,2026-01-18 16h48.04.389745 +0530,
,Objects\344a.jpg,45,0,46,,,,,,,j,1.9316513000003397,0.09537959999943268,None,,,,,,46,0,45,309.22096469999997,,,,,,,,,,,,,,,,,,,,,,,309.2068981000002,309.22096469999997,309.7218735999995,309.7057216000003,,,,,,,,,,,,,,,,,,,,,,,,,,309.7134054999997,309.7218735999995,309.7218735999995,309.7218735999995,312.72134579999965,312.72134579999965,312.72134579999965,312.7064970000001,shoe,j,1.9316513000003397,0.09537959999943268,312.7066748999996,312.7067423999997,None,,,,,,,,,,,,,,00051,001,2026-01-18_16h47.53.463,MST_task,2024.2.0,60.27411461852794,2026-01-18 16h48.04.389745 +0530,
,Objects\238a.jpg,46,0,47,,,,,,,None,,,f,0.2884457999998631,None,,,,47,0,46,312.72134579999965,,,,,,,,,,,,,,,,,,,,,,,312.70704250000017,312.72134579999965,313.2215022999999,313.2054184999997,,,,,,,,,,,,,,,,,,,,,,,,,,313.2114783999996,313.2215022999999,313.2215022999999,313.2215022999999,316.2209461000002,316.2209461000002,316.2209461000002,316.20672300000024,shoe,None,,,316.20691050000005,316.5229618000003,f,316.2209461000002,316.2209461000002,0.2884457999998631,None,,,,,,,,,,00051,001,2026-01-18_16h47.53.463,MST_task,2024.2.0,60.27411461852794,2026-01-18 16h48.04.389745 +0530,
,Objects\323a.jpg,47,0,48,,,,,,,f,2.054419100000814,0.11977289999958884,None,,,,,,48,0,47,316.53804729999956,,,,,,,,,,,,,,,,,,,,,,,316.52337069999976,316.53804729999956,317.0381970999997,317.02249289999963,,,,,,,,,,,,,,,,,,,,,,,,,,317.02903869999955,317.0381970999997,317.0381970999997,317.0381970999997,320.03876169999967,320.03876169999967,320.03876169999967,320.0232441999997,shoe,f,2.054419100000814,0.11977289999958884,320.0234375,320.02352129999963,None,,,,,,,,,,,,,,00051,001,2026-01-18_16h47.53.463,MST_task,2024.2.0,60.27411461852794,2026-01-18 16h48.04.389745 +0530,
,Objects\149a.jpg,48,0,49,,,,,,,j,1.3654693999997107,0.1355959000002258,None,,,,,,49,0,48,320.03876169999967,,,,,,,,,,,,,,,,,,,,,,,320.0238128000001,320.03876169999967,320.5591488,320.52202039999975,,,,,,,,,,,,,,,,,,,,,,,,,,320.55629339999996,320.5591488,320.5591488,320.5591488,,,,323.5382804999999,shoe,j,1.3654693999997107,0.1355959000002258,323.53846859999976,323.53851680000025,None,,,,,,,,,,,,,,00051,001,2026-01-18_16h47.53.463,MST_task,2024.2.0,60.27411461852794,2026-01-18 16h48.04.389745 +0530,
,Objects\086a.jpg,49,0,50,,,,,,,j,2.4705578999992213,0.07935650000035821,None,,,,,,50,0,49,323.5544785000002,,,,,,,,,,,,,,,,,,,,,,,323.53881920000003,323.5544785000002,324.0546994999995,324.03903119999995,,,,,,,,,,,,,,,,,,,,,,,,,,324.04694459999973,324.0546994999995,324.0546994999995,324.0546994999995,327.05451149999953,327.05451149999953,327.05451149999953,327.03971529999944,indoor,j,2.4705578999992213,0.07935650000035821,327.043267,327.04329549999966,None,,,,,,,,,,,,,,00051,001,2026-01-18_16h47.53.463,MST_task,2024.2.0,60.27411461852794,2026-01-18 16h48.04.389745 +0530,
,Objects\295a.jpg,50,0,51,,,,,,,None,,,j,4.513998499999616,None,,,,51,0,50,327.05451149999953,,,,,,,,,,,,,,,,,,,,,,,327.0434126,327.05451149999953,327.5552673000002,327.53882989999966,,,,,,,,,,,,,,,,,,,,,,,,,,327.54526650000025,327.5552673000002,327.5552673000002,327.5552673000002,330.55466400000023,330.55466400000023,330.55466400000023,330.53971099999944,indoor,None,,,330.5398771,335.0727611000002,j,330.55466400000023,330.55466400000023,4.513998499999616,None,,,,,,,,,,00051,001,2026-01-18_16h47.53.463,MST_task,2024.2.0,60.27411461852794,2026-01-18 16h48.04.389745 +0530,
,Objects\339a.jpg,51,0,52,,,,,,,j,2.251585900000464,0.0627846999996109,None,,,,,,52,0,51,335.08777519999967,,,,,,,,,,,,,,,,,,,,,,,335.0731574000001,335.08777519999967,335.5939140999999,335.5723363999996,,,,,,,,,,,,,,,,,,,,,,,,,,335.59099909999986,335.5939140999999,335.5939140999999,335.5939140999999,,,,338.58827829999973,indoor,j,2.251585900000464,0.0627846999996109,338.5884903999995,338.5885610999994,None,,,,,,,,,,,,,,00051,001,2026-01-18_16h47.53.463,MST_task,2024.2.0,60.27411461852794,2026-01-18 16h48.04.389745 +0530,
,Objects\019a.jpg,52,0,53,,,,,,,None,,,f,2.5329540000002453,None,,,,53,0,52,338.60459360000004,,,,,,,,,,,,,,,,,,,,,,,338.5888753999998,338.60459360000004,339.1049366999996,339.08882900000026,,,,,,,,,,,,,,,,,,,,,,,,,,339.0976254999996,339.1049366999996,339.1049366999996,339.1049366999996,342.1044879000001,342.1044879000001,342.1044879000001,342.0897108999998,indoor,None,,,342.08980749999955,344.6391289000003,f,342.1044879000001,342.1044879000001,2.5329540000002453,None,,,,,,,,,,00051,001,2026-01-18_16h47.53.463,MST_task,2024.2.0,60.27411461852794,2026-01-18 16h48.04.389745 +0530,
,Objects\146a.jpg,53,0,54,,,,,,,None,,,f,0.41092120000030263,None,,,,54,0,53,344.65444339999976,,,,,,,,,,,,,,,,,,,,,,,344.63938419999977,344.65444339999976,345.15455159999965,345.1386126999996,,,,,,,,,,,,,,,,,,,,,,,,,,345.14272710000023,345.15455159999965,345.15455159999965,345.15455159999965,348.15438619999986,348.15438619999986,348.15438619999986,348.13959559999967,indoor,None,,,348.13972099999955,348.5729647999997,f,348.15438619999986,348.15438619999986,0.41092120000030263,None,,,,,,,,,,00051,001,2026-01-18_16h47.53.463,MST_task,2024.2.0,60.27411461852794,2026-01-18 16h48.04.389745 +0530,
,Objects\359a.jpg,54,0,55,,,,,,,None,,,f,1.3330586000001858,None,,,,55,0,54,348.5877485000001,,,,,,,,,,,,,,,,,,,,,,,348.5732611000003,348.5877485000001,349.0882641999997,349.07227280000006,,,,,,,,,,,,,,,,,,,,,,,,,,349.0784580999998,349.0882641999997,349.0882641999997,349.0882641999997,352.08789909999996,352.08789909999996,352.08789909999996,352.0732012999997,indoor,None,,,352.07337000000007,353.42302329999984,f,352.08789909999996,352.08789909999996,1.3330586000001858,None,,,,,,,,,,00051,001,2026-01-18_16h47.53.463,MST_task,2024.2.0,60.27411461852794,2026-01-18 16h48.04.389745 +0530,
,Objects\209a.jpg,55,0,56,,,,,,,None,,,f,2.2431078999998135,None,,,,56,0,55,353.4377273,,,,,,,,,,,,,,,,,,,,,,,353.4232919999995,353.4377273,353.93813839999984,353.9219076999998,,,,,,,,,,,,,,,,,,,,,,,,,,353.92718419999983,353.93813839999984,353.93813839999984,353.93813839999984,356.9378968000001,356.9378968000001,356.9378968000001,356.9230508999999,indoor,None,,,356.9231979999995,359.18955579999965,f,356.9378968000001,356.9378968000001,2.2431078999998135,None,,,,,,,,,,00051,001,2026-01-18_16h47.53.463,MST_task,2024.2.0,60.27411461852794,2026-01-18 16h48.04.389745 +0530,
,Objects\058a.jpg,56,0,57,,,,,,,None,,,f,1.2695550999997067,None,,,,57,0,56,359.20468619999974,,,,,,,,,,,,,,,,,,,,,,,359.1899513999997,359.20468619999974,359.7047018000003,359.6884215,,,,,,,,,,,,,,,,,,,,,,,,,,359.6965202000001,359.7047018000003,359.7047018000003,359.7047018000003,362.7047255999996,362.7047255999996,362.7047255999996,362.6894236999997,shoe,None,,,362.69466269999975,363.99004049999985,f,362.7047255999996,362.7047255999996,1.2695550999997067,None,,,,,,,,,,00051,001,2026-01-18_16h47.53.463,MST_task,2024.2.0,60.27411461852794,2026-01-18 16h48.04.389745 +0530,
,Objects\147a.jpg,57,0,58,,,,,,,None,,,f,0.34018060000016703,None,,,,58,0,57,364.0048961000002,,,,,,,,,,,,,,,,,,,,,,,363.99029359999986,364.0048961000002,364.5046990999999,364.4885591000002,,,,,,,,,,,,,,,,,,,,,,,,,,364.4947065999995,364.5046990999999,364.5046990999999,364.5046990999999,367.5047304999998,367.5047304999998,367.5047304999998,367.4892891999998,shoe,None,,,367.48938219999945,367.85614480000004,f,367.5047304999998,367.5047304999998,0.34018060000016703,None,,,,,,,,,,00051,001,2026-01-18_16h47.53.463,MST_task,2024.2.0,60.27411461852794,2026-01-18 16h48.04.389745 +0530,
,Objects\305a.jpg,58,0,59,,,,,,,None,,,f,2.1625315999999657,None,,,,59,0,58,367.87102439999944,,,,,,,,,,,,,,,,,,,,,,,367.8564848999995,367.87102439999944,368.37131859999954,368.35616479999953,,,,,,,,,,,,,,,,,,,,,,,,,,368.36314289999973,368.37131859999954,368.37131859999954,368.37131859999954,371.371032,371.371032,371.371032,371.35622090000015,shoe,None,,,371.3563763000002,373.53982989999986,f,371.371032,371.371032,2.1625315999999657,None,,,,,,,,,,00051,001,2026-01-18_16h47.53.463,MST_task,2024.2.0,60.27411461852794,2026-01-18 16h48.04.389745 +0530,
,Objects\180a.jpg,59,0,60,,,,,,,None,,,j,1.2068608999998105,None,,,,60,0,59,373.55434950000017,,,,,,,,,,,,,,,,,,,,,,,373.54005529999995,373.55434950000017,374.0901673999997,374.0386043999997,,,,,,,,,,,,,,,,,,,,,,,,,,374.0870096999997,374.0901673999997,374.0901673999997,374.0901673999997,,,,377.0549509000002,shoe,None,,,377.0551042999996,378.28990280000016,j,377.07109169999967,377.07109169999967,1.2068608999998105,None,,,,,,,,,,00051,001,2026-01-18_16h47.53.463,MST_task,2024.2.0,60.27411461852794,2026-01-18 16h48.04.389745 +0530,
,Objects\221a.jpg,60,0,61,,,,,,,j,2.9357483999992837,None,None,,,,,,61,0,60,378.30454699999973,,,,,,,,,,,,,,,,,,,,,,,378.2902317999997,378.30454699999973,378.8047614999996,378.78873359999943,,,,,,,,,,,,,,,,,,,,,,,,,,378.7975838000002,378.8047614999996,378.8047614999996,378.8047614999996,381.8054425,381.8054425,381.8054425,381.7891085000001,shoe,j,2.9357483999992837,None,381.7892031000001,381.7892386000003,None,,,,,,,,,,,,,,00051,001,2026-01-18_16h47.53.463,MST_task,2024.2.0,60.27411461852794,2026-01-18 16h48.04.389745 +0530,
,Objects\276a.jpg,61,0,62,,,,,,,f,1.7161523999993733,0.12781640000048355,None,,,,,,62,0,61,381.8054425,,,,,,,,,,,,,,,,,,,,,,,381.7894046000001,381.8054425,,382.30469339999945,,,,,,,,,,,,,,,,,,,,,,,,,,382.31198289999975,382.32131169999957,382.32131169999957,382.32131169999957,,,,385.3049057999997,shoe,f,1.7161523999993733,0.12781640000048355,385.30507510000007,385.3051138999999,None,,,,,,,,,,,,,,00051,001,2026-01-18_16h47.53.463,MST_task,2024.2.0,60.27411461852794,2026-01-18 16h48.04.389745 +0530,
,Objects\023a.jpg,62,0,63,,,,,,,None,,,f,0.38345939999999246,None,,,,63,0,62,385.3212407000001,,,,,,,,,,,,,,,,,,,,,,,385.3053117999998,385.3212407000001,385.84882279999965,385.8056061999996,,,,,,,,,,,,,,,,,,,,,,,,,,385.84597080000003,385.84882279999965,385.84882279999965,385.84882279999965,,,,388.82113130000016,shoe,None,,,388.82118009999976,389.2239215999998,f,388.8376484999999,388.8376484999999,0.38345939999999246,None,,,,,,,,,,00051,001,2026-01-18_16h47.53.463,MST_task,2024.2.0,60.27411461852794,2026-01-18 16h48.04.389745 +0530,
,Objects\297a.jpg,63,0,64,,,,,,,None,,,f,0.026940100000501843,None,,,,64,0,63,389.23772949999966,,,,,,,,,,,,,,,,,,,,,,,389.22414320000007,389.23772949999966,389.7551830000002,389.7215989999995,,,,,,,,,,,,,,,,,,,,,,,,,,389.75204810000014,389.7551830000002,389.7551830000002,389.7551830000002,,,,392.7381601999996,indoor,None,,,392.7428850999995,392.7897131999998,f,392.7547595999995,392.7547595999995,0.026940100000501843,None,,,,,,,,,,00051,001,2026-01-18_16h47.53.463,MST_task,2024.2.0,60.27411461852794,2026-01-18 16h48.04.389745 +0530,
,Objects\169a.jpg,64,0,65,,,,,,,j,1.660499599999639,0.0954714999998032,None,,,,,,65,0,64,392.80465860000004,,,,,,,,,,,,,,,,,,,,,,,392.7900856999995,392.80465860000004,393.30493060000026,393.2887700000001,,,,,,,,,,,,,,,,,,,,,,,,,,393.2972768999998,393.30493060000026,393.30493060000026,393.30493060000026,396.30481619999955,396.30481619999955,396.30481619999955,396.2897465999995,indoor,j,1.660499599999639,0.0954714999998032,396.2899219000001,396.2899957999998,None,,,,,,,,,,,,,,00051,001,2026-01-18_16h47.53.463,MST_task,2024.2.0,60.27411461852794,2026-01-18 16h48.04.389745 +0530,
,Objects\184a.jpg,65,0,66,,,,,,,None,,,j,0.3207200999995621,None,,,,66,0,65,396.30481619999955,,,,,,,,,,,,,,,,,,,,,,,396.29017269999986,396.30481619999955,396.80488499999956,396.78868330000023,,,,,,,,,,,,,,,,,,,,,,,,,,396.79439600000023,396.80488499999956,396.80488499999956,396.80488499999956,399.8046506999999,399.8046506999999,399.8046506999999,399.78977119999945,indoor,None,,,399.7899408000003,400.13954509999985,j,399.8046506999999,399.8046506999999,0.3207200999995621,None,,,,,,,,,,00051,001,2026-01-18_16h47.53.463,MST_task,2024.2.0,60.27411461852794,2026-01-18 16h48.04.389745 +0530,
,Objects\187a.jpg,66,0,67,,,,,,,None,,,f,0.9748201999991579,None,,,,67,0,66,400.1544216000002,,,,,,,,,,,,,,,,,,,,,,,400.13992340000004,400.1544216000002,400.65483249999943,400.63876189999974,,,,,,,,,,,,,,,,,,,,,,,,,,400.64688659999956,400.65483249999943,400.65483249999943,400.65483249999943,403.65443419999974,403.65443419999974,403.65443419999974,403.6396592000001,indoor,None,,,403.6398143999995,404.6399709999996,f,403.65443419999974,403.65443419999974,0.9748201999991579,None,,,,,,,,,,00051,001,2026-01-18_16h47.53.463,MST_task,2024.2.0,60.27411461852794,2026-01-18 16h48.04.389745 +0530,
,Objects\155a.jpg,67,0,68,,,,,,,None,,,f,2.1466018000000986,None,,,,68,0,67,404.6545540999996,,,,,,,,,,,,,,,,,,,,,,,404.6403436999999,404.6545540999996,405.15463120000004,405.1387281999996,,,,,,,,,,,,,,,,,,,,,,,,,,405.1467143,405.15463120000004,405.15463120000004,405.15463120000004,408.1544627000003,408.1544627000003,408.1544627000003,408.1393935999995,indoor,None,,,408.13955110000006,410.30661299999974,f,408.1544627000003,408.1544627000003,2.1466018000000986,None,,,,,,,,,,00051,001,2026-01-18_16h47.53.463,MST_task,2024.2.0,60.27411461852794,2026-01-18 16h48.04.389745 +0530,
,Objects\120a.jpg,68,0,69,,,,,,,None,,,f,0.3200104999996256,None,,,,69,0,68,410.32121670000015,,,,,,,,,,,,,,,,,,,,,,,410.30686270000024,410.32121670000015,410.82152570000017,410.8055324999996,,,,,,,,,,,,,,,,,,,,,,,,,,410.81156399999963,410.82152570000017,410.82152570000017,410.82152570000017,413.8214310000003,413.8214310000003,413.8214310000003,413.8061286000002,indoor,None,,,413.8062854,414.1563600999998,f,413.8214310000003,413.8214310000003,0.3200104999996256,None,,,,,,,,,,00051,001,2026-01-18_16h47.53.463,MST_task,2024.2.0,60.27411461852794,2026-01-18 16h48.04.389745 +0530,
,Objects\093a.jpg,69,0,70,,,,,,,j,2.2775612000004912,0.09613959999933286,None,,,,,,70,0,69,414.17157339999994,,,,,,,,,,,,,,,,,,,,,,,414.1566993999995,414.17157339999994,414.67136889999983,414.6553977000003,,,,,,,,,,,,,,,,,,,,,,,,,,414.6635500000002,414.67136889999983,414.67136889999983,414.67136889999983,417.67111399999976,417.67111399999976,417.67111399999976,417.65669439999965,indoor,j,2.2775612000004912,0.09613959999933286,417.65683960000024,417.65689349999957,None,,,,,,,,,,,,,,00051,001,2026-01-18_16h47.53.463,MST_task,2024.2.0,60.27411461852794,2026-01-18 16h48.04.389745 +0530,
,Objects\309a.jpg,70,0,71,,,,,,,None,,,f,2.017447500000344,None,,,,71,0,70,417.67111399999976,,,,,,,,,,,,,,,,,,,,,,,417.65720559999954,417.67111399999976,418.1716160999995,418.15549550000014,,,,,,,,,,,,,,,,,,,,,,,,,,418.1668318000002,418.1716160999995,418.1716160999995,418.1716160999995,421.17181489999984,421.17181489999984,421.17181489999984,421.15606019999996,shoe,None,,,421.1599434,423.20653070000026,f,421.17181489999984,421.17181489999984,2.017447500000344,None,,,,,,,,,,00051,001,2026-01-18_16h47.53.463,MST_task,2024.2.0,60.27411461852794,2026-01-18 16h48.04.389745 +0530,
,Objects\125a.jpg,71,0,72,,,,,,,j,2.2038167000000612,0.09539900000072521,None,,,,,,72,0,71,423.2210597000003,,,,,,,,,,,,,,,,,,,,,,,423.2068902000001,423.2210597000003,423.72148130000005,423.7056700000003,,,,,,,,,,,,,,,,,,,,,,,,,,423.7120477999997,423.72148130000005,423.72148130000005,423.72148130000005,426.72109079999973,426.72109079999973,426.72109079999973,426.7060547000001,shoe,j,2.2038167000000612,0.09539900000072521,426.7061826999998,426.70622639999965,None,,,,,,,,,,,,,,00051,001,2026-01-18_16h47.53.463,MST_task,2024.2.0,60.27411461852794,2026-01-18 16h48.04.389745 +0530,
,Objects\329a.jpg,72,0,73,,,,,,,None,,,j,3.0244740999996793,None,,,,73,0,72,426.72109079999973,,,,,,,,,,,,,,,,,,,,,,,426.7064812999997,426.72109079999973,427.22161159999996,427.2055427999994,,,,,,,,,,,,,,,,,,,,,,,,,,427.2145971,427.22161159999996,427.22161159999996,427.22161159999996,430.2211304000002,430.2211304000002,430.2211304000002,430.2062047999998,shoe,None,,,430.20636360000026,433.2564493,j,430.2211304000002,430.2211304000002,3.0244740999996793,None,,,,,,,,,,00051,001,2026-01-18_16h47.53.463,MST_task,2024.2.0,60.27411461852794,2026-01-18 16h48.04.389745 +0530,
,Objects\079a.jpg,73,0,74,,,,,,,j,1.75246049999987,0.10506059999988793,None,,,,,,74,0,73,433.27120659999946,,,,,,,,,,,,,,,,,,,,,,,433.25695840000026,433.27120659999946,433.7718003,433.7554424,,,,,,,,,,,,,,,,,,,,,,,,,,433.76497759999984,433.7718003,433.7718003,433.7718003,436.7710992000002,436.7710992000002,436.7710992000002,436.7557944,shoe,j,1.75246049999987,0.10506059999988793,436.7559142,436.7559562999995,None,,,,,,,,,,,,,,00051,001,2026-01-18_16h47.53.463,MST_task,2024.2.0,60.27411461852794,2026-01-18 16h48.04.389745 +0530,
,Objects\249a.jpg,74,0,75,,,,,,,f,1.8665669000001799,0.11930649999976595,None,,,,,,75,0,74,436.7710992000002,,,,,,,,,,,,,,,,,,,,,,,436.75622589999966,436.7710992000002,437.30619339999976,437.25571599999967,,,,,,,,,,,,,,,,,,,,,,,,,,437.30252539999947,437.30619339999976,437.30619339999976,437.30619339999976,,,,440.27167349999945,shoe,f,1.8665669000001799,0.11930649999976595,440.2717911,440.27183799999966,None,,,,,,,,,,,,,,00051,001,2026-01-18_16h47.53.463,MST_task,2024.2.0,60.27411461852794,2026-01-18 16h48.04.389745 +0530,
,Objects\107a.jpg,75,0,76,,,,,,,j,2.9518696999994063,None,None,,,,,,76,0,75,440.2879014,,,,,,,,,,,,,,,,,,,,,,,440.27212619999955,440.2879014,440.7886540999998,440.77240840000013,,,,,,,,,,,,,,,,,,,,,,,,,,440.77993139999944,440.7886540999998,440.7886540999998,440.7886540999998,443.7877675999998,443.7877675999998,443.7877675999998,443.7729776999995,shoe,j,2.9518696999994063,None,443.77315869999984,443.7731961999998,None,,,,,,,,,,,,,,00051,001,2026-01-18_16h47.53.463,MST_task,2024.2.0,60.27411461852794,2026-01-18 16h48.04.389745 +0530,
,Objects\049a.jpg,76,0,77,,,,,,,None,,,j,1.7490404999998646,None,,,,77,0,76,443.7877675999998,,,,,,,,,,,,,,,,,,,,,,,443.7734529999998,443.7877675999998,444.2880630999998,444.27230280000003,,,,,,,,,,,,,,,,,,,,,,,,,,444.28094390000024,444.2880630999998,444.2880630999998,444.2880630999998,447.2878278999997,447.2878278999997,447.2878278999997,447.2726528000003,shoe,None,,,447.2728029,449.0400356,j,447.2878278999997,447.2878278999997,1.7490404999998646,None,,,,,,,,,,00051,001,2026-01-18_16h47.53.463,MST_task,2024.2.0,60.27411461852794,2026-01-18 16h48.04.389745 +0530,
,Objects\346a.jpg,77,0,78,,,,,,,None,,,f,1.3068306999994093,None,,,,78,0,77,449.05426720000014,,,,,,,,,,,,,,,,,,,,,,,449.04029100000025,449.05426720000014,449.5549516000001,449.5387270000001,,,,,,,,,,,,,,,,,,,,,,,,,,449.5488999999998,449.5549516000001,449.5549516000001,449.5549516000001,452.55451170000015,452.55451170000015,452.55451170000015,452.5395857000003,indoor,None,,,452.5451862,453.8731961000003,f,452.55451170000015,452.55451170000015,1.3068306999994093,None,,,,,,,,,,00051,001,2026-01-18_16h47.53.463,MST_task,2024.2.0,60.27411461852794,2026-01-18 16h48.04.389745 +0530,
,Objects\092a.jpg,78,0,79,,,,,,,j,2.857591400000274,0.10366189999967901,None,,,,,,79,0,78,453.88785689999986,,,,,,,,,,,,,,,,,,,,,,,453.8734314000003,453.88785689999986,454.3880399999998,454.37257320000026,,,,,,,,,,,,,,,,,,,,,,,,,,454.38157580000006,454.3880399999998,454.3880399999998,454.3880399999998,457.3880987000002,457.3880987000002,457.3880987000002,457.3724806,indoor,j,2.857591400000274,0.10366189999967901,457.3725654,457.3725962999997,None,,,,,,,,,,,,,,00051,001,2026-01-18_16h47.53.463,MST_task,2024.2.0,60.27411461852794,2026-01-18 16h48.04.389745 +0530,
,Objects\048a.jpg,79,0,80,,,,,,,j,1.5324486999998044,0.16076989999965008,None,,,,,,80,0,79,457.3880987000002,,,,,,,,,,,,,,,,,,,,,,,457.3727382999996,457.3880987000002,457.8880659999995,457.8722281999999,,,,,,,,,,,,,,,,,,,,,,,,,,457.8810475,457.8880659999995,457.8880659999995,457.8880659999995,460.8878265000003,460.8878265000003,460.8878265000003,460.87267599999996,indoor,j,1.5324486999998044,0.16076989999965008,460.8728682000001,460.87295300000005,None,,,,,,,,,,,,,,00051,001,2026-01-18_16h47.53.463,MST_task,2024.2.0,60.27411461852794,2026-01-18 16h48.04.389745 +0530,
,Objects\195a.jpg,80,0,81,,,,,,,None,,,j,0.7133566000002247,None,,,,81,0,80,460.8878265000003,,,,,,,,,,,,,,,,,,,,,,,460.87326849999954,460.8878265000003,461.38827560000027,461.37228909999976,,,,,,,,,,,,,,,,,,,,,,,,,,461.3796424000002,461.38827560000027,461.38827560000027,461.38827560000027,464.38809859999947,464.38809859999947,464.38809859999947,464.3727706999998,indoor,None,,,464.37288720000015,465.10620560000007,j,464.38809859999947,464.38809859999947,0.7133566000002247,None,,,,,,,,,,00051,001,2026-01-18_16h47.53.463,MST_task,2024.2.0,60.27411461852794,2026-01-18 16h48.04.389745 +0530,
,Objects\164a.jpg,81,0,82,,,,,,,None,,,j,0.9442251000000397,None,,,,82,0,81,465.1211242999998,,,,,,,,,,,,,,,,,,,,,,,465.1065435999999,465.1211242999998,465.621572,465.6054525999998,,,,,,,,,,,,,,,,,,,,,,,,,,465.6121813999998,465.621572,465.621572,465.621572,468.6211194999996,468.6211194999996,468.6211194999996,468.60588329999973,indoor,None,,,468.6059881000001,469.57319949999965,j,468.6211194999996,468.6211194999996,0.9442251000000397,None,,,,,,,,,,00051,001,2026-01-18_16h47.53.463,MST_task,2024.2.0,60.27411461852794,2026-01-18 16h48.04.389745 +0530,
,Objects\040a.jpg,82,0,83,,,,,,,None,,,f,0.6768510000001697,None,,,,83,0,82,469.5879028999998,,,,,,,,,,,,,,,,,,,,,,,469.5735728999998,469.5879028999998,470.1113696000002,470.0723740000003,,,,,,,,,,,,,,,,,,,,,,,,,,470.10820890000014,470.1113696000002,470.1113696000002,470.1113696000002,,,,473.0882204999998,indoor,None,,,473.0883367999995,473.7901535000001,f,473.1042644999998,473.1042644999998,0.6768510000001697,None,,,,,,,,,,00051,001,2026-01-18_16h47.53.463,MST_task,2024.2.0,60.27411461852794,2026-01-18 16h48.04.389745 +0530,
,Objects\293a.jpg,83,0,84,,,,,,,None,,,f,0.8764461999999185,None,,,,84,0,83,473.8044087999997,,,,,,,,,,,,,,,,,,,,,,,473.79047660000015,473.8044087999997,474.30503150000004,474.2893286999997,,,,,,,,,,,,,,,,,,,,,,,,,,474.29494890000024,474.30503150000004,474.30503150000004,474.30503150000004,477.3046975999996,477.3046975999996,477.3046975999996,477.2895437999996,indoor,None,,,477.2896221000001,478.1896631999998,f,477.3046975999996,477.3046975999996,0.8764461999999185,None,,,,,,,,,,00051,001,2026-01-18_16h47.53.463,MST_task,2024.2.0,60.27411461852794,2026-01-18 16h48.04.389745 +0530,
,Objects\118a.jpg,84,0,85,,,,,,,None,,,f,0.7244215999999142,None,,,,85,0,84,478.20449800000006,,,,,,,,,,,,,,,,,,,,,,,478.19003470000007,478.20449800000006,478.70477740000024,478.68897749999996,,,,,,,,,,,,,,,,,,,,,,,,,,478.70161929999995,478.70477740000024,478.70477740000024,478.70477740000024,481.70475720000013,481.70475720000013,481.70475720000013,481.6896109999998,shoe,None,,,481.69451260000005,482.43943339999987,f,481.70475720000013,481.70475720000013,0.7244215999999142,None,,,,,,,,,,00051,001,2026-01-18_16h47.53.463,MST_task,2024.2.0,60.27411461852794,2026-01-18 16h48.04.389745 +0530,
,Objects\235a.jpg,85,0,86,,,,,,,None,,,j,3.2750747999998566,None,,,,86,0,85,482.4543524999999,,,,,,,,,,,,,,,,,,,,,,,482.4396852,482.4543524999999,482.95484450000004,482.9388917999995,,,,,,,,,,,,,,,,,,,,,,,,,,482.9462188999996,482.95484450000004,482.95484450000004,482.95484450000004,485.9543395999999,485.9543395999999,485.9543395999999,485.93955970000025,shoe,None,,,485.93976120000025,489.23977169999944,j,485.9543395999999,485.9543395999999,3.2750747999998566,None,,,,,,,,,,00051,001,2026-01-18_16h47.53.463,MST_task,2024.2.0,60.27411461852794,2026-01-18 16h48.04.389745 +0530,
,Objects\253a.jpg,86,0,87,,,,,,,None,,,f,0.09920929999952932,None,,,,87,0,86,489.2544699,,,,,,,,,,,,,,,,,,,,,,,489.2400195,489.2544699,489.75504739999997,489.73973579999983,,,,,,,,,,,,,,,,,,,,,,,,,,489.74527359999956,489.75504739999997,489.75504739999997,489.75504739999997,492.7546395999998,492.7546395999998,492.7546395999998,492.739689,shoe,None,,,492.7398389,492.85652740000023,f,492.7546395999998,492.7546395999998,0.09920929999952932,None,,,,,,,,,,00051,001,2026-01-18_16h47.53.463,MST_task,2024.2.0,60.27411461852794,2026-01-18 16h48.04.389745 +0530,
,Objects\193a.jpg,87,0,88,,,,,,,None,,,f,0.05810079999992013,None,,,,88,0,87,492.8713373999999,,,,,,,,,,,,,,,,,,,,,,,492.85685620000004,492.8713373999999,493.37140720000025,493.3555500000002,,,,,,,,,,,,,,,,,,,,,,,,,,493.3623510999996,493.37140720000025,493.37140720000025,493.37140720000025,496.3714530999996,496.3714530999996,496.3714530999996,496.3568288999995,shoe,None,,,496.3569262000001,496.43978210000023,f,496.3714530999996,496.3714530999996,0.05810079999992013,None,,,,,,,,,,00051,001,2026-01-18_16h47.53.463,MST_task,2024.2.0,60.27411461852794,2026-01-18 16h48.04.389745 +0530,
,Objects\301a.jpg,88,0,89,,,,,,,None,,,j,1.2178293000006306,None,,,,89,0,88,496.45466039999974,,,,,,,,,,,,,,,,,,,,,,,496.4401789000003,496.45466039999974,496.9545041000001,496.9391278000003,,,,,,,,,,,,,,,,,,,,,,,,,,496.9470259999998,496.9545041000001,496.9545041000001,496.9545041000001,499.9544427999999,499.9544427999999,499.9544427999999,499.93968739999946,shoe,None,,,499.9398394,501.18927879999956,j,499.9544427999999,499.9544427999999,1.2178293000006306,None,,,,,,,,,,00051,001,2026-01-18_16h47.53.463,MST_task,2024.2.0,60.27411461852794,2026-01-18 16h48.04.389745 +0530,
,Objects\011a.jpg,89,0,90,,,,,,,None,,,f,2.1004848999991736,None,,,,90,0,89,501.2042713999999,,,,,,,,,,,,,,,,,,,,,,,501.18949539999994,501.2042713999999,501.70456099999956,501.68899969999984,,,,,,,,,,,,,,,,,,,,,,,,,,501.6955799999996,501.70456099999956,501.70456099999956,501.70456099999956,504.7043504000003,504.7043504000003,504.7043504000003,504.68966610000007,shoe,None,,,504.68986459999996,506.8065876999999,f,504.7043504000003,504.7043504000003,2.1004848999991736,None,,,,,,,,,,00051,001,2026-01-18_16h47.53.463,MST_task,2024.2.0,60.27411461852794,2026-01-18 16h48.04.389745 +0530,
,Objects\185a.jpg,90,0,91,,,,,,,None,,,f,0.5880451000002722,None,,,,91,0,90,506.8211547000001,,,,,,,,,,,,,,,,,,,,,,,506.80690009999944,506.8211547000001,507.32119369999964,507.3067295999999,,,,,,,,,,,,,,,,,,,,,,,,,,507.3135087999999,507.32119369999964,507.32119369999964,507.32119369999964,510.3211320999999,510.3211320999999,510.3211320999999,510.3061584999996,shoe,None,,,510.3063143999998,510.9232814999996,f,510.3211320999999,510.3211320999999,0.5880451000002722,None,,,,,,,,,,00051,001,2026-01-18_16h47.53.463,MST_task,2024.2.0,60.27411461852794,2026-01-18 16h48.04.389745 +0530,
,Objects\383a.jpg,91,0,92,,,,,,,None,,,f,1.639152899999317,None,,,,92,0,91,510.9377668999996,,,,,,,,,,,,,,,,,,,,,,,510.92375079999965,510.9377668999996,511.43875039999966,511.4222979999995,,,,,,,,,,,,,,,,,,,,,,,,,,511.43573409999954,511.43875039999966,511.43875039999966,511.43875039999966,514.4379460999999,514.4379460999999,514.4379460999999,514.4229802999998,indoor,None,,,514.4270002000003,516.0897568999999,f,514.4379460999999,514.4379460999999,1.639152899999317,None,,,,,,,,,,00051,001,2026-01-18_16h47.53.463,MST_task,2024.2.0,60.27411461852794,2026-01-18 16h48.04.389745 +0530,
,Objects\287a.jpg,92,0,93,,,,,,,None,,,f,1.551462000000356,None,,,,93,0,92,516.1043492999997,,,,,,,,,,,,,,,,,,,,,,,516.0901355999995,516.1043492999997,516.6048597999998,516.5892641,,,,,,,,,,,,,,,,,,,,,,,,,,516.5959426,516.6048597999998,516.6048597999998,516.6048597999998,519.6044837,519.6044837,519.6044837,519.5896485000003,indoor,None,,,519.5897427999998,521.1729452,f,519.6044837,519.6044837,1.551462000000356,None,,,,,,,,,,00051,001,2026-01-18_16h47.53.463,MST_task,2024.2.0,60.27411461852794,2026-01-18 16h48.04.389745 +0530,
,Objects\288a.jpg,93,0,94,,,,,,,f,1.5407343999995646,0.09541880000051606,None,,,,,,94,0,93,521.1879529999997,,,,,,,,,,,,,,,,,,,,,,,521.1733231999997,521.1879529999997,521.6882060999997,521.6722103000002,,,,,,,,,,,,,,,,,,,,,,,,,,521.6779446999999,521.6882060999997,521.6882060999997,521.6882060999997,524.687527,524.687527,524.687527,524.6733302000002,indoor,f,1.5407343999995646,0.09541880000051606,524.6735438999995,524.6736162999996,None,,,,,,,,,,,,,,00051,001,2026-01-18_16h47.53.463,MST_task,2024.2.0,60.27411461852794,2026-01-18 16h48.04.389745 +0530,
,Objects\206a.jpg,94,0,95,,,,,,,None,,,j,0.36861229999976786,None,,,,95,0,94,524.687527,,,,,,,,,,,,,,,,,,,,,,,524.6738816999996,524.687527,525.1882848999994,525.1723376,,,,,,,,,,,,,,,,,,,,,,,,,,525.1815191999995,525.1882848999994,525.1882848999994,525.1882848999994,528.1879130999996,528.1879130999996,528.1879130999996,528.1729112000003,indoor,None,,,528.1730048999998,528.5728963000001,j,528.1879130999996,528.1879130999996,0.36861229999976786,None,,,,,,,,,,00051,001,2026-01-18_16h47.53.463,MST_task,2024.2.0,60.27411461852794,2026-01-18 16h48.04.389745 +0530,
,Objects\043a.jpg,95,0,96,,,,,,,None,,,f,0.9560739999997168,None,,,,96,0,95,528.5878174999998,,,,,,,,,,,,,,,,,,,,,,,528.5732787999996,528.5878174999998,529.0881946,529.0725646999999,,,,,,,,,,,,,,,,,,,,,,,,,,529.0790654000002,529.0881946,529.0881946,529.0881946,532.0879993999997,532.0879993999997,532.0879993999997,532.0727435999997,indoor,None,,,532.0728481999995,533.0563872000002,f,532.0879993999997,532.0879993999997,0.9560739999997168,None,,,,,,,,,,00051,001,2026-01-18_16h47.53.463,MST_task,2024.2.0,60.27411461852794,2026-01-18 16h48.04.389745 +0530,
,Objects\156a.jpg,96,0,97,,,,,,,None,,,j,0.6416857000003802,None,,,,97,0,96,533.0712666,,,,,,,,,,,,,,,,,,,,,,,533.0567296999998,533.0712666,533.5712959000002,533.5549191999999,,,,,,,,,,,,,,,,,,,,,,,,,,533.5587753,533.5712959000002,533.5712959000002,533.5712959000002,536.5712954,536.5712954,536.5712954,536.5561226,indoor,None,,,536.5562338999998,537.2233656999997,j,536.5712954,536.5712954,0.6416857000003802,None,,,,,,,,,,00051,001,2026-01-18_16h47.53.463,MST_task,2024.2.0,60.27411461852794,2026-01-18 16h48.04.389745 +0530,
,Objects\126a.jpg,97,0,98,,,,,,,None,,,j,0.21845489999941492,None,,,,98,0,97,537.2379669000002,,,,,,,,,,,,,,,,,,,,,,,537.2236604999998,537.2379669000002,537.7381641000002,537.7222836000001,,,,,,,,,,,,,,,,,,,,,,,,,,537.7304287999996,537.7381641000002,537.7381641000002,537.7381641000002,540.7377890999996,540.7377890999996,540.7377890999996,540.7229354000001,indoor,None,,,540.7230831999996,540.9730191999997,j,540.7377890999996,540.7377890999996,0.21845489999941492,None,,,,,,,,,,00051,001,2026-01-18_16h47.53.463,MST_task,2024.2.0,60.27411461852794,2026-01-18 16h48.04.389745 +0530,
,Objects\154a.jpg,98,0,99,,,,,,,j,2.444506900000306,0.08778949999941688,None,,,,,,99,0,98,540.9879259999998,,,,,,,,,,,,,,,,,,,,,,,540.9732690999999,540.9879259999998,541.4881675999995,541.4719886000003,,,,,,,,,,,,,,,,,,,,,,,,,,541.4799653,541.4881675999995,541.4881675999995,541.4881675999995,544.4877459999998,544.4877459999998,544.4877459999998,544.4722904999999,shoe,j,2.444506900000306,0.08778949999941688,544.4752054999999,544.4752258999997,None,,,,,,,,,,,,,,00051,001,2026-01-18_16h47.53.463,MST_task,2024.2.0,60.27411461852794,2026-01-18 16h48.04.389745 +0530,
,Objects\179a.jpg,99,0,100,,,,,,,None,,,f,0.5845452000003206,None,,,,100,0,99,544.4877459999998,,,,,,,,,,,,,,,,,,,,,,,544.4753516000001,544.4877459999998,544.9920987999994,544.9722310999996,,,,,,,,,,,,,,,,,,,,,,,,,,544.9890697999999,544.9920987999994,544.9920987999994,544.9920987999994,,,,547.9879836,shoe,None,,,547.9880738000002,548.6059723999997,f,548.0043587999999,548.0043587999999,0.5845452000003206,None,,,,,,,,,,00051,001,2026-01-18_16h47.53.463,MST_task,2024.2.0,60.27411461852794,2026-01-18 16h48.04.389745 +0530,
,Objects\122a.jpg,100,0,101,,,,,,,None,,,f,0.4193552999995518,None,,,,101,0,100,548.6212502999997,,,,,,,,,,,,,,,,,,,,,,,548.6064316000002,548.6212502999997,549.1216201999996,549.1056244000001,,,,,,,,,,,,,,,,,,,,,,,,,,549.1114029,549.1216201999996,549.1216201999996,549.1216201999996,552.1211439999997,552.1211439999997,552.1211439999997,552.1057429000002,shoe,None,,,552.1058341999997,552.5562905999996,f,552.1211439999997,552.1211439999997,0.4193552999995518,None,,,,,,,,,,00051,001,2026-01-18_16h47.53.463,MST_task,2024.2.0,60.27411461852794,2026-01-18 16h48.04.389745 +0530,
,Objects\008a.jpg,101,0,102,,,,,,,None,,,f,0.8142621999995754,None,,,,102,0,101,552.5710969000002,,,,,,,,,,,,,,,,,,,,,,,552.5566426999994,552.5710969000002,553.0716887999997,553.0554144999996,,,,,,,,,,,,,,,,,,,,,,,,,,553.0609820999998,553.0716887999997,553.0716887999997,553.0716887999997,556.0710583,556.0710583,556.0710583,556.0561785999998,shoe,None,,,556.0562823999999,556.8896761999995,f,556.0710583,556.0710583,0.8142621999995754,None,,,,,,,,,,00051,001,2026-01-18_16h47.53.463,MST_task,2024.2.0,60.27411461852794,2026-01-18 16h48.04.389745 +0530,
,Objects\106a.jpg,102,0,103,,,,,,,None,,,f,0.5375921999993807,None,,,,103,0,102,556.9043204,,,,,,,,,,,,,,,,,,,,,,,556.8902172999997,556.9043204,557.4047245000002,557.3890843999998,,,,,,,,,,,,,,,,,,,,,,,,,,557.3978066,557.4047245000002,557.4047245000002,557.4047245000002,560.404254,560.404254,560.404254,560.3898867999997,shoe,None,,,560.3900365,560.9560896000003,f,560.404254,560.404254,0.5375921999993807,None,,,,,,,,,,00051,001,2026-01-18_16h47.53.463,MST_task,2024.2.0,60.27411461852794,2026-01-18 16h48.04.389745 +0530,
,Objects\161a.jpg,103,0,104,,,,,,,f,2.221769200000381,0.09642079999957787,None,,,,,,104,0,103,560.9711490999998,,,,,,,,,,,,,,,,,,,,,,,560.9564215999999,560.9711490999998,561.4714315000001,561.4556686999995,,,,,,,,,,,,,,,,,,,,,,,,,,561.4617627999996,561.4714315000001,561.4714315000001,561.4714315000001,564.4712791000002,564.4712791000002,564.4712791000002,564.4565639000002,shoe,f,2.221769200000381,0.09642079999957787,564.4566982999995,564.4567381999996,None,,,,,,,,,,,,,,00051,001,2026-01-18_16h47.53.463,MST_task,2024.2.0,60.27411461852794,2026-01-18 16h48.04.389745 +0530,
,Objects\330a.jpg,104,0,105,,,,,,,None,,,j,0.4982111999997869,None,,,,105,0,104,564.4712791000002,,,,,,,,,,,,,,,,,,,,,,,564.4569248999996,564.4712791000002,564.9714893,564.9554265999996,,,,,,,,,,,,,,,,,,,,,,,,,,564.967103,564.9714893,564.9714893,564.9714893,567.9711497999997,567.9711497999997,567.9711497999997,567.9562870999998,shoe,None,,,567.9567004,568.4726911999996,j,567.9711497999997,567.9711497999997,0.4982111999997869,None,,,,,,,,,,00051,001,2026-01-18_16h47.53.463,MST_task,2024.2.0,60.27411461852794,2026-01-18 16h48.04.389745 +0530,
,Objects\199a.jpg,105,0,106,,,,,,,j,2.2480532999998104,0.08823050000046351,None,,,,,,106,0,105,568.4886600999998,,,,,,,,,,,,,,,,,,,,,,,568.4730191999997,568.4886600999998,568.9886051000003,568.9722167999998,,,,,,,,,,,,,,,,,,,,,,,,,,568.9798877000003,568.9886051000003,568.9886051000003,568.9886051000003,571.9877469000003,571.9877469000003,571.9877469000003,571.9733791999997,indoor,j,2.2480532999998104,0.08823050000046351,571.9775828000002,571.9776353999996,None,,,,,,,,,,,,,,00051,001,2026-01-18_16h47.53.463,MST_task,2024.2.0,60.27411461852794,2026-01-18 16h48.04.389745 +0530,
,Objects\115a.jpg,106,0,107,,,,,,,None,,,f,3.260440400000334,None,,,,107,0,106,571.9877469000003,,,,,,,,,,,,,,,,,,,,,,,571.9778473999995,571.9877469000003,572.4883002999995,572.4720379999999,,,,,,,,,,,,,,,,,,,,,,,,,,572.4790303,572.4883002999995,572.4883002999995,572.4883002999995,575.4878849999996,575.4878849999996,575.4878849999996,575.4724244999998,indoor,None,,,575.4724932999998,578.7566004999999,f,575.4878849999996,575.4878849999996,3.260440400000334,None,,,,,,,,,,00051,001,2026-01-18_16h47.53.463,MST_task,2024.2.0,60.27411461852794,2026-01-18 16h48.04.389745 +0530,
,Objects\160a.jpg,107,0,108,,,,,,,None,,,j,0.5496541000002253,None,,,,108,0,107,578.7710510999996,,,,,,,,,,,,,,,,,,,,,,,578.756875,578.7710510999996,579.2713938999996,579.2557551,,,,,,,,,,,,,,,,,,,,,,,,,,579.2617500999995,579.2713938999996,579.2713938999996,579.2713938999996,582.271471,582.271471,582.271471,582.2561790999998,indoor,None,,,582.2563032999997,582.8230394000002,j,582.271471,582.271471,0.5496541000002253,None,,,,,,,,,,00051,001,2026-01-18_16h47.53.463,MST_task,2024.2.0,60.27411461852794,2026-01-18 16h48.04.389745 +0530,
,Objects\256a.jpg,108,0,109,,,,,,,None,,,j,0.29917089999980817,None,,,,109,0,108,582.8379451999999,,,,,,,,,,,,,,,,,,,,,,,582.8232798999998,582.8379451999999,583.3382151999995,583.3223510999997,,,,,,,,,,,,,,,,,,,,,,,,,,583.3280076000001,583.3382151999995,583.3382151999995,583.3382151999995,586.3377474999998,586.3377474999998,586.3377474999998,586.3232779,indoor,None,,,586.3234354999995,586.6396894999998,j,586.3377474999998,586.3377474999998,0.29917089999980817,None,,,,,,,,,,00051,001,2026-01-18_16h47.53.463,MST_task,2024.2.0,60.27411461852794,2026-01-18 16h48.04.389745 +0530,
,Objects\190a.jpg,109,0,110,,,,,,,f,2.3947346000004472,0.13592160000007425,None,,,,,,110,0,109,586.6543764999997,,,,,,,,,,,,,,,,,,,,,,,586.6399807999996,586.6543764999997,587.1775441,587.1390388,,,,,,,,,,,,,,,,,,,,,,,,,,587.1728383,587.1775441,587.1775441,587.1775441,,,,590.1548689000001,indoor,f,2.3947346000004472,0.13592160000007425,590.1550477999999,590.1551171000001,None,,,,,,,,,,,,,,00051,001,2026-01-18_16h47.53.463,MST_task,2024.2.0,60.27411461852794,2026-01-18 16h48.04.389745 +0530,
,Objects\236a.jpg,110,0,111,,,,,,,None,,,j,1.6369521000005989,None,,,,111,0,110,590.1715591000002,,,,,,,,,,,,,,,,,,,,,,,590.1554256999998,590.1715591000002,590.6719137999999,590.6556632000002,,,,,,,,,,,,,,,,,,,,,,,,,,590.6651364999998,590.6719137999999,590.6719137999999,590.6719137999999,593.6711239999995,593.6711239999995,593.6711239999995,593.6559990999995,indoor,None,,,593.6561013,595.3229282000002,j,593.6711239999995,593.6711239999995,1.6369521000005989,None,,,,,,,,,,00051,001,2026-01-18_16h47.53.463,MST_task,2024.2.0,60.27411461852794,2026-01-18 16h48.04.389745 +0530,
,Objects\360a.jpg,111,0,112,,,,,,,None,,,f,0.261833900000056,None,,,,112,0,111,595.3377687000002,,,,,,,,,,,,,,,,,,,,,,,595.3233135999999,595.3377687000002,595.8380354000001,595.8232361,,,,,,,,,,,,,,,,,,,,,,,,,,595.8309294999999,595.8380354000001,595.8380354000001,595.8380354000001,598.8389577999997,598.8389577999997,598.8389577999997,598.8224982000002,indoor,None,,,598.8226564999995,599.1065467999997,f,598.8389577999997,598.8389577999997,0.261833900000056,None,,,,,,,,,,00051,001,2026-01-18_16h47.53.463,MST_task,2024.2.0,60.27411461852794,2026-01-18 16h48.04.389745 +0530,
,Objects\275a.jpg,112,0,113,,,,,,,None,,,f,1.670327100000577,None,,,,113,0,112,599.1214207000003,,,,,,,,,,,,,,,,,,,,,,,599.1068115999997,599.1214207000003,599.6222697000003,599.6053738,,,,,,,,,,,,,,,,,,,,,,,,,,599.6187914000002,599.6222697000003,599.6222697000003,599.6222697000003,,,,602.6216082999999,shoe,None,,,602.6262197999995,604.3228352999995,f,602.6378783999999,602.6378783999999,1.670327100000577,None,,,,,,,,,,00051,001,2026-01-18_16h47.53.463,MST_task,2024.2.0,60.27411461852794,2026-01-18 16h48.04.389745 +0530,
,Objects\370a.jpg,113,0,114,,,,,,,None,,,f,3.3343564000006154,None,,,,114,0,113,604.3377177000002,,,,,,,,,,,,,,,,,,,,,,,604.3231439000001,604.3377177000002,604.8383535000003,604.8219431999996,,,,,,,,,,,,,,,,,,,,,,,,,,604.8306505999999,604.8383535000003,604.8383535000003,604.8383535000003,607.8379876999998,607.8379876999998,607.8379876999998,607.8229982000003,shoe,None,,,607.8231272000003,611.1897344999998,f,607.8379876999998,607.8379876999998,3.3343564000006154,None,,,,,,,,,,00051,001,2026-01-18_16h47.53.463,MST_task,2024.2.0,60.27411461852794,2026-01-18 16h48.04.389745 +0530,
,Objects\355a.jpg,114,0,115,,,,,,,None,,,f,0.8355981000004249,None,,,,115,0,114,611.2044498999994,,,,,,,,,,,,,,,,,,,,,,,611.1900026000003,611.2044498999994,611.7048198000002,611.6890557999996,,,,,,,,,,,,,,,,,,,,,,,,,,611.6951633999997,611.7048198000002,611.7048198000002,611.7048198000002,614.7044329,614.7044329,614.7044329,614.6897222999996,shoe,None,,,614.6898289000001,615.5565796999999,f,614.7044329,614.7044329,0.8355981000004249,None,,,,,,,,,,00051,001,2026-01-18_16h47.53.463,MST_task,2024.2.0,60.27411461852794,2026-01-18 16h48.04.389745 +0530,
,Objects\060a.jpg,115,0,116,,,,,,,None,,,j,1.036653699999988,None,,,,116,0,115,615.5711425,,,,,,,,,,,,,,,,,,,,,,,615.5569422999997,615.5711425,616.0977750000002,616.0556558999997,,,,,,,,,,,,,,,,,,,,,,,,,,616.0942706999995,616.0977750000002,616.0977750000002,616.0977750000002,,,,619.0714864000001,shoe,None,,,619.0715902000002,620.1396065999998,j,619.0878422999995,619.0878422999995,1.036653699999988,None,,,,,,,,,,00051,001,2026-01-18_16h47.53.463,MST_task,2024.2.0,60.27411461852794,2026-01-18 16h48.04.389745 +0530,
,Objects\121a.jpg,116,0,117,,,,,,,None,,,f,0.6933436999997866,None,,,,117,0,116,620.1543837999998,,,,,,,,,,,,,,,,,,,,,,,620.1398431999996,620.1543837999998,620.6547614000001,620.6388359000002,,,,,,,,,,,,,,,,,,,,,,,,,,620.6470922999997,620.6547614000001,620.6547614000001,620.6547614000001,623.6545316000002,623.6545316000002,623.6545316000002,623.6393214999998,shoe,None,,,623.6394227999999,624.3564772999998,f,623.6545316000002,623.6545316000002,0.6933436999997866,None,,,,,,,,,,00051,001,2026-01-18_16h47.53.463,MST_task,2024.2.0,60.27411461852794,2026-01-18 16h48.04.389745 +0530,
,Objects\018a.jpg,117,0,118,,,,,,,None,,,j,0.7980321999993976,None,,,,118,0,117,624.3710707,,,,,,,,,,,,,,,,,,,,,,,624.3567629999998,624.3710707,624.8715118,624.8556970999998,,,,,,,,,,,,,,,,,,,,,,,,,,624.8614762999996,624.8715118,624.8715118,624.8715118,627.8710307000001,627.8710307000001,627.8710307000001,627.8561541999998,shoe,None,,,627.8563030999994,628.6731608,j,627.8710307000001,627.8710307000001,0.7980321999993976,None,,,,,,,,,,00051,001,2026-01-18_16h47.53.463,MST_task,2024.2.0,60.27411461852794,2026-01-18 16h48.04.389745 +0530,
,Objects\088a.jpg,118,0,119,,,,,,,None,,,j,1.040765100000499,None,,,,119,0,118,628.6879712,,,,,,,,,,,,,,,,,,,,,,,628.6733845999997,628.6879712,629.1879456999995,629.1727696999997,,,,,,,,,,,,,,,,,,,,,,,,,,629.1802164000001,629.1879456999995,629.1879456999995,629.1879456999995,632.1878007999994,632.1878007999994,632.1878007999994,632.1730575000001,shoe,None,,,632.1731725999998,633.2396867999996,j,632.1878007999994,632.1878007999994,1.040765100000499,None,,,,,,,,,,00051,001,2026-01-18_16h47.53.463,MST_task,2024.2.0,60.27411461852794,2026-01-18 16h48.04.389745 +0530,
,Objects\016a.jpg,119,0,120,,,,,,,None,,,f,0.6746819999998479,None,,,,120,0,119,633.2543740000001,,,,,,,,,,,,,,,,,,,,,,,633.2402026999998,633.2543740000001,633.7545476999994,633.7389069000001,,,,,,,,,,,,,,,,,,,,,,,,,,633.7458320999995,633.7545476999994,633.7545476999994,633.7545476999994,636.7543607999996,636.7543607999996,636.7543607999996,636.7393390999996,indoor,None,,,636.7422938999998,637.4397866999998,f,636.7543607999996,636.7543607999996,0.6746819999998479,None,,,,,,,,,,00051,001,2026-01-18_16h47.53.463,MST_task,2024.2.0,60.27411461852794,2026-01-18 16h48.04.389745 +0530,
,Objects\274a.jpg,120,0,121,,,,,,,j,2.9224615000002814,None,None,,,,,,121,0,120,637.4544877999997,,,,,,,,,,,,,,,,,,,,,,,637.4400988999996,637.4544877999997,637.9546936999996,637.9391803999997,,,,,,,,,,,,,,,,,,,,,,,,,,637.9469815000002,637.9546936999996,637.9546936999996,637.9546936999996,640.9542604999997,640.9542604999997,640.9542604999997,640.9394494999997,indoor,j,2.9224615000002814,None,640.9395740999998,640.9396228999994,None,,,,,,,,,,,,,,00051,001,2026-01-18_16h47.53.463,MST_task,2024.2.0,60.27411461852794,2026-01-18 16h48.04.389745 +0530,
,Objects\211a.jpg,121,0,122,,,,,,,None,,,f,2.4786926999995558,None,,,,122,0,121,640.9542604999997,,,,,,,,,,,,,,,,,,,,,,,640.9398352999997,640.9542604999997,641.4547999999995,641.4387692,,,,,,,,,,,,,,,,,,,,,,,,,,641.4497168999997,641.4547999999995,641.4547999999995,641.4547999999995,644.4544865999997,644.4544865999997,644.4544865999997,644.4399040999997,indoor,None,,,644.4400512000002,646.9399844999998,f,644.4544865999997,644.4544865999997,2.4786926999995558,None,,,,,,,,,,00051,001,2026-01-18_16h47.53.463,MST_task,2024.2.0,60.27411461852794,2026-01-18 16h48.04.389745 +0530,
,Objects\212a.jpg,122,0,123,,,,,,,j,1.9880088999998407,0.10257040000033157,None,,,,,,123,0,122,646.9543850999999,,,,,,,,,,,,,,,,,,,,,,,646.9402356999999,646.9543850999999,647.4813574999998,647.4388669999998,,,,,,,,,,,,,,,,,,,,,,,,,,647.4784127000003,647.4813574999998,647.4813574999998,647.4813574999998,,,,650.4551421999995,indoor,j,1.9880088999998407,0.10257040000033157,650.455312,650.4553550999999,None,,,,,,,,,,,,,,00051,001,2026-01-18_16h47.53.463,MST_task,2024.2.0,60.27411461852794,2026-01-18 16h48.04.389745 +0530,
,Objects\027a.jpg,123,0,124,,,,,,,f,1.4815130999995745,0.13522760000068956,None,,,,,,124,0,123,650.4714882999997,,,,,,,,,,,,,,,,,,,,,,,650.4555503000001,650.4714882999997,650.9714893,650.9556517000001,,,,,,,,,,,,,,,,,,,,,,,,,,650.9658119999995,650.9714893,650.9714893,650.9714893,653.9711415000002,653.9711415000002,653.9711415000002,653.9563591999995,indoor,f,1.4815130999995745,0.13522760000068956,653.9565117000002,653.9565475999998,None,,,,,,,,,,,,,,00051,001,2026-01-18_16h47.53.463,MST_task,2024.2.0,60.27411461852794,2026-01-18 16h48.04.389745 +0530,
,Objects\342a.jpg,124,0,125,,,,,,,None,,,f,1.0130349000000933,None,,,,125,0,124,653.9711415000002,,,,,,,,,,,,,,,,,,,,,,,653.9567136999995,653.9711415000002,654.5020944999997,654.4553089000001,,,,,,,,,,,,,,,,,,,,,,,,,,654.4993477999997,654.5020944999997,654.5020944999997,654.5020944999997,,,,657.4718359999997,indoor,None,,,657.4719925999998,658.5062701999996,f,657.4879184000001,657.4879184000001,1.0130349000000933,None,,,,,,,,,,00051,001,2026-01-18_16h47.53.463,MST_task,2024.2.0,60.27411461852794,2026-01-18 16h48.04.389745 +0530,
,Objects\259a.jpg,125,0,126,,,,,,,j,2.600652500000251,0.13699670000005426,None,,,,,,126,0,125,658.5210889,,,,,,,,,,,,,,,,,,,,,,,658.5066672000003,658.5210889,659.0435152999999,659.0061249,,,,,,,,,,,,,,,,,,,,,,,,,,659.0406231999996,659.0435152999999,659.0435152999999,659.0435152999999,,,,662.0219148999995,indoor,j,2.600652500000251,0.13699670000005426,662.0220502000002,662.0221000000001,None,,,,,,,,,,,,,,00051,001,2026-01-18_16h47.53.463,MST_task,2024.2.0,60.27411461852794,2026-01-18 16h48.04.389745 +0530,
,Objects\264a.jpg,126,0,127,,,,,,,None,,,f,0.9470476000005874,None,,,,127,0,126,662.0377842999997,,,,,,,,,,,,,,,,,,,,,,,662.0223322000002,662.0377842999997,662.5382159000001,662.5222434999996,,,,,,,,,,,,,,,,,,,,,,,,,,662.5329222,662.5382159000001,662.5382159000001,662.5382159000001,665.5379717999995,665.5379717999995,665.5379717999995,665.5225488999995,shoe,None,,,665.5260976,666.4897892999998,f,665.5379717999995,665.5379717999995,0.9470476000005874,None,,,,,,,,,,00051,001,2026-01-18_16h47.53.463,MST_task,2024.2.0,60.27411461852794,2026-01-18 16h48.04.389745 +0530,
,Objects\250a.jpg,127,0,128,,,,,,,None,,,f,1.111168500000531,None,,,,128,0,127,666.5044995999997,,,,,,,,,,,,,,,,,,,,,,,666.4901540999999,666.5044995999997,667.0051033,666.9889057,,,,,,,,,,,,,,,,,,,,,,,,,,666.9970244999995,667.0051033,667.0051033,667.0051033,670.0048919000001,670.0048919000001,670.0048919000001,669.9896583999998,shoe,None,,,669.9898217999998,671.1228541,f,670.0048919000001,670.0048919000001,1.111168500000531,None,,,,,,,,,,00051,001,2026-01-18_16h47.53.463,MST_task,2024.2.0,60.27411461852794,2026-01-18 16h48.04.389745 +0530,
,Objects\025a.jpg,128,0,129,,,,,,,None,,,j,0.9181312000000617,None,,,,129,0,128,671.1379729,,,,,,,,,,,,,,,,,,,,,,,671.1230894999999,671.1379729,671.6384304000003,671.6222169000002,,,,,,,,,,,,,,,,,,,,,,,,,,671.6284409999998,671.6384304000003,671.6384304000003,671.6384304000003,674.6381583000002,674.6381583000002,674.6381583000002,674.6226643,shoe,None,,,674.6227751999995,675.57294,j,674.6381583000002,674.6381583000002,0.9181312000000617,None,,,,,,,,,,00051,001,2026-01-18_16h47.53.463,MST_task,2024.2.0,60.27411461852794,2026-01-18 16h48.04.389745 +0530,
,Objects\168a.jpg,129,0,130,,,,,,,None,,,j,1.5888762000004135,None,,,,130,0,129,675.5876870000002,,,,,,,,,,,,,,,,,,,,,,,675.5733965,675.5876870000002,676.0881026999996,676.0722623000001,,,,,,,,,,,,,,,,,,,,,,,,,,676.0781473999996,676.0881026999996,676.0881026999996,676.0881026999996,679.0877842999998,679.0877842999998,679.0877842999998,679.0731686999998,shoe,None,,,679.0733258999999,680.6896244999998,j,679.0877842999998,679.0877842999998,1.5888762000004135,None,,,,,,,,,,00051,001,2026-01-18_16h47.53.463,MST_task,2024.2.0,60.27411461852794,2026-01-18 16h48.04.389745 +0530,
,Objects\189a.jpg,130,0,131,,,,,,,None,,,j,0.40795669999988604,None,,,,131,0,130,680.7044570999997,,,,,,,,,,,,,,,,,,,,,,,680.6900028,680.7044570999997,681.2316625000003,681.1887503999997,,,,,,,,,,,,,,,,,,,,,,,,,,681.2291065999998,681.2316625000003,681.2316625000003,681.2316625000003,,,,684.2051106999998,shoe,None,,,684.2052648999997,684.6395522000003,j,684.2212033999995,684.2212033999995,0.40795669999988604,None,,,,,,,,,,00051,001,2026-01-18_16h47.53.463,MST_task,2024.2.0,60.27411461852794,2026-01-18 16h48.04.389745 +0530,
,Objects\200a.jpg,131,0,132,,,,,,,None,,,j,0.3463320000000749,None,,,,132,0,131,684.6545226999997,,,,,,,,,,,,,,,,,,,,,,,684.6399436000002,684.6545226999997,685.1546716000003,685.1390697999996,,,,,,,,,,,,,,,,,,,,,,,,,,685.1462313000002,685.1546716000003,685.1546716000003,685.1546716000003,688.1547896000002,688.1547896000002,688.1547896000002,688.1398582000002,shoe,None,,,688.1400101999998,688.5064384999996,j,688.1547896000002,688.1547896000002,0.3463320000000749,None,,,,,,,,,,00051,001,2026-01-18_16h47.53.463,MST_task,2024.2.0,60.27411461852794,2026-01-18 16h48.04.389745 +0530,
,Objects\310a.jpg,132,0,133,,,,,,,None,,,f,1.1759230999996362,None,,,,133,0,132,688.5211174999995,,,,,,,,,,,,,,,,,,,,,,,688.5067916999997,688.5211174999995,689.0217818000001,689.0059271999999,,,,,,,,,,,,,,,,,,,,,,,,,,689.0128555000001,689.0217818000001,689.0217818000001,689.0217818000001,692.0210855999994,692.0210855999994,692.0210855999994,692.0062167999995,shoe,None,,,692.0063375999998,693.2060399000002,f,692.0210855999994,692.0210855999994,1.1759230999996362,None,,,,,,,,,,00051,001,2026-01-18_16h47.53.463,MST_task,2024.2.0,60.27411461852794,2026-01-18 16h48.04.389745 +0530,
,Objects\056a.jpg,133,0,134,,,,,,,f,2.6264602999999624,0.11269110000012006,None,,,,,,134,0,133,693.2210735999997,,,,,,,,,,,,,,,,,,,,,,,693.2063927999998,693.2210735999997,693.7215725999995,693.7056690999998,,,,,,,,,,,,,,,,,,,,,,,,,,693.7140818999997,693.7215725999995,693.7215725999995,693.7215725999995,696.7210710999998,696.7210710999998,696.7210710999998,696.7063056999996,indoor,f,2.6264602999999624,0.11269110000012006,696.7114182999994,696.7115124000002,None,,,,,,,,,,,,,,00051,001,2026-01-18_16h47.53.463,MST_task,2024.2.0,60.27411461852794,2026-01-18 16h48.04.389745 +0530,
,Objects\129a.jpg,134,0,135,,,,,,,f,1.7421339999991687,0.11206810000021505,None,,,,,,135,0,134,696.7210710999998,,,,,,,,,,,,,,,,,,,,,,,696.7118055000001,696.7210710999998,697.2458705999998,697.2052874999999,,,,,,,,,,,,,,,,,,,,,,,,,,697.2418044999995,697.2458705999998,697.2458705999998,697.2458705999998,,,,700.2215868000003,indoor,f,1.7421339999991687,0.11206810000021505,700.2216680000001,700.221697,None,,,,,,,,,,,,,,00051,001,2026-01-18_16h47.53.463,MST_task,2024.2.0,60.27411461852794,2026-01-18 16h48.04.389745 +0530,
,Objects\165a.jpg,135,0,136,,,,,,,f,2.0964958000004117,0.1591312000000471,None,,,,,,136,0,135,700.2377584999995,,,,,,,,,,,,,,,,,,,,,,,700.2218352999998,700.2377584999995,,700.7222419999998,,,,,,,,,,,,,,,,,,,,,,,,,,700.7772771999998,700.7804925,700.7804925,700.7804925,,,,703.7225313999998,indoor,f,2.0964958000004117,0.1591312000000471,703.7227243999996,703.7227888999996,None,,,,,,,,,,,,,,00051,001,2026-01-18_16h47.53.463,MST_task,2024.2.0,60.27411461852794,2026-01-18 16h48.04.389745 +0530,
,Objects\009a.jpg,136,0,137,,,,,,,None,,,f,1.517703000000438,None,,,,137,0,136,703.7380892000001,,,,,,,,,,,,,,,,,,,,,,,703.7231147000002,703.7380892000001,704.2630688999998,704.2224114999999,,,,,,,,,,,,,,,,,,,,,,,,,,704.2598315999994,704.2630688999998,704.2630688999998,704.2630688999998,,,,707.2384519999996,indoor,None,,,707.2386194999999,708.7895496000001,f,707.2550161999998,707.2550161999998,1.517703000000438,None,,,,,,,,,,00051,001,2026-01-18_16h47.53.463,MST_task,2024.2.0,60.27411461852794,2026-01-18 16h48.04.389745 +0530,
,Objects\175a.jpg,137,0,138,,,,,,,f,2.6362115000001722,0.14346370000021125,None,,,,,,138,0,137,708.8043926999999,,,,,,,,,,,,,,,,,,,,,,,708.7898044000003,708.8043926999999,709.3047549000003,709.2889130000003,,,,,,,,,,,,,,,,,,,,,,,,,,709.2951983000003,709.3047549000003,709.3047549000003,709.3047549000003,712.3044878999999,712.3044878999999,712.3044878999999,712.2905171000002,indoor,f,2.6362115000001722,0.14346370000021125,712.2906917999999,712.2907613999996,None,,,,,,,,,,,,,,00051,001,2026-01-18_16h47.53.463,MST_task,2024.2.0,60.27411461852794,2026-01-18 16h48.04.389745 +0530,
,Objects\319a.jpg,138,0,139,,,,,,,f,1.6560364999995727,0.12714150000010704,None,,,,,,139,0,138,712.3044878999999,,,,,,,,,,,,,,,,,,,,,,,712.2910059999995,712.3044878999999,712.8051697999999,712.7889049999994,,,,,,,,,,,,,,,,,,,,,,,,,,712.7941601000002,712.8051697999999,712.8051697999999,712.8051697999999,715.8052378000002,715.8052378000002,715.8052378000002,715.7899301999996,indoor,f,1.6560364999995727,0.12714150000010704,715.7901088999997,715.7901769999999,None,,,,,,,,,,,,,,00051,001,2026-01-18_16h47.53.463,MST_task,2024.2.0,60.27411461852794,2026-01-18 16h48.04.389745 +0530,
,Objects\286a.jpg,139,0,140,,,,,,,None,,,f,0.8274977000000945,None,,,,140,0,139,715.8052378000002,,,,,,,,,,,,,,,,,,,,,,,715.7904220999999,715.8052378000002,716.3051734000001,716.2888236999997,,,,,,,,,,,,,,,,,,,,,,,,,,716.2937520999994,716.3051734000001,716.3051734000001,716.3051734000001,719.3050979,719.3050979,719.3050979,719.2890786999997,indoor,None,,,719.2891718000001,720.1398165,f,719.3050979,719.3050979,0.8274977000000945,None,,,,,,,,,,00051,001,2026-01-18_16h47.53.463,MST_task,2024.2.0,60.27411461852794,2026-01-18 16h48.04.389745 +0530,
,Objects\258a.jpg,140,0,141,,,,,,,None,,,j,0.9095884999996997,None,,,,141,0,140,720.1546578999996,,,,,,,,,,,,,,,,,,,,,,,720.1400404999995,720.1546578999996,720.6550064000003,720.6389856999995,,,,,,,,,,,,,,,,,,,,,,,,,,720.6503077999996,720.6550064000003,720.6550064000003,720.6550064000003,723.6554508999998,723.6554508999998,723.6554508999998,723.6397912000002,shoe,None,,,723.6451801000003,724.5727947999994,j,723.6554508999998,723.6554508999998,0.9095884999996997,None,,,,,,,,,,00051,001,2026-01-18_16h47.53.463,MST_task,2024.2.0,60.27411461852794,2026-01-18 16h48.04.389745 +0530,
,Objects\065a.jpg,141,0,142,,,,,,,None,,,j,2.134057899999789,None,,,,142,0,141,724.5878056000001,,,,,,,,,,,,,,,,,,,,,,,724.5730304999997,724.5878056000001,725.0882839999995,725.0720037000001,,,,,,,,,,,,,,,,,,,,,,,,,,725.0812842999994,725.0882839999995,725.0882839999995,725.0882839999995,728.0877859000002,728.0877859000002,728.0877859000002,728.0729536999997,shoe,None,,,728.0731027000002,730.2237956999998,j,728.0877859000002,728.0877859000002,2.134057899999789,None,,,,,,,,,,00051,001,2026-01-18_16h47.53.463,MST_task,2024.2.0,60.27411461852794,2026-01-18 16h48.04.389745 +0530,
,Objects\358a.jpg,142,0,143,,,,,,,None,,,j,1.291334100000313,None,,,,143,0,142,730.2377243999999,,,,,,,,,,,,,,,,,,,,,,,730.2241168,730.2377243999999,730.7385279,730.7221965999997,,,,,,,,,,,,,,,,,,,,,,,,,,730.7305823999995,730.7385279,730.7385279,730.7385279,733.7378533000001,733.7378533000001,733.7378533000001,733.7228617999999,shoe,None,,,733.7230086,735.0395022000002,j,733.7378533000001,733.7378533000001,1.291334100000313,None,,,,,,,,,,00051,001,2026-01-18_16h47.53.463,MST_task,2024.2.0,60.27411461852794,2026-01-18 16h48.04.389745 +0530,
,Objects\239a.jpg,143,0,144,,,,,,,f,1.7535694000007425,0.11159029999998893,None,,,,,,144,0,143,735.0545504000002,,,,,,,,,,,,,,,,,,,,,,,735.0397856,735.0545504000002,735.5549013999998,735.5389537000001,,,,,,,,,,,,,,,,,,,,,,,,,,735.5472558000001,735.5549013999998,735.5549013999998,735.5549013999998,738.5545723999994,738.5545723999994,738.5545723999994,738.5398042999996,shoe,f,1.7535694000007425,0.11159029999998893,738.5399796000002,738.5400558000001,None,,,,,,,,,,,,,,00051,001,2026-01-18_16h47.53.463,MST_task,2024.2.0,60.27411461852794,2026-01-18 16h48.04.389745 +0530,
,Objects\075a.jpg,144,0,145,,,,,,,f,1.7579642000000604,0.08879330000036134,None,,,,,,145,0,144,738.5545723999994,,,,,,,,,,,,,,,,,,,,,,,738.5402293999996,738.5545723999994,739.0549730000002,739.0388794999999,,,,,,,,,,,,,,,,,,,,,,,,,,739.0460284000001,739.0549730000002,739.0549730000002,739.0549730000002,742.0549171000002,742.0549171000002,742.0549171000002,742.0393314000003,shoe,f,1.7579642000000604,0.08879330000036134,742.0395661000002,742.0396375999999,None,,,,,,,,,,,,,,00051,001,2026-01-18_16h47.53.463,MST_task,2024.2.0,60.27411461852794,2026-01-18 16h48.04.389745 +0530,
,Objects\159a.jpg,145,0,146,,,,,,,f,1.1309019000000262,0.16741900000033638,None,,,,,,146,0,145,742.0549171000002,,,,,,,,,,,,,,,,,,,,,,,742.0400658999997,742.0549171000002,742.5545352999998,742.5390851000002,,,,,,,,,,,,,,,,,,,,,,,,,,742.5475356999996,742.5545352999998,742.5545352999998,742.5545352999998,745.5545678999997,745.5545678999997,745.5545678999997,745.5388799000002,shoe,f,1.1309019000000262,0.16741900000033638,745.5389354999998,745.538955,None,,,,,,,,,,,,,,00051,001,2026-01-18_16h47.53.463,MST_task,2024.2.0,60.27411461852794,2026-01-18 16h48.04.389745 +0530,
,Objects\001a.jpg,146,0,147,,,,,,,f,1.7852171999993516,0.15982720000010886,None,,,,,,147,0,146,745.5545678999997,,,,,,,,,,,,,,,,,,,,,,,745.5390864999999,745.5545678999997,746.0832511999997,746.0387934999999,,,,,,,,,,,,,,,,,,,,,,,,,,746.0801215000001,746.0832511999997,746.0832511999997,746.0832511999997,,,,749.0550875999998,shoe,f,1.7852171999993516,0.15982720000010886,749.0552613,749.0553307999999,None,,,,,,,,,,,,,,00051,001,2026-01-18_16h47.53.463,MST_task,2024.2.0,60.27411461852794,2026-01-18 16h48.04.389745 +0530,
,Objects\173a.jpg,147,0,148,,,,,,,f,1.9405201999998098,0.12044710000009218,None,,,,,,148,0,147,749.0714382999995,,,,,,,,,,,,,,,,,,,,,,,749.0555802999997,749.0714382999995,749.5996872999995,749.5558689999998,,,,,,,,,,,,,,,,,,,,,,,,,,749.5967832999995,749.5996872999995,749.5996872999995,749.5996872999995,,,,752.5713645999995,indoor,f,1.9405201999998098,0.12044710000009218,752.5766463999998,752.5767071999999,None,,,,,,,,,,,,,,00051,001,2026-01-18_16h47.53.463,MST_task,2024.2.0,60.27411461852794,2026-01-18 16h48.04.389745 +0530,
,Objects\322a.jpg,148,0,149,,,,,,,None,,,f,1.2603821000002426,None,,,,149,0,148,752.5877079000002,,,,,,,,,,,,,,,,,,,,,,,752.5769653999996,752.5877079000002,753.0882340999997,753.0732226,,,,,,,,,,,,,,,,,,,,,,,,,,753.0824397999995,753.0882340999997,753.0882340999997,753.0882340999997,756.0877719999999,756.0877719999999,756.0877719999999,756.0732662,indoor,None,,,756.0733761000001,757.3560749999997,f,756.0877719999999,756.0877719999999,1.2603821000002426,None,,,,,,,,,,00051,001,2026-01-18_16h47.53.463,MST_task,2024.2.0,60.27411461852794,2026-01-18 16h48.04.389745 +0530,
,Objects\087a.jpg,149,0,150,,,,,,,j,1.8606896000001143,0.10339990000011312,None,,,,,,150,0,149,757.3719277999999,,,,,,,,,,,,,,,,,,,,,,,757.3562912999996,757.3719277999999,757.8717348999999,757.8555789000002,,,,,,,,,,,,,,,,,,,,,,,,,,757.8642359999994,757.8717348999999,757.8717348999999,757.8717348999999,760.8711650999994,760.8711650999994,760.8711650999994,760.8573606999998,indoor,j,1.8606896000001143,0.10339990000011312,760.857505,760.8575571000001,None,,,,,,,,,,,,,,00051,001,2026-01-18_16h47.53.463,MST_task,2024.2.0,60.27411461852794,2026-01-18 16h48.04.389745 +0530,
,Objects\300a.jpg,150,0,151,,,,,,,f,1.4163385000001654,0.14527910000015254,None,,,,,,151,0,150,760.8711650999994,,,,,,,,,,,,,,,,,,,,,,,760.8577544,760.8711650999994,761.3717657999996,761.3560603999995,,,,,,,,,,,,,,,,,,,,,,,,,,761.3663926999998,761.3717657999996,761.3717657999996,761.3717657999996,764.3707659000002,764.3707659000002,764.3707659000002,764.3557295999999,indoor,f,1.4163385000001654,0.14527910000015254,764.3558813999998,764.3559371000001,None,,,,,,,,,,,,,,00051,001,2026-01-18_16h47.53.463,MST_task,2024.2.0,60.27411461852794,2026-01-18 16h48.04.389745 +0530,
,Objects\152a.jpg,151,0,152,,,,,,,f,2.5970704000001206,0.13507680000020628,None,,,,,,152,0,151,764.3707659000002,,,,,,,,,,,,,,,,,,,,,,,764.3562055000002,764.3707659000002,764.8718354000002,764.8564734000001,,,,,,,,,,,,,,,,,,,,,,,,,,764.8655845000003,764.8718354000002,764.8718354000002,764.8718354000002,767.8708915999996,767.8708915999996,767.8708915999996,767.8559838000001,indoor,f,2.5970704000001206,0.13507680000020628,767.8560422,767.8560609999995,None,,,,,,,,,,,,,,00051,001,2026-01-18_16h47.53.463,MST_task,2024.2.0,60.27411461852794,2026-01-18 16h48.04.389745 +0530,
,Objects\081a.jpg,152,0,153,,,,,,,j,2.50472020000052,0.09562689999984286,None,,,,,,153,0,152,767.8708915999996,,,,,,,,,,,,,,,,,,,,,,,767.8561571999999,767.8708915999996,768.3717169000001,768.3556388999996,,,,,,,,,,,,,,,,,,,,,,,,,,768.3629592999996,768.3717169000001,768.3717169000001,768.3717169000001,771.3710406999999,771.3710406999999,771.3710406999999,771.3560184999997,indoor,j,2.50472020000052,0.09562689999984286,771.3561254999995,771.3561880999996,None,,,,,,,,,,,,,,00051,001,2026-01-18_16h47.53.463,MST_task,2024.2.0,60.27411461852794,2026-01-18 16h48.04.389745 +0530,
,Objects\217a.jpg,153,0,154,,,,,,,f,2.8361478000006173,0.11287439999978233,None,,,,,,154,0,153,771.3710406999999,,,,,,,,,,,,,,,,,,,,,,,771.3564920999997,771.3710406999999,771.8716594999996,771.8554378999997,,,,,,,,,,,,,,,,,,,,,,,,,,771.8640806000003,771.8716594999996,771.8716594999996,771.8716594999996,774.8713269,774.8713269,774.8713269,774.8560921999997,indoor,f,2.8361478000006173,0.11287439999978233,774.8562272999998,774.8562775999999,None,,,,,,,,,,,,,,00051,001,2026-01-18_16h47.53.463,MST_task,2024.2.0,60.27411461852794,2026-01-18 16h48.04.389745 +0530,
,Objects\070a.jpg,154,0,155,,,,,,,f,1.8133090999999695,0.13735600000018167,None,,,,,,155,0,154,774.8713269,,,,,,,,,,,,,,,,,,,,,,,774.8565035000001,774.8713269,775.4149163000002,775.3558661999996,,,,,,,,,,,,,,,,,,,,,,,,,,775.4113378000002,775.4149163000002,775.4149163000002,775.4149163000002,,,,778.3719329999994,shoe,f,1.8133090999999695,0.13735600000018167,778.3768590999998,778.3769136000001,None,,,,,,,,,,,,,,00051,001,2026-01-18_16h47.53.463,MST_task,2024.2.0,60.27411461852794,2026-01-18 16h48.04.389745 +0530,
,Objects\331a.jpg,155,0,156,,,,,,,j,2.2394759999997405,0.11154249999981403,None,,,,,,156,0,155,778.3879906000002,,,,,,,,,,,,,,,,,,,,,,,778.3771213,778.3879906000002,778.9014766,778.8722600000001,,,,,,,,,,,,,,,,,,,,,,,,,,778.8965029000001,778.9014766,778.9014766,778.9014766,,,,781.8889397000003,shoe,j,2.2394759999997405,0.11154249999981403,781.8890893999996,781.8891367999995,None,,,,,,,,,,,,,,00051,001,2026-01-18_16h47.53.463,MST_task,2024.2.0,60.27411461852794,2026-01-18 16h48.04.389745 +0530,
,Objects\112a.jpg,156,0,157,,,,,,,f,1.4158517999994729,0.11995160000060423,None,,,,,,157,0,156,781.9046309999994,,,,,,,,,,,,,,,,,,,,,,,781.8893421000002,781.9046309999994,782.4049495999998,782.3892390000001,,,,,,,,,,,,,,,,,,,,,,,,,,782.3978559999996,782.4049495999998,782.4049495999998,782.4049495999998,785.4043829000002,785.4043829000002,785.4043829000002,785.3894639,shoe,f,1.4158517999994729,0.11995160000060423,785.3896169999998,785.3896743999994,None,,,,,,,,,,,,,,00051,001,2026-01-18_16h47.53.463,MST_task,2024.2.0,60.27411461852794,2026-01-18 16h48.04.389745 +0530,
,Objects\251a.jpg,157,0,158,,,,,,,f,1.26689609999994,0.12109599999985221,None,,,,,,158,0,157,785.4043829000002,,,,,,,,,,,,,,,,,,,,,,,785.3899826999996,785.4043829000002,785.9049730999996,785.8888799999995,,,,,,,,,,,,,,,,,,,,,,,,,,785.8943282,785.9049730999996,785.9049730999996,785.9049730999996,788.9046487999994,788.9046487999994,788.9046487999994,788.8894792000001,shoe,f,1.26689609999994,0.12109599999985221,788.8896419000002,788.8897056999995,None,,,,,,,,,,,,,,00051,001,2026-01-18_16h47.53.463,MST_task,2024.2.0,60.27411461852794,2026-01-18 16h48.04.389745 +0530,
,Objects\255a.jpg,158,0,159,,,,,,,f,2.265035999999782,0.16712170000027982,None,,,,,,159,0,158,788.9046487999994,,,,,,,,,,,,,,,,,,,,,,,788.8899118999998,788.9046487999994,789.4047638000002,789.3890174999997,,,,,,,,,,,,,,,,,,,,,,,,,,789.3954426,789.4047638000002,789.4047638000002,789.4047638000002,792.4042754000002,792.4042754000002,792.4042754000002,792.3893946999997,shoe,f,2.265035999999782,0.16712170000027982,792.3895689000001,792.3896356999994,None,,,,,,,,,,,,,,00051,001,2026-01-18_16h47.53.463,MST_task,2024.2.0,60.27411461852794,2026-01-18 16h48.04.389745 +0530,
,Objects\289a.jpg,159,0,160,,,,,,,f,2.5476231999991796,0.12741900000037276,None,,,,,,160,0,159,792.4042754000002,,,,,,,,,,,,,,,,,,,,,,,792.3898896999999,792.4042754000002,792.9053852999996,792.8886710999996,,,,,,,,,,,,,,,,,,,,,,,,,,792.8948055999999,792.9053852999996,792.9053852999996,792.9053852999996,795.9045472999996,795.9045472999996,795.9045472999996,795.8893920999999,shoe,f,2.5476231999991796,0.12741900000037276,795.8895688000002,795.8896370000002,None,,,,,,,,,,,,,,00051,001,2026-01-18_16h47.53.463,MST_task,2024.2.0,60.27411461852794,2026-01-18 16h48.04.389745 +0530,
,Objects\166a.jpg,160,0,161,,,,,,,f,1.9996296999997867,0.1285330000000613,None,,,,,,161,0,160,795.9045472999996,,,,,,,,,,,,,,,,,,,,,,,795.8899396999996,795.9045472999996,796.4049061999995,796.3889718999999,,,,,,,,,,,,,,,,,,,,,,,,,,796.3955919,796.4049061999995,796.4049061999995,796.4049061999995,799.4046671999995,799.4046671999995,799.4046671999995,799.3894244000003,shoe,f,1.9996296999997867,0.1285330000000613,799.3895630999996,799.3896050000003,None,,,,,,,,,,,,,,00051,001,2026-01-18_16h47.53.463,MST_task,2024.2.0,60.27411461852794,2026-01-18 16h48.04.389745 +0530,
