Sl_no,image_path,thisN,thisTrialN,thisRepN,key_resp_5.keys,key_resp_5.rt,key_resp_5.duration,key_resp_7.keys,key_resp_7.rt,key_resp_7.duration,key_resp_9.keys,key_resp_9.rt,key_resp_9.duration,key_resp_8.keys,key_resp_8.rt,key_resp_8.duration,practice.thisRepN,practice.thisTrialN,practice.thisN,trials.thisRepN,trials.thisTrialN,trials.thisN,thisRow.t,notes,welcome_page.started,text.started,key_resp.started,welcome_page.stopped,key_resp.keys,key_resp.rt,key_resp.duration,instructions.started,ins.started,key_resp_2.started,instructions.stopped,key_resp_2.keys,key_resp_2.rt,key_resp_2.duration,objects_only_instruction.started,text_3.started,key_resp_3.started,objects_only_instruction.stopped,key_resp_3.keys,key_resp_3.rt,key_resp_3.duration,ISI.started,text_4.started,ISI.stopped,practice_block.started,image.started,key_resp_5.started,text_5.started,practice_block.stopped,practice.key_resp_5.keys,practice.key_resp_5.rt,practice.key_resp_5.duration,indoor_outdoor.started,indoor_outdoor.stopped,practice.key_resp_7.keys,text_4.stopped,text_7.started,key_resp_7.started,practice.key_resp_7.rt,practice.key_resp_7.duration,practice_to_main.started,text_2.started,key_resp_4.started,practice_to_main.stopped,key_resp_4.keys,key_resp_4.rt,key_resp_4.duration,objects.started,image_2.started,text_9.started,key_resp_9.started,objects.stopped,category,trials.key_resp_9.keys,trials.key_resp_9.rt,trials.key_resp_9.duration,encoding_task.started,encoding_task.stopped,trials.key_resp_8.keys,image_2.stopped,text_9.stopped,key_resp_9.stopped,text_8.started,key_resp_8.started,trials.key_resp_8.rt,trials.key_resp_8.duration,end_experiment.started,text_6.started,key_resp_6.started,end_experiment.stopped,key_resp_6.keys,key_resp_6.rt,key_resp_6.duration,list_of_stimuli,encoding_task_accuracy,participant,session,date,expName,psychopyVersion,frameRate,expStart,
,,,,,,,,,,,,,,,,,,,,,,,,,0.001182100000050923,0.003866600000037579,0.003866600000037579,24.351257399999895,space,24.28027189999989,None,,,,,,,,,,,,,,,,,,,,,,,,,,,,,,,,,,,,,,,,,,,,,,,,,,,,,,,,,,,,,,,,,,,,,00050,001,2026-01-18_16h12.54.357,MST_task,2024.2.0,59.8600233215135,2026-01-18 16h13.04.481071 +0530,
,,,,,,,,,,,,,,,,,,,,,,,,,,,,,,,,24.351321599999892,24.365295099999912,24.365295099999912,51.509719299999915,space,27.14188090000016,None,,,,,,,,,,,,,,,,,,,,,,,,,,,,,,,,,,,,,,,,,,,,,,,,,,,,,,,,,,,,,,00050,001,2026-01-18_16h12.54.357,MST_task,2024.2.0,59.8600233215135,2026-01-18 16h13.04.481071 +0530,
,,,,,,,,,,,,,,,,,,,,,,,,,,,,,,,,,,,,,,,51.509809599999926,51.528151999999864,51.528151999999864,87.34197189999986,space,35.811594099999866,None,,,,,,,,,,,,,,,,,,,,,,,,,,,,,,,,,,,,,,,,,,,,,,,,,,,,,,,00050,001,2026-01-18_16h12.54.357,MST_task,2024.2.0,59.8600233215135,2026-01-18 16h13.04.481071 +0530,
4,practice_images/002b.jpg,0,0,1,f,2.713600300000053,0.07993450000003577,None,,,,,,,,,1,0,0,,,,87.37606660000006,,,,,,,,,,,,,,,,,,,,,,,87.3731037,87.37606660000006,87.85723170000006,87.90623619999997,87.9384705,87.9384705,87.9384705,90.85740310000006,f,2.713600300000053,0.07993450000003577,90.86021770000002,90.86025679999989,None,,,,,,,,,,,,,,,,,,,,,,,,,,,,,,,,,,,,,,,,,00050,001,2026-01-18_16h12.54.357,MST_task,2024.2.0,59.8600233215135,2026-01-18 16h13.04.481071 +0530,
9,practice_images/180a.jpg,1,1,1,f,1.9125910000000204,0.07189180000000306,None,,,,,,,,,1,1,1,,,,90.87346129999992,,,,,,,,,,,,,,,,,,,,,,,90.86035419999985,90.87346129999992,91.35753439999985,91.40050120000001,91.40338799999995,91.40338799999995,91.40338799999995,94.37409959999991,f,1.9125910000000204,0.07189180000000306,94.37422049999986,94.37427099999991,None,91.40338799999995,,,,,,,,,,,,,,,,,,,,,,,,,,,,,,,,,,,,,,,,00050,001,2026-01-18_16h12.54.357,MST_task,2024.2.0,59.8600233215135,2026-01-18 16h13.04.481071 +0530,
1,practice_images/013a.jpg,2,2,1,j,2.6072967000000062,0.3121123000000807,None,,,,,,,,,1,2,2,,,,94.39029289999985,,,,,,,,,,,,,,,,,,,,,,,94.3745019999999,94.39029289999985,94.87451080000005,94.91215399999987,94.91567759999998,94.91567759999998,94.91567759999998,97.89068159999988,j,2.6072967000000062,0.3121123000000807,97.89083089999986,97.89089960000001,None,94.91567759999998,,,,,,,,,,,,,,,,,,,,,,,,,,,,,,,,,,,,,,,,00050,001,2026-01-18_16h12.54.357,MST_task,2024.2.0,59.8600233215135,2026-01-18 16h13.04.481071 +0530,
5,practice_images/139a.jpg,3,3,1,f,2.2426220000002104,0.30303989999993064,None,,,,,,,,,1,3,3,,,,97.9068757,,,,,,,,,,,,,,,,,,,,,,,97.89122240000006,97.9068757,98.39141289999998,98.49396939999997,98.49719099999993,98.49719099999993,98.49719099999993,101.40738229999988,f,2.2426220000002104,0.30303989999993064,101.40753410000002,101.40760249999994,None,98.49719099999993,,,,,,,,,,,,,,,,,,,,,,,,,,,,,,,,,,,,,,,,00050,001,2026-01-18_16h12.54.357,MST_task,2024.2.0,59.8600233215135,2026-01-18 16h13.04.481071 +0530,
3,practice_images/037a.jpg,4,4,1,f,1.396032200000036,0.24014549999992596,None,,,,,,,,,1,4,4,,,,101.4237048,,,,,,,,,,,,,,,,,,,,,,,101.40790889999994,101.4237048,101.90805350000005,101.93188369999984,101.93568219999997,101.93568219999997,101.93568219999997,104.92392489999997,f,1.396032200000036,0.24014549999992596,104.92407099999991,104.92409449999991,None,101.93568219999997,,,,,,,,,,,,,,,,,,,,,,,,,,,,,,,,,,,,,,,,00050,001,2026-01-18_16h12.54.357,MST_task,2024.2.0,59.8600233215135,2026-01-18 16h13.04.481071 +0530,
2,practice_images/031a.jpg,5,5,1,f,2.684926099999984,0.16817569999989246,None,,,,,,,,,1,5,5,,,,104.9402599,,,,,,,,,,,,,,,,,,,,,,,104.92420560000005,104.9402599,105.42480320000004,105.46809889999986,105.47048219999988,105.47048219999988,105.47048219999988,108.44065299999988,f,2.684926099999984,0.16817569999989246,108.44490789999986,108.44494080000004,None,105.47048219999988,,,,,,,,,,,,,,,,,,,,,,,,,,,,,,,,,,,,,,,,00050,001,2026-01-18_16h12.54.357,MST_task,2024.2.0,59.8600233215135,2026-01-18 16h13.04.481071 +0530,
10,practice_images/182a.jpg,6,6,1,f,1.3905388999999104,0.1432667000001402,None,,,,,,,,,1,6,6,,,,108.45691729999999,,,,,,,,,,,,,,,,,,,,,,,108.44506899999988,108.45691729999999,108.94139840000003,108.97077709999985,108.97331799999984,108.97331799999984,108.97331799999984,111.95719919999988,f,1.3905388999999104,0.1432667000001402,111.95735919999993,111.95740139999998,None,108.97331799999984,,,,,,,,,,,,,,,,,,,,,,,,,,,,,,,,,,,,,,,,00050,001,2026-01-18_16h12.54.357,MST_task,2024.2.0,59.8600233215135,2026-01-18 16h13.04.481071 +0530,
7,practice_images/166a.jpg,7,7,1,None,,,f,0.46531419999996615,None,,,,,,,1,7,7,,,,111.97360389999994,,,,,,,,,,,,,,,,,,,,,,,111.9575946,111.97360389999994,112.45794789999991,112.49969599999986,112.50284910000005,112.50284910000005,112.50284910000005,115.47410979999995,None,,,115.47422189999997,115.95860739999989,f,112.50284910000005,115.49033250000002,115.49033250000002,0.46531419999996615,None,,,,,,,,,,,,,,,,,,,,,,,,,,,,,,,,,,,,00050,001,2026-01-18_16h12.54.357,MST_task,2024.2.0,59.8600233215135,2026-01-18 16h13.04.481071 +0530,
6,practice_images/158a.jpg,8,8,1,j,1.164162000000033,0.28775420000010854,None,,,,,,,,,1,8,8,,,,115.97419169999989,,,,,,,,,,,,,,,,,,,,,,,115.95897590000004,115.97419169999989,116.45792439999991,116.50856799999997,116.51176069999997,116.51176069999997,116.51176069999997,119.47388479999995,j,1.164162000000033,0.28775420000010854,119.47399029999997,119.47403439999994,None,116.51176069999997,,,,,,,,,,,,,,,,,,,,,,,,,,,,,,,,,,,,,,,,00050,001,2026-01-18_16h12.54.357,MST_task,2024.2.0,59.8600233215135,2026-01-18 16h13.04.481071 +0530,
8,practice_images/178a.jpg,9,9,1,f,1.1258852000000843,0.1603982999999971,None,,,,,,,,,1,9,9,,,,119.49027230000002,,,,,,,,,,,,,,,,,,,,,,,119.47422940000001,119.49027230000002,119.97459779999986,120.01024229999985,120.01354429999992,120.01354429999992,120.01354429999992,122.99102389999985,f,1.1258852000000843,0.1603982999999971,122.99109750000002,122.99111689999995,None,120.01354429999992,,,,,,,,,,,,,,,,,,,,,,,,,,,,,,,,,,,,,,,,00050,001,2026-01-18_16h12.54.357,MST_task,2024.2.0,59.8600233215135,2026-01-18 16h13.04.481071 +0530,
,,,,,,,,,,,,,,,,,,,,,,,,,,,,,,,,,,,,,,,,,,,,,,,,,,,,,,,,,,,,,,,,,122.99119309999992,123.0068417,123.0068417,129.05879189999996,space,6.0372606000000815,None,,,,,,,,,,,,,,,,,,,,,,,,,,,,,00050,001,2026-01-18_16h12.54.357,MST_task,2024.2.0,59.8600233215135,2026-01-18 16h13.04.481071 +0530,
,Objects\228a.jpg,0,0,1,,,,,,,f,2.1047490000000835,0.16869869999982257,None,,,,,,1,0,0,129.0736291999999,,,,,,,,,,,,,,,,,,,,,,,129.06112910000002,129.0736291999999,129.55789489999984,,,,,,,,,,,,129.6024003,,,,,,,,,,,,129.5986544,129.6024003,129.6024003,129.6024003,132.57422329999986,indoor,f,2.1047490000000835,0.16869869999982257,132.57915009999988,132.5792088999999,None,,,,,,,,,,,,,,,,,00050,001,2026-01-18_16h12.54.357,MST_task,2024.2.0,59.8600233215135,2026-01-18 16h13.04.481071 +0530,
,Objects\077a.jpg,1,0,2,,,,,,,j,1.621051399999942,0.14362800000003517,None,,,,,,2,0,1,132.59019669999998,,,,,,,,,,,,,,,,,,,,,,,132.57946079999988,132.59019669999998,133.07509649999997,,,,,,,,,,,,133.11037399999987,,,,,,,,,,,,133.10734639999987,133.11037399999987,133.11037399999987,133.11037399999987,136.09088339999994,indoor,j,1.621051399999942,0.14362800000003517,136.0909987,136.09104119999984,None,,,,,,,,,,,,,,,,,00050,001,2026-01-18_16h12.54.357,MST_task,2024.2.0,59.8600233215135,2026-01-18 16h13.04.481071 +0530,
,Objects\333a.jpg,2,0,3,,,,,,,f,1.864966000000095,0.12806869999985793,None,,,,,,3,0,2,136.10696329999996,,,,,,,,,,,,,,,,,,,,,,,136.0912361999999,136.10696329999996,136.59157030000006,,,,,,,,,,,,136.62696200000005,,,,,,,,,,,,136.62381000000005,136.62696200000005,136.62696200000005,136.62696200000005,139.6073953,indoor,f,1.864966000000095,0.12806869999985793,139.60750280000002,139.60754229999998,None,,,,,,,,,,,,,,,,,00050,001,2026-01-18_16h12.54.357,MST_task,2024.2.0,59.8600233215135,2026-01-18 16h13.04.481071 +0530,
,Objects\124a.jpg,3,0,4,,,,,,,f,1.5381629000000885,0.1425351000000319,None,,,,,,4,0,3,139.6234207,,,,,,,,,,,,,,,,,,,,,,,139.60773629999994,139.6234207,140.1077846999999,,,,,,,,,,,,140.14630499999998,,,,,,,,,,,,140.1431559,140.14630499999998,140.14630499999998,140.14630499999998,143.1239923999999,indoor,f,1.5381629000000885,0.1425351000000319,143.12414309999986,143.12418639999987,None,,,,,,,,,,,,,,,,,00050,001,2026-01-18_16h12.54.357,MST_task,2024.2.0,59.8600233215135,2026-01-18 16h13.04.481071 +0530,
,Objects\323a.jpg,4,0,5,,,,,,,j,1.7323377999998684,0.17532170000004044,None,,,,,,5,0,4,143.14027510000005,,,,,,,,,,,,,,,,,,,,,,,143.12439189999986,143.14027510000005,143.6246297,,,,,,,,,,,,143.67153519999988,,,,,,,,,,,,143.66763059999994,143.67153519999988,143.67153519999988,143.67153519999988,146.64052760000004,indoor,j,1.7323377999998684,0.17532170000004044,146.64065770000002,146.6407044,None,,,,,,,,,,,,,,,,,00050,001,2026-01-18_16h12.54.357,MST_task,2024.2.0,59.8600233215135,2026-01-18 16h13.04.481071 +0530,
,Objects\241a.jpg,5,0,6,,,,,,,f,1.865985000000137,0.17560649999995803,None,,,,,,6,0,5,146.65771389999986,,,,,,,,,,,,,,,,,,,,,,,146.64093559999992,146.65771389999986,147.14148699999987,,,,,,,,,,,,147.1863025,,,,,,,,,,,,147.1831863,147.1863025,147.1863025,147.1863025,150.14098169999988,indoor,f,1.865985000000137,0.17560649999995803,150.14116579999995,150.14123569999992,None,,,,,,,,,,,,,,,,,00050,001,2026-01-18_16h12.54.357,MST_task,2024.2.0,59.8600233215135,2026-01-18 16h13.04.481071 +0530,
,Objects\028a.jpg,6,0,7,,,,,,,f,0.9121608000000379,0.15930349999985083,None,,,,,,7,0,6,150.15694299999996,,,,,,,,,,,,,,,,,,,,,,,150.14155519999986,150.15694299999996,150.64124160000006,,,,,,,,,,,,150.6915042999999,,,,,,,,,,,,150.68871379999996,150.6915042999999,150.6915042999999,150.6915042999999,153.65778909999995,indoor,f,0.9121608000000379,0.15930349999985083,153.65791450000006,153.65795939999998,None,,,,,,,,,,,,,,,,,00050,001,2026-01-18_16h12.54.357,MST_task,2024.2.0,59.8600233215135,2026-01-18 16h13.04.481071 +0530,
,Objects\197a.jpg,7,0,8,,,,,,,j,1.3367341999999098,0.20793170000001737,None,,,,,,8,0,7,153.67380869999988,,,,,,,,,,,,,,,,,,,,,,,153.6581655,153.67380869999988,154.15811639999993,,,,,,,,,,,,154.25080839999987,,,,,,,,,,,,154.2485205999999,154.25080839999987,154.25080839999987,154.25080839999987,157.17434849999995,shoe,j,1.3367341999999098,0.20793170000001737,157.17837259999988,157.17840460000002,None,,,,,,,,,,,,,,,,,00050,001,2026-01-18_16h12.54.357,MST_task,2024.2.0,59.8600233215135,2026-01-18 16h13.04.481071 +0530,
,Objects\221a.jpg,8,0,9,,,,,,,j,2.3296145000001616,0.11939050000000861,None,,,,,,9,0,8,157.19048369999996,,,,,,,,,,,,,,,,,,,,,,,157.178582,157.19048369999996,157.67445870000006,,,,,,,,,,,,157.76171069999987,,,,,,,,,,,,157.75848840000003,157.76171069999987,157.76171069999987,157.76171069999987,160.69070869999996,shoe,j,2.3296145000001616,0.11939050000000861,160.69088429999988,160.69095509999988,None,,,,,,,,,,,,,,,,,00050,001,2026-01-18_16h12.54.357,MST_task,2024.2.0,59.8600233215135,2026-01-18 16h13.04.481071 +0530,
,Objects\186a.jpg,9,0,10,,,,,,,f,1.7928457000000435,0.1917335999999068,None,,,,,,10,0,9,160.7070478999999,,,,,,,,,,,,,,,,,,,,,,,160.6911986,160.7070478999999,161.19134329999997,,,,,,,,,,,,161.2353905,,,,,,,,,,,,161.23185769999986,161.2353905,161.2353905,161.2353905,164.20730179999987,shoe,f,1.7928457000000435,0.1917335999999068,164.20747370000004,164.20752560000005,None,,,,,,,,,,,,,,,,,00050,001,2026-01-18_16h12.54.357,MST_task,2024.2.0,59.8600233215135,2026-01-18 16h13.04.481071 +0530,
,Objects\266a.jpg,10,0,11,,,,,,,j,2.0234631999999237,0.22296639999990475,None,,,,,,11,0,10,164.22364349999998,,,,,,,,,,,,,,,,,,,,,,,164.20776509999996,164.22364349999998,164.70829589999994,,,,,,,,,,,,164.76435749999996,,,,,,,,,,,,164.76147089999995,164.76435749999996,164.76435749999996,164.76435749999996,167.72398169999997,shoe,j,2.0234631999999237,0.22296639999990475,167.72409419999985,167.72413459999984,None,,,,,,,,,,,,,,,,,00050,001,2026-01-18_16h12.54.357,MST_task,2024.2.0,59.8600233215135,2026-01-18 16h13.04.481071 +0530,
,Objects\169a.jpg,11,0,12,,,,,,,j,2.3980891999999585,0.2642147000001387,None,,,,,,12,0,11,167.74019269999985,,,,,,,,,,,,,,,,,,,,,,,167.72432219999996,167.74019269999985,168.22456829999987,,,,,,,,,,,,168.24496099999988,,,,,,,,,,,,168.241808,168.24496099999988,168.24496099999988,168.24496099999988,171.24090660000002,shoe,j,2.3980891999999585,0.2642147000001387,171.24103590000004,171.24108350000006,None,,,,,,,,,,,,,,,,,00050,001,2026-01-18_16h12.54.357,MST_task,2024.2.0,59.8600233215135,2026-01-18 16h13.04.481071 +0530,
,Objects\159a.jpg,12,0,13,,,,,,,f,1.2372912000000724,0.14332909999984622,None,,,,,,13,0,12,171.25702350000006,,,,,,,,,,,,,,,,,,,,,,,171.241307,171.25702350000006,171.74122629999988,,,,,,,,,,,,171.8061806999999,,,,,,,,,,,,171.80298159999984,171.8061806999999,171.8061806999999,171.8061806999999,174.75733969999987,shoe,f,1.2372912000000724,0.14332909999984622,174.7574477999999,174.7574886,None,,,,,,,,,,,,,,,,,00050,001,2026-01-18_16h12.54.357,MST_task,2024.2.0,59.8600233215135,2026-01-18 16h13.04.481071 +0530,
,Objects\036a.jpg,13,0,14,,,,,,,j,1.7069280999999137,0.17622549999987314,None,,,,,,14,0,13,174.7736175,,,,,,,,,,,,,,,,,,,,,,,174.75774660000002,174.7736175,175.25779799999987,,,,,,,,,,,,175.29603810000003,,,,,,,,,,,,175.29322359999992,175.29603810000003,175.29603810000003,175.29603810000003,178.27423569999996,shoe,j,1.7069280999999137,0.17622549999987314,178.27441090000002,178.2744806999999,None,,,,,,,,,,,,,,,,,00050,001,2026-01-18_16h12.54.357,MST_task,2024.2.0,59.8600233215135,2026-01-18 16h13.04.481071 +0530,
,Objects\293a.jpg,14,0,15,,,,,,,f,2.0585328000001937,0.12848089999988588,None,,,,,,15,0,14,178.29032899999993,,,,,,,,,,,,,,,,,,,,,,,178.27477339999996,178.29032899999993,178.77460819999988,,,,,,,,,,,,178.83303720000004,,,,,,,,,,,,178.82983059999992,178.83303720000004,178.83303720000004,178.83303720000004,181.79061490000004,indoor,f,2.0585328000001937,0.12848089999988588,181.7957715,181.795838,None,,,,,,,,,,,,,,,,,00050,001,2026-01-18_16h12.54.357,MST_task,2024.2.0,59.8600233215135,2026-01-18 16h13.04.481071 +0530,
,Objects\005a.jpg,15,0,16,,,,,,,f,2.1333108000001175,0.1266406999998253,None,,,,,,16,0,15,181.8073081,,,,,,,,,,,,,,,,,,,,,,,181.79613389999986,181.8073081,182.29151109999998,,,,,,,,,,,,182.38286130000006,,,,,,,,,,,,182.37979610000002,182.38286130000006,182.38286130000006,182.38286130000006,185.30744319999985,indoor,f,2.1333108000001175,0.1266406999998253,185.30763109999998,185.30770059999986,None,,,,,,,,,,,,,,,,,00050,001,2026-01-18_16h12.54.357,MST_task,2024.2.0,59.8600233215135,2026-01-18 16h13.04.481071 +0530,
,Objects\289a.jpg,16,0,17,,,,,,,j,2.0922120000000177,0.13469719999989138,None,,,,,,17,0,16,185.3236485,,,,,,,,,,,,,,,,,,,,,,,185.3079224999999,185.3236485,185.80804809999995,,,,,,,,,,,,185.86406680000005,,,,,,,,,,,,185.86056110000004,185.86406680000005,185.86406680000005,185.86406680000005,188.8236806,indoor,j,2.0922120000000177,0.13469719999989138,188.82380869999997,188.82385249999993,None,,,,,,,,,,,,,,,,,00050,001,2026-01-18_16h12.54.357,MST_task,2024.2.0,59.8600233215135,2026-01-18 16h13.04.481071 +0530,
,Objects\352a.jpg,17,0,18,,,,,,,f,1.602520400000003,0.11238249999996697,None,,,,,,18,0,17,188.84035100000006,,,,,,,,,,,,,,,,,,,,,,,188.8240793,188.84035100000006,189.32453759999999,,,,,,,,,,,,189.3765487999999,,,,,,,,,,,,189.3726099999999,189.3765487999999,189.3765487999999,189.3765487999999,192.3405628999999,indoor,f,1.602520400000003,0.11238249999996697,192.34075710000002,192.340827,None,,,,,,,,,,,,,,,,,00050,001,2026-01-18_16h12.54.357,MST_task,2024.2.0,59.8600233215135,2026-01-18 16h13.04.481071 +0530,
,Objects\379a.jpg,18,0,19,,,,,,,f,1.4183717999999317,0.12750340000002325,None,,,,,,19,0,18,192.35691559999987,,,,,,,,,,,,,,,,,,,,,,,192.34112189999996,192.35691559999987,192.84154059999992,,,,,,,,,,,,192.91368609999995,,,,,,,,,,,,192.91053999999986,192.91368609999995,192.91368609999995,192.91368609999995,195.85742729999993,indoor,f,1.4183717999999317,0.12750340000002325,195.8575954999999,195.8576364999999,None,,,,,,,,,,,,,,,,,00050,001,2026-01-18_16h12.54.357,MST_task,2024.2.0,59.8600233215135,2026-01-18 16h13.04.481071 +0530,
,Objects\251a.jpg,19,0,20,,,,,,,f,1.3276808999999048,0.11974359999999251,None,,,,,,20,0,19,195.87357039999983,,,,,,,,,,,,,,,,,,,,,,,195.85783270000002,195.87357039999983,196.35809589999985,,,,,,,,,,,,196.45996079999986,,,,,,,,,,,,196.45606929999985,196.45996079999986,196.45996079999986,196.45996079999986,199.37407499999995,indoor,f,1.3276808999999048,0.11974359999999251,199.37425170000006,199.37429389999988,None,,,,,,,,,,,,,,,,,00050,001,2026-01-18_16h12.54.357,MST_task,2024.2.0,59.8600233215135,2026-01-18 16h13.04.481071 +0530,
,Objects\109a.jpg,20,0,21,,,,,,,f,1.25733769999988,0.19249549999994997,None,,,,,,21,0,20,199.39021290000005,,,,,,,,,,,,,,,,,,,,,,,199.37449509999988,199.39021290000005,199.87468289999993,,,,,,,,,,,,199.90558869999995,,,,,,,,,,,,199.9021229,199.90558869999995,199.90558869999995,199.90558869999995,202.89066159999993,indoor,f,1.25733769999988,0.19249549999994997,202.89084490000005,202.89091469999994,None,,,,,,,,,,,,,,,,,00050,001,2026-01-18_16h12.54.357,MST_task,2024.2.0,59.8600233215135,2026-01-18 16h13.04.481071 +0530,
,Objects\066a.jpg,21,0,22,,,,,,,j,2.035614199999827,0.23226110000018707,None,,,,,,22,0,21,202.90685129999997,,,,,,,,,,,,,,,,,,,,,,,202.89124149999998,202.90685129999997,203.39154269999995,,,,,,,,,,,,203.40728369999988,,,,,,,,,,,,203.40002370000002,203.40728369999988,203.40728369999988,203.40728369999988,206.39186569999993,shoe,j,2.035614199999827,0.23226110000018707,206.39492729999984,206.3949568999999,None,206.40690840000002,206.40690840000002,206.40690840000002,,,,,,,,,,,,,,00050,001,2026-01-18_16h12.54.357,MST_task,2024.2.0,59.8600233215135,2026-01-18 16h13.04.481071 +0530,
,Objects\216a.jpg,22,0,23,,,,,,,f,2.605434500000001,0.16039920000002894,None,,,,,,23,0,22,206.40690840000002,,,,,,,,,,,,,,,,,,,,,,,206.39507609999987,206.40690840000002,206.89123989999985,,,,,,,,,,,,206.9417994999999,,,,,,,,,,,,206.9382415,206.9417994999999,206.9417994999999,206.9417994999999,209.90726369999993,shoe,f,2.605434500000001,0.16039920000002894,209.90742909999994,209.9074794999999,None,,,,,,,,,,,,,,,,,00050,001,2026-01-18_16h12.54.357,MST_task,2024.2.0,59.8600233215135,2026-01-18 16h13.04.481071 +0530,
,Objects\203a.jpg,23,0,24,,,,,,,j,1.377036999999973,0.16749320000008083,None,,,,,,24,0,23,209.9235157999999,,,,,,,,,,,,,,,,,,,,,,,209.90771459999996,209.9235157999999,210.40787419999992,,,,,,,,,,,,210.51416429999995,,,,,,,,,,,,210.51074789999984,210.51416429999995,210.51416429999995,210.51416429999995,213.4238226,shoe,j,1.377036999999973,0.16749320000008083,213.42395250000004,213.42399750000004,None,,,,,,,,,,,,,,,,,00050,001,2026-01-18_16h12.54.357,MST_task,2024.2.0,59.8600233215135,2026-01-18 16h13.04.481071 +0530,
,Objects\042a.jpg,24,0,25,,,,,,,j,1.963794400000097,0.1598636000001079,None,,,,,,25,0,24,213.4404743,,,,,,,,,,,,,,,,,,,,,,,213.4242225999999,213.4404743,213.92454840000005,,,,,,,,,,,,213.98324660000003,,,,,,,,,,,,213.9804603,213.98324660000003,213.98324660000003,213.98324660000003,216.94130500000006,shoe,j,1.963794400000097,0.1598636000001079,216.94146699999988,216.9415153,None,,,,,,,,,,,,,,,,,00050,001,2026-01-18_16h12.54.357,MST_task,2024.2.0,59.8600233215135,2026-01-18 16h13.04.481071 +0530,
,Objects\035a.jpg,25,0,26,,,,,,,j,2.0870190999999068,0.1283906000001025,None,,,,,,26,0,25,216.95702329999995,,,,,,,,,,,,,,,,,,,,,,,216.94173090000004,216.95702329999995,217.44135419999998,,,,,,,,,,,,217.4760174999999,,,,,,,,,,,,217.47296519999986,217.4760174999999,217.4760174999999,217.4760174999999,220.45753850000006,shoe,j,2.0870190999999068,0.1283906000001025,220.45766089999984,220.45770199999993,None,,,,,,,,,,,,,,,,,00050,001,2026-01-18_16h12.54.357,MST_task,2024.2.0,59.8600233215135,2026-01-18 16h13.04.481071 +0530,
,Objects\182a.jpg,26,0,27,,,,,,,j,2.214372400000002,0.1753656000000774,None,,,,,,27,0,26,220.47360349999985,,,,,,,,,,,,,,,,,,,,,,,220.45789519999994,220.47360349999985,220.95810319999987,,,,,,,,,,,,220.9983921999999,,,,,,,,,,,,220.99532769999996,220.9983921999999,220.9983921999999,220.9983921999999,223.97392089999994,shoe,j,2.214372400000002,0.1753656000000774,223.97410909999985,223.97417670000004,None,,,,,,,,,,,,,,,,,00050,001,2026-01-18_16h12.54.357,MST_task,2024.2.0,59.8600233215135,2026-01-18 16h13.04.481071 +0530,
,Objects\069a.jpg,27,0,28,,,,,,,j,1.29833050000002,0.14396750000014435,None,,,,,,28,0,27,223.9904532999999,,,,,,,,,,,,,,,,,,,,,,,223.97449430000006,223.9904532999999,224.47470869999984,,,,,,,,,,,,224.5296624,,,,,,,,,,,,224.52603309999995,224.5296624,224.5296624,224.5296624,227.49094560000003,shoe,j,1.29833050000002,0.14396750000014435,227.49108419999993,227.49113379999994,None,,,,,,,,,,,,,,,,,00050,001,2026-01-18_16h12.54.357,MST_task,2024.2.0,59.8600233215135,2026-01-18 16h13.04.481071 +0530,
,Objects\292a.jpg,28,0,29,,,,,,,f,2.3864814999999453,0.15226490000009107,None,,,,,,29,0,28,227.5068073,,,,,,,,,,,,,,,,,,,,,,,227.49146259999998,227.5068073,227.99135969999998,,,,,,,,,,,,228.04041659999984,,,,,,,,,,,,228.03670050000005,228.04041659999984,228.04041659999984,228.04041659999984,231.0074479,indoor,f,2.3864814999999453,0.15226490000009107,231.01273070000002,231.01281559999984,None,,,,,,,,,,,,,,,,,00050,001,2026-01-18_16h12.54.357,MST_task,2024.2.0,59.8600233215135,2026-01-18 16h13.04.481071 +0530,
,Objects\046a.jpg,29,0,30,,,,,,,f,1.5954390000001695,0.16683849999981248,None,,,,,,30,0,29,231.02352029999997,,,,,,,,,,,,,,,,,,,,,,,231.013105,231.02352029999997,231.5080951,,,,,,,,,,,,231.6009380999999,,,,,,,,,,,,231.5979316999999,231.6009380999999,231.6009380999999,231.6009380999999,234.5240819999999,indoor,f,1.5954390000001695,0.16683849999981248,234.52423720000002,234.52430759999993,None,,,,,,,,,,,,,,,,,00050,001,2026-01-18_16h12.54.357,MST_task,2024.2.0,59.8600233215135,2026-01-18 16h13.04.481071 +0530,
,Objects\078a.jpg,30,0,31,,,,,,,f,1.8260866000000533,0.10301520000007258,None,,,,,,31,0,30,234.54034639999986,,,,,,,,,,,,,,,,,,,,,,,234.52462219999984,234.54034639999986,235.02457379999987,,,,,,,,,,,,235.0575962999999,,,,,,,,,,,,235.05443459999992,235.0575962999999,235.0575962999999,235.0575962999999,238.0407757999999,indoor,f,1.8260866000000533,0.10301520000007258,238.04095589999997,238.04102450000005,None,,,,,,,,,,,,,,,,,00050,001,2026-01-18_16h12.54.357,MST_task,2024.2.0,59.8600233215135,2026-01-18 16h13.04.481071 +0530,
,Objects\304a.jpg,31,0,32,,,,,,,f,1.2417054000000007,0.1188076999999339,None,,,,,,32,0,31,238.05720769999994,,,,,,,,,,,,,,,,,,,,,,,238.04136879999987,238.05720769999994,238.5416439999999,,,,,,,,,,,,238.60269319999998,,,,,,,,,,,,238.59799479999992,238.60269319999998,238.60269319999998,238.60269319999998,241.55728169999998,indoor,f,1.2417054000000007,0.1188076999999339,241.55746049999993,241.5575303999999,None,,,,,,,,,,,,,,,,,00050,001,2026-01-18_16h12.54.357,MST_task,2024.2.0,59.8600233215135,2026-01-18 16h13.04.481071 +0530,
,Objects\017a.jpg,32,0,33,,,,,,,f,2.0412724000000253,0.13629179999998087,None,,,,,,33,0,32,241.57355819999998,,,,,,,,,,,,,,,,,,,,,,,241.55781409999986,241.57355819999998,242.05779899999993,,,,,,,,,,,,242.07430419999991,,,,,,,,,,,,242.06505130000005,242.07430419999991,242.07430419999991,242.07430419999991,245.05843359999994,indoor,f,2.0412724000000253,0.13629179999998087,245.0585787,245.05864599999995,None,245.0736755999999,245.0736755999999,245.0736755999999,,,,,,,,,,,,,,00050,001,2026-01-18_16h12.54.357,MST_task,2024.2.0,59.8600233215135,2026-01-18 16h13.04.481071 +0530,
,Objects\240a.jpg,33,0,34,,,,,,,f,2.248779600000262,0.10537679999970351,None,,,,,,34,0,33,245.0736755999999,,,,,,,,,,,,,,,,,,,,,,,245.05880260000004,245.0736755999999,245.55808969999998,,,,,,,,,,,,245.6261528,,,,,,,,,,,,245.62142369999992,245.6261528,245.6261528,245.6261528,248.57387259999973,indoor,f,2.248779600000262,0.10537679999970351,248.57406349999997,248.5741316000001,None,,,,,,,,,,,,,,,,,00050,001,2026-01-18_16h12.54.357,MST_task,2024.2.0,59.8600233215135,2026-01-18 16h13.04.481071 +0530,
,Objects\015a.jpg,34,0,35,,,,,,,f,2.2433713000000353,0.09642529999973704,None,,,,,,35,0,34,248.59032109999976,,,,,,,,,,,,,,,,,,,,,,,248.57440399999973,248.59032109999976,249.0746376999998,,,,,,,,,,,,249.11149079999973,,,,,,,,,,,,249.10817870000005,249.11149079999973,249.11149079999973,249.11149079999973,252.09093280000002,indoor,f,2.2433713000000353,0.09642529999973704,252.09110600000008,252.09114739999973,None,,,,,,,,,,,,,,,,,00050,001,2026-01-18_16h12.54.357,MST_task,2024.2.0,59.8600233215135,2026-01-18 16h13.04.481071 +0530,
,Objects\329a.jpg,35,0,36,,,,,,,f,2.5193395999999666,0.07159580000006827,None,,,,,,36,0,35,252.10688499999992,,,,,,,,,,,,,,,,,,,,,,,252.09133910000014,252.10688499999992,252.59145749999993,,,,,,,,,,,,252.6282902999999,,,,,,,,,,,,252.62553589999993,252.6282902999999,252.6282902999999,252.6282902999999,255.60739059999992,shoe,f,2.5193395999999666,0.07159580000006827,255.61311629999977,255.6131598999998,None,,,,,,,,,,,,,,,,,00050,001,2026-01-18_16h12.54.357,MST_task,2024.2.0,59.8600233215135,2026-01-18 16h13.04.481071 +0530,
,Objects\201a.jpg,36,0,37,,,,,,,f,1.3768601000001581,0.09617049999997107,None,,,,,,37,0,36,255.6234965000001,,,,,,,,,,,,,,,,,,,,,,,255.61339250000015,255.6234965000001,256.10759729999995,,,,,,,,,,,,256.14608829999975,,,,,,,,,,,,256.1418943000001,256.14608829999975,256.14608829999975,256.14608829999975,259.12399709999977,shoe,f,1.3768601000001581,0.09617049999997107,259.12417649999975,259.12424739999983,None,,,,,,,,,,,,,,,,,00050,001,2026-01-18_16h12.54.357,MST_task,2024.2.0,59.8600233215135,2026-01-18 16h13.04.481071 +0530,
,Objects\325a.jpg,37,0,38,,,,,,,f,2.349931799999922,0.09696209999992789,None,,,,,,38,0,37,259.14026519999993,,,,,,,,,,,,,,,,,,,,,,,259.1245809999998,259.14026519999993,259.6247158999997,,,,,,,,,,,,259.7089579000001,,,,,,,,,,,,259.70376469999997,259.7089579000001,259.7089579000001,259.7089579000001,262.64064759999997,shoe,f,2.349931799999922,0.09696209999992789,262.6408463,262.6409207999998,None,,,,,,,,,,,,,,,,,00050,001,2026-01-18_16h12.54.357,MST_task,2024.2.0,59.8600233215135,2026-01-18 16h13.04.481071 +0530,
,Objects\207a.jpg,38,0,39,,,,,,,j,1.8961654999998245,0.15892759999996997,None,,,,,,39,0,38,262.65687159999993,,,,,,,,,,,,,,,,,,,,,,,262.64123570000015,262.65687159999993,263.1412834,,,,,,,,,,,,263.17168990000005,,,,,,,,,,,,263.16831620000016,263.17168990000005,263.17168990000005,263.17168990000005,266.14170050000007,shoe,j,1.8961654999998245,0.15892759999996997,266.14191400000004,266.1419838999998,None,,,,,,,,,,,,,,,,,00050,001,2026-01-18_16h12.54.357,MST_task,2024.2.0,59.8600233215135,2026-01-18 16h13.04.481071 +0530,
,Objects\309a.jpg,39,0,40,,,,,,,f,2.3110916999999063,0.1755523000001631,None,,,,,,40,0,39,266.156925,,,,,,,,,,,,,,,,,,,,,,,266.14225569999985,266.156925,266.64141749999976,,,,,,,,,,,,266.70084440000005,,,,,,,,,,,,266.69795929999987,266.70084440000005,266.70084440000005,266.70084440000005,269.65744530000006,shoe,f,2.3110916999999063,0.1755523000001631,269.65764379999996,269.6577122000001,None,,,,,,,,,,,,,,,,,00050,001,2026-01-18_16h12.54.357,MST_task,2024.2.0,59.8600233215135,2026-01-18 16h13.04.481071 +0530,
,Objects\299a.jpg,40,0,41,,,,,,,j,1.2320590999997876,0.17618410000022777,None,,,,,,41,0,40,269.67368120000015,,,,,,,,,,,,,,,,,,,,,,,269.6580373999998,269.67368120000015,270.1580940000001,,,,,,,,,,,,270.20262049999997,,,,,,,,,,,,270.1991925,270.20262049999997,270.20262049999997,270.20262049999997,273.17390219999993,shoe,j,1.2320590999997876,0.17618410000022777,273.1740180999998,273.17405940000003,None,,,,,,,,,,,,,,,,,00050,001,2026-01-18_16h12.54.357,MST_task,2024.2.0,59.8600233215135,2026-01-18 16h13.04.481071 +0530,
,Objects\094a.jpg,41,0,42,,,,,,,f,1.6883858999999575,0.1376759999998285,None,,,,,,42,0,41,273.19030439999983,,,,,,,,,,,,,,,,,,,,,,,273.1742557,273.19030439999983,273.6748191999998,,,,,,,,,,,,273.69067900000005,,,,,,,,,,,,273.68271549999986,273.69067900000005,273.69067900000005,273.69067900000005,276.6742830999999,shoe,f,1.6883858999999575,0.1376759999998285,276.6744526,276.6744949000001,None,,,,,,,,,,,,,,,,,00050,001,2026-01-18_16h12.54.357,MST_task,2024.2.0,59.8600233215135,2026-01-18 16h13.04.481071 +0530,
,Objects\305a.jpg,42,0,43,,,,,,,f,2.2206757999997535,0.09614970000029643,None,,,,,,43,0,42,276.6901547,,,,,,,,,,,,,,,,,,,,,,,276.67476169999986,276.6901547,277.1743543,,,,,,,,,,,,277.1904136999999,,,,,,,,,,,,277.18157300000007,277.1904136999999,277.1904136999999,277.1904136999999,280.1752011000001,indoor,f,2.2206757999997535,0.09614970000029643,280.1794917999998,280.17955000000006,None,280.19013119999977,280.19013119999977,280.19013119999977,,,,,,,,,,,,,,00050,001,2026-01-18_16h12.54.357,MST_task,2024.2.0,59.8600233215135,2026-01-18 16h13.04.481071 +0530,
,Objects\239a.jpg,43,0,44,,,,,,,f,1.4778040999999575,0.1118053999998665,None,,,,,,44,0,43,280.19013119999977,,,,,,,,,,,,,,,,,,,,,,,280.17979390000005,280.19013119999977,280.67497949999984,,,,,,,,,,,,280.7175442,,,,,,,,,,,,280.71441849999997,280.7175442,280.7175442,280.7175442,283.69055349999985,indoor,f,1.4778040999999575,0.1118053999998665,283.69072100000017,283.6907715,None,,,,,,,,,,,,,,,,,00050,001,2026-01-18_16h12.54.357,MST_task,2024.2.0,59.8600233215135,2026-01-18 16h13.04.481071 +0530,
,Objects\200a.jpg,44,0,45,,,,,,,f,1.4147879000001922,0.11898279999968508,None,,,,,,45,0,44,283.7068969999998,,,,,,,,,,,,,,,,,,,,,,,283.6910037,283.7068969999998,284.19139440000004,,,,,,,,,,,,284.23741859999996,,,,,,,,,,,,284.23391519999973,284.23741859999996,284.23741859999996,284.23741859999996,287.20734500000003,indoor,f,1.4147879000001922,0.11898279999968508,287.2074660999999,287.2075231000001,None,,,,,,,,,,,,,,,,,00050,001,2026-01-18_16h12.54.357,MST_task,2024.2.0,59.8600233215135,2026-01-18 16h13.04.481071 +0530,
,Objects\134a.jpg,45,0,46,,,,,,,f,1.9031110000000808,0.0959447000000182,None,,,,,,46,0,45,287.22361939999996,,,,,,,,,,,,,,,,,,,,,,,287.20772920000013,287.22361939999996,287.70837019999976,,,,,,,,,,,,287.72404530000017,,,,,,,,,,,,287.71441930000015,287.72404530000017,287.72404530000017,287.72404530000017,290.70885799999974,indoor,f,1.9031110000000808,0.0959447000000182,290.70904719999976,290.70910630000003,None,290.72355649999986,290.72355649999986,290.72355649999986,,,,,,,,,,,,,,00050,001,2026-01-18_16h12.54.357,MST_task,2024.2.0,59.8600233215135,2026-01-18 16h13.04.481071 +0530,
,Objects\188a.jpg,46,0,47,,,,,,,f,1.57729769999969,0.3029136000000108,None,,,,,,47,0,46,290.72355649999986,,,,,,,,,,,,,,,,,,,,,,,290.70930509999994,290.72355649999986,291.20785249999994,,,,,,,,,,,,291.25057330000004,,,,,,,,,,,,291.2472350999999,291.25057330000004,291.25057330000004,291.25057330000004,294.22441509999976,indoor,f,1.57729769999969,0.3029136000000108,294.2245897999999,294.2246382000001,None,,,,,,,,,,,,,,,,,00050,001,2026-01-18_16h12.54.357,MST_task,2024.2.0,59.8600233215135,2026-01-18 16h13.04.481071 +0530,
,Objects\105a.jpg,47,0,48,,,,,,,f,1.4395043999998052,0.2394589000000451,None,,,,,,48,0,47,294.2401649000001,,,,,,,,,,,,,,,,,,,,,,,294.2248600999999,294.2401649000001,294.72474339999985,,,,,,,,,,,,294.7885109000001,,,,,,,,,,,,294.78510159999973,294.7885109000001,294.7885109000001,294.7885109000001,297.74075960000005,indoor,f,1.4395043999998052,0.2394589000000451,297.74092240000004,297.7409636,None,,,,,,,,,,,,,,,,,00050,001,2026-01-18_16h12.54.357,MST_task,2024.2.0,59.8600233215135,2026-01-18 16h13.04.481071 +0530,
,Objects\235a.jpg,48,0,49,,,,,,,f,1.2083769000000757,0.19242169999961334,None,,,,,,49,0,48,297.7569732999998,,,,,,,,,,,,,,,,,,,,,,,297.7411593999998,297.7569732999998,298.24141799999984,,,,,,,,,,,,298.28258249999976,,,,,,,,,,,,298.2790250999999,298.28258249999976,298.28258249999976,298.28258249999976,301.2571096999998,indoor,f,1.2083769000000757,0.19242169999961334,301.2572189,301.25725799999987,None,,,,,,,,,,,,,,,,,00050,001,2026-01-18_16h12.54.357,MST_task,2024.2.0,59.8600233215135,2026-01-18 16h13.04.481071 +0530,
,Objects\138a.jpg,49,0,50,,,,,,,f,2.1023619000002327,0.33615599999984624,None,,,,,,50,0,49,301.27352159999987,,,,,,,,,,,,,,,,,,,,,,,301.2574428999999,301.27352159999987,301.75802899999985,,,,,,,,,,,,301.82915519999983,,,,,,,,,,,,301.8260514000001,301.82915519999983,301.82915519999983,301.82915519999983,304.77430900000013,shoe,f,2.1023619000002327,0.33615599999984624,304.7783778999999,304.7784211999999,None,,,,,,,,,,,,,,,,,00050,001,2026-01-18_16h12.54.357,MST_task,2024.2.0,59.8600233215135,2026-01-18 16h13.04.481071 +0530,
,Objects\254a.jpg,50,0,51,,,,,,,j,2.4705159000000094,0.145337599999948,None,,,,,,51,0,50,304.7903657999998,,,,,,,,,,,,,,,,,,,,,,,304.7786527999999,304.7903657999998,305.27472909999983,,,,,,,,,,,,305.31621359999986,,,,,,,,,,,,305.3124672000001,305.31621359999986,305.31621359999986,305.31621359999986,308.2907081999999,shoe,j,2.4705159000000094,0.145337599999948,308.29088620000016,308.2909548,None,,,,,,,,,,,,,,,,,00050,001,2026-01-18_16h12.54.357,MST_task,2024.2.0,59.8600233215135,2026-01-18 16h13.04.481071 +0530,
,Objects\321a.jpg,51,0,52,,,,,,,f,1.179123299999901,0.14332039999999324,None,,,,,,52,0,51,308.3078533999999,,,,,,,,,,,,,,,,,,,,,,,308.291285,308.3078533999999,308.79157310000005,,,,,,,,,,,,308.83208409999975,,,,,,,,,,,,308.82910860000015,308.83208409999975,308.83208409999975,308.83208409999975,311.80763390000016,shoe,f,1.179123299999901,0.14332039999999324,311.8078294999998,311.80787929999974,None,,,,,,,,,,,,,,,,,00050,001,2026-01-18_16h12.54.357,MST_task,2024.2.0,59.8600233215135,2026-01-18 16h13.04.481071 +0530,
,Objects\031a.jpg,52,0,53,,,,,,,j,1.1461551999996118,0.2806146000002627,None,,,,,,53,0,52,311.82363929999997,,,,,,,,,,,,,,,,,,,,,,,311.80809539999996,311.82363929999997,312.3081900999998,,,,,,,,,,,,312.3774016,,,,,,,,,,,,312.37447670000006,312.3774016,312.3774016,312.3774016,315.3242732000001,shoe,j,1.1461551999996118,0.2806146000002627,315.32447590000015,315.3245460999999,None,,,,,,,,,,,,,,,,,00050,001,2026-01-18_16h12.54.357,MST_task,2024.2.0,59.8600233215135,2026-01-18 16h13.04.481071 +0530,
,Objects\048a.jpg,53,0,54,,,,,,,j,1.4269433999998,0.167960100000073,None,,,,,,54,0,53,315.3402533000001,,,,,,,,,,,,,,,,,,,,,,,315.32491479999976,315.3402533000001,315.8247058999998,,,,,,,,,,,,315.84046179999973,,,,,,,,,,,,315.83076430000006,315.84046179999973,315.84046179999973,315.84046179999973,318.8252995999999,shoe,j,1.4269433999998,0.167960100000073,318.82540529999983,318.82544459999986,None,318.8406093000001,318.8406093000001,318.8406093000001,,,,,,,,,,,,,,00050,001,2026-01-18_16h12.54.357,MST_task,2024.2.0,59.8600233215135,2026-01-18 16h13.04.481071 +0530,
,Objects\011a.jpg,54,0,55,,,,,,,f,2.061557399999856,0.2395584000000781,None,,,,,,55,0,54,318.8406093000001,,,,,,,,,,,,,,,,,,,,,,,318.8256166999997,318.8406093000001,319.3246047,,,,,,,,,,,,319.34220949999985,,,,,,,,,,,,319.33931469999993,319.34220949999985,319.34220949999985,319.34220949999985,322.3415257999998,shoe,f,2.061557399999856,0.2395584000000781,322.34164699999997,322.34169129999987,None,,,,,,,,,,,,,,,,,00050,001,2026-01-18_16h12.54.357,MST_task,2024.2.0,59.8600233215135,2026-01-18 16h13.04.481071 +0530,
,Objects\037a.jpg,55,0,56,,,,,,,f,1.3755787999998574,0.15233800000032716,None,,,,,,56,0,55,322.35693259999994,,,,,,,,,,,,,,,,,,,,,,,322.34189360000005,322.35693259999994,322.84141859999977,,,,,,,,,,,,322.88317230000007,,,,,,,,,,,,322.88039700000013,322.88317230000007,322.88317230000007,322.88317230000007,325.85760920000007,shoe,f,1.3755787999998574,0.15233800000032716,325.85778890000006,325.85785839999994,None,,,,,,,,,,,,,,,,,00050,001,2026-01-18_16h12.54.357,MST_task,2024.2.0,59.8600233215135,2026-01-18 16h13.04.481071 +0530,
,Objects\101a.jpg,56,0,57,,,,,,,f,2.2019961999999396,0.11946490000036647,None,,,,,,57,0,56,325.87443629999984,,,,,,,,,,,,,,,,,,,,,,,325.8582862999999,325.87443629999984,326.35817489999977,,,,,,,,,,,,326.40222089999975,,,,,,,,,,,,326.39880979999975,326.40222089999975,326.40222089999975,326.40222089999975,329.3739816,indoor,f,2.2019961999999396,0.11946490000036647,329.3775208999998,329.3775401999999,None,,,,,,,,,,,,,,,,,00050,001,2026-01-18_16h12.54.357,MST_task,2024.2.0,59.8600233215135,2026-01-18 16h13.04.481071 +0530,
,Objects\310a.jpg,57,0,58,,,,,,,j,2.2396519000003536,0.12824819999968895,None,,,,,,58,0,57,329.3902215999999,,,,,,,,,,,,,,,,,,,,,,,329.37762039999984,329.3902215999999,329.8746000999997,,,,,,,,,,,,330.00302579999993,,,,,,,,,,,,329.99988529999996,330.00302579999993,330.00302579999993,330.00302579999993,332.89097289999995,indoor,j,2.2396519000003536,0.12824819999968895,332.891038,332.89105510000013,None,,,,,,,,,,,,,,,,,00050,001,2026-01-18_16h12.54.357,MST_task,2024.2.0,59.8600233215135,2026-01-18 16h13.04.481071 +0530,
,Objects\044a.jpg,58,0,59,,,,,,,j,2.1172075999998015,0.19228800000018964,None,,,,,,59,0,58,332.9069492000001,,,,,,,,,,,,,,,,,,,,,,,332.89114099999983,332.9069492000001,333.3914830000001,,,,,,,,,,,,333.44578179999985,,,,,,,,,,,,333.44254650000016,333.44578179999985,333.44578179999985,333.44578179999985,336.40730770000005,indoor,j,2.1172075999998015,0.19228800000018964,336.40749919999985,336.40756910000005,None,,,,,,,,,,,,,,,,,00050,001,2026-01-18_16h12.54.357,MST_task,2024.2.0,59.8600233215135,2026-01-18 16h13.04.481071 +0530,
,Objects\195a.jpg,59,0,60,,,,,,,f,2.15179309999985,0.16021829999999682,None,,,,,,60,0,59,336.42443690000005,,,,,,,,,,,,,,,,,,,,,,,336.4078790000001,336.42443690000005,336.9080803999998,,,,,,,,,,,,336.93981929999995,,,,,,,,,,,,336.93664879999983,336.93981929999995,336.93981929999995,336.93981929999995,339.92394690000015,indoor,f,2.15179309999985,0.16021829999999682,339.92412119999995,339.92418969999994,None,,,,,,,,,,,,,,,,,00050,001,2026-01-18_16h12.54.357,MST_task,2024.2.0,59.8600233215135,2026-01-18 16h13.04.481071 +0530,
,Objects\264a.jpg,60,0,61,,,,,,,j,1.554641200000333,0.33612659999971584,None,,,,,,61,0,60,339.94036249999976,,,,,,,,,,,,,,,,,,,,,,,339.92442000000005,339.94036249999976,340.4249963,,,,,,,,,,,,340.4560476999998,,,,,,,,,,,,340.45260140000005,340.4560476999998,340.4560476999998,340.4560476999998,343.4406885000001,indoor,j,1.554641200000333,0.33612659999971584,343.4408145,343.4408609999998,None,,,,,,,,,,,,,,,,,00050,001,2026-01-18_16h12.54.357,MST_task,2024.2.0,59.8600233215135,2026-01-18 16h13.04.481071 +0530,
,Objects\084a.jpg,61,0,62,,,,,,,f,1.3777904000003218,0.12089999999989232,None,,,,,,62,0,61,343.45792589999996,,,,,,,,,,,,,,,,,,,,,,,343.44107999999983,343.45792589999996,343.9573177999998,,,,,,,,,,,,,,,,,,,,,,,,343.99823790000005,344.0014423,344.0014423,344.0014423,346.9570778,indoor,f,1.3777904000003218,0.12089999999989232,346.95718299999976,346.95721879999996,None,,,,,,,,,,,,,,,,,00050,001,2026-01-18_16h12.54.357,MST_task,2024.2.0,59.8600233215135,2026-01-18 16h13.04.481071 +0530,
,Objects\296a.jpg,62,0,63,,,,,,,f,1.4718893999997817,0.14451920000010432,None,,,,,,63,0,62,346.9734839,,,,,,,,,,,,,,,,,,,,,,,346.95740309999996,346.9734839,347.4579839999999,,,,,,,,,,,,347.4999755000001,,,,,,,,,,,,347.49671669999975,347.4999755000001,347.4999755000001,347.4999755000001,350.4743160999999,indoor,f,1.4718893999997817,0.14451920000010432,350.4744911999999,350.4745605999999,None,,,,,,,,,,,,,,,,,00050,001,2026-01-18_16h12.54.357,MST_task,2024.2.0,59.8600233215135,2026-01-18 16h13.04.481071 +0530,
,Objects\019a.jpg,63,0,64,,,,,,,j,2.143231300000025,0.10336380000035206,None,,,,,,64,0,63,350.49043499999993,,,,,,,,,,,,,,,,,,,,,,,350.47485299999994,350.49043499999993,350.97456350000016,,,,,,,,,,,,351.0685453999997,,,,,,,,,,,,351.0652613999998,351.0685453999997,351.0685453999997,351.0685453999997,353.99084179999977,shoe,j,2.143231300000025,0.10336380000035206,353.9948157000001,353.99484830000006,None,,,,,,,,,,,,,,,,,00050,001,2026-01-18_16h12.54.357,MST_task,2024.2.0,59.8600233215135,2026-01-18 16h13.04.481071 +0530,
,Objects\107a.jpg,64,0,65,,,,,,,j,1.4376226999997925,0.12021120000008523,None,,,,,,65,0,64,354.00693220000016,,,,,,,,,,,,,,,,,,,,,,,353.9949745000001,354.00693220000016,354.49138990000006,,,,,,,,,,,,354.5334912999999,,,,,,,,,,,,354.53032830000006,354.5334912999999,354.5334912999999,354.5334912999999,357.5074517999999,shoe,j,1.4376226999997925,0.12021120000008523,357.50756909999996,357.50761350000016,None,,,,,,,,,,,,,,,,,00050,001,2026-01-18_16h12.54.357,MST_task,2024.2.0,59.8600233215135,2026-01-18 16h13.04.481071 +0530,
,Objects\155a.jpg,65,0,66,,,,,,,f,2.010491600000023,0.20935529999997016,None,,,,,,66,0,65,357.52350779999983,,,,,,,,,,,,,,,,,,,,,,,357.50789789999976,357.52350779999983,358.0079079999998,,,,,,,,,,,,358.09625260000007,,,,,,,,,,,,358.0933137999998,358.09625260000007,358.09625260000007,358.09625260000007,361.0238348999999,shoe,f,2.010491600000023,0.20935529999997016,361.02395580000007,361.0240001999998,None,,,,,,,,,,,,,,,,,00050,001,2026-01-18_16h12.54.357,MST_task,2024.2.0,59.8600233215135,2026-01-18 16h13.04.481071 +0530,
,Objects\050a.jpg,66,0,67,,,,,,,f,2.54312630000004,0.08827560000008816,None,,,,,,67,0,66,361.04026420000014,,,,,,,,,,,,,,,,,,,,,,,361.0242821999998,361.04026420000014,361.5246467999998,,,,,,,,,,,,361.54043320000005,,,,,,,,,,,,361.53115139999977,361.54043320000005,361.54043320000005,361.54043320000005,364.5250635,shoe,f,2.54312630000004,0.08827560000008816,364.5252511000001,364.52528879999977,None,364.54021780000016,364.54021780000016,364.54021780000016,,,,,,,,,,,,,,00050,001,2026-01-18_16h12.54.357,MST_task,2024.2.0,59.8600233215135,2026-01-18 16h13.04.481071 +0530,
,Objects\087a.jpg,67,0,68,,,,,,,j,2.0427192999995896,0.08851340000001073,None,,,,,,68,0,67,364.54021780000016,,,,,,,,,,,,,,,,,,,,,,,364.52545399999985,364.54021780000016,365.0248795,,,,,,,,,,,,365.0646519999998,,,,,,,,,,,,365.0619571,365.0646519999998,365.0646519999998,365.0646519999998,368.04061609999985,shoe,j,2.0427192999995896,0.08851340000001073,368.0407809999999,368.04082649999987,None,,,,,,,,,,,,,,,,,00050,001,2026-01-18_16h12.54.357,MST_task,2024.2.0,59.8600233215135,2026-01-18 16h13.04.481071 +0530,
,Objects\073a.jpg,68,0,69,,,,,,,f,1.2450368999998318,0.10418110000000524,None,,,,,,69,0,68,368.05690200000004,,,,,,,,,,,,,,,,,,,,,,,368.0411148999999,368.05690200000004,368.5412991999999,,,,,,,,,,,,368.6138196999998,,,,,,,,,,,,368.6105285000001,368.6138196999998,368.6138196999998,368.6138196999998,371.55762579999987,shoe,f,1.2450368999998318,0.10418110000000524,371.5578072999999,371.5578806000001,None,,,,,,,,,,,,,,,,,00050,001,2026-01-18_16h12.54.357,MST_task,2024.2.0,59.8600233215135,2026-01-18 16h13.04.481071 +0530,
,Objects\061a.jpg,69,0,70,,,,,,,j,2.05707670000038,0.1533158999995976,None,,,,,,70,0,69,371.5739252000001,,,,,,,,,,,,,,,,,,,,,,,371.55817349999984,371.5739252000001,372.05824689999986,,,,,,,,,,,,372.0896239000001,,,,,,,,,,,,372.0859819,372.0896239000001,372.0896239000001,372.0896239000001,375.07408969999983,shoe,j,2.05707670000038,0.1533158999995976,375.0742634999999,375.0743335999998,None,,,,,,,,,,,,,,,,,00050,001,2026-01-18_16h12.54.357,MST_task,2024.2.0,59.8600233215135,2026-01-18 16h13.04.481071 +0530,
,Objects\041a.jpg,70,0,71,,,,,,,j,2.4498963000000913,0.1673227000001134,None,,,,,,71,0,70,375.09037460000013,,,,,,,,,,,,,,,,,,,,,,,375.07468110000013,375.09037460000013,375.5745242999999,,,,,,,,,,,,375.60979829999974,,,,,,,,,,,,375.60657430000015,375.60979829999974,375.60979829999974,375.60979829999974,378.59148630000004,indoor,j,2.4498963000000913,0.1673227000001134,378.59636079999996,378.5964299999998,None,,,,,,,,,,,,,,,,,00050,001,2026-01-18_16h12.54.357,MST_task,2024.2.0,59.8600233215135,2026-01-18 16h13.04.481071 +0530,
,Objects\086a.jpg,71,0,72,,,,,,,j,2.3653964000000087,0.15930840000009994,None,,,,,,72,0,71,378.6070299999999,,,,,,,,,,,,,,,,,,,,,,,378.59667209999975,378.6070299999999,379.0912237,,,,,,,,,,,,379.13448029999995,,,,,,,,,,,,379.13121990000013,379.13448029999995,379.13448029999995,379.13448029999995,382.10724619999996,indoor,j,2.3653964000000087,0.15930840000009994,382.10738149999975,382.1074314,None,,,,,,,,,,,,,,,,,00050,001,2026-01-18_16h12.54.357,MST_task,2024.2.0,59.8600233215135,2026-01-18 16h13.04.481071 +0530,
,Objects\010a.jpg,72,0,73,,,,,,,f,1.3353065000001152,0.11157600000024104,None,,,,,,73,0,72,382.12420309999993,,,,,,,,,,,,,,,,,,,,,,,382.1076615999998,382.12420309999993,382.6081621000001,,,,,,,,,,,,382.70823029999997,,,,,,,,,,,,382.7051378999997,382.70823029999997,382.70823029999997,382.70823029999997,385.62424450000003,indoor,f,1.3353065000001152,0.11157600000024104,385.6244095999998,385.6244650000001,None,,,,,,,,,,,,,,,,,00050,001,2026-01-18_16h12.54.357,MST_task,2024.2.0,59.8600233215135,2026-01-18 16h13.04.481071 +0530,
,Objects\045a.jpg,73,0,74,,,,,,,f,1.7011704000001373,0.13668800000004921,None,,,,,,74,0,73,385.6403435999998,,,,,,,,,,,,,,,,,,,,,,,385.6246714000001,385.6403435999998,386.12480519999986,,,,,,,,,,,,386.18199579999987,,,,,,,,,,,,386.1786507999998,386.18199579999987,386.18199579999987,386.18199579999987,389.1406654,indoor,f,1.7011704000001373,0.13668800000004921,389.14083819999973,389.1408847,None,,,,,,,,,,,,,,,,,00050,001,2026-01-18_16h12.54.357,MST_task,2024.2.0,59.8600233215135,2026-01-18 16h13.04.481071 +0530,
,Objects\346a.jpg,74,0,75,,,,,,,f,2.0292506000000685,0.2406431999997949,None,,,,,,75,0,74,389.1568685,,,,,,,,,,,,,,,,,,,,,,,389.14110099999994,389.1568685,389.6411918000001,,,,,,,,,,,,389.68610139999987,,,,,,,,,,,,389.68295669999975,389.68610139999987,389.68610139999987,389.68610139999987,392.65723460000004,indoor,f,2.0292506000000685,0.2406431999997949,392.6574376000001,392.6575283999998,None,,,,,,,,,,,,,,,,,00050,001,2026-01-18_16h12.54.357,MST_task,2024.2.0,59.8600233215135,2026-01-18 16h13.04.481071 +0530,
,Objects\236a.jpg,75,0,76,,,,,,,f,2.2084443000003375,0.21531829999958063,None,,,,,,76,0,75,392.67355699999985,,,,,,,,,,,,,,,,,,,,,,,392.65782950000016,392.67355699999985,393.1583399999997,,,,,,,,,,,,393.2440955999998,,,,,,,,,,,,393.2403203000001,393.2440955999998,393.2440955999998,393.2440955999998,396.1740229999998,indoor,f,2.2084443000003375,0.21531829999958063,396.1741644000001,396.17421420000005,None,,,,,,,,,,,,,,,,,00050,001,2026-01-18_16h12.54.357,MST_task,2024.2.0,59.8600233215135,2026-01-18 16h13.04.481071 +0530,
,Objects\322a.jpg,76,0,77,,,,,,,j,1.9687730000000556,0.2718098000000282,None,,,,,,77,0,76,396.19013440000003,,,,,,,,,,,,,,,,,,,,,,,396.1744492999999,396.19013440000003,396.67469749999987,,,,,,,,,,,,396.72280560000013,,,,,,,,,,,,396.71927029999983,396.72280560000013,396.72280560000013,396.72280560000013,399.69059319999974,indoor,j,1.9687730000000556,0.2718098000000282,399.6907712999998,399.69084020000014,None,,,,,,,,,,,,,,,,,00050,001,2026-01-18_16h12.54.357,MST_task,2024.2.0,59.8600233215135,2026-01-18 16h13.04.481071 +0530,
,Objects\337a.jpg,77,0,78,,,,,,,f,1.4614388999998482,0.15303420000009282,None,,,,,,78,0,77,399.70715140000016,,,,,,,,,,,,,,,,,,,,,,,399.6911515999998,399.70715140000016,400.19153040000015,,,,,,,,,,,,400.2291766999999,,,,,,,,,,,,400.2263430999999,400.2291766999999,400.2291766999999,400.2291766999999,403.2075477000001,shoe,f,1.4614388999998482,0.15303420000009282,403.2116322999998,403.2116715999998,None,,,,,,,,,,,,,,,,,00050,001,2026-01-18_16h12.54.357,MST_task,2024.2.0,59.8600233215135,2026-01-18 16h13.04.481071 +0530,
,Objects\206a.jpg,78,0,79,,,,,,,j,2.085929700000179,0.29684150000002774,None,,,,,,79,0,78,403.2236249,,,,,,,,,,,,,,,,,,,,,,,403.211822,403.2236249,403.70801819999974,,,,,,,,,,,,403.7969617000001,,,,,,,,,,,,403.7933744999998,403.7969617000001,403.7969617000001,403.7969617000001,406.72412329999975,shoe,j,2.085929700000179,0.29684150000002774,406.72428319999995,406.7243197999999,None,,,,,,,,,,,,,,,,,00050,001,2026-01-18_16h12.54.357,MST_task,2024.2.0,59.8600233215135,2026-01-18 16h13.04.481071 +0530,
,Objects\119a.jpg,79,0,80,,,,,,,f,1.7946975999998358,0.14536580000003596,None,,,,,,80,0,79,406.7402252999998,,,,,,,,,,,,,,,,,,,,,,,406.72449159999974,406.7402252999998,407.2248020999998,,,,,,,,,,,,407.2638755999999,,,,,,,,,,,,407.25930600000015,407.2638755999999,407.2638755999999,407.2638755999999,410.24064350000003,shoe,f,1.7946975999998358,0.14536580000003596,410.24078099999974,410.24083069999983,None,,,,,,,,,,,,,,,,,00050,001,2026-01-18_16h12.54.357,MST_task,2024.2.0,59.8600233215135,2026-01-18 16h13.04.481071 +0530,
,Objects\091a.jpg,80,0,81,,,,,,,j,1.5525532999999996,0.18303830000013477,None,,,,,,81,0,80,410.2568125,,,,,,,,,,,,,,,,,,,,,,,410.24115819999975,410.2568125,410.74141889999987,,,,,,,,,,,,,,,,,,,,,,,,410.7682548999999,410.77117969999995,410.77117969999995,410.77117969999995,413.75721940000017,shoe,j,1.5525532999999996,0.18303830000013477,413.7573878999999,413.75742669999977,None,,,,,,,,,,,,,,,,,00050,001,2026-01-18_16h12.54.357,MST_task,2024.2.0,59.8600233215135,2026-01-18 16h13.04.481071 +0530,
,Objects\348a.jpg,81,0,82,,,,,,,f,1.5184848999997484,0.12011389999997846,None,,,,,,82,0,81,413.7741284000001,,,,,,,,,,,,,,,,,,,,,,,413.7577063000001,413.7741284000001,414.25798770000006,,,,,,,,,,,,414.28502509999976,,,,,,,,,,,,414.2818992,414.28502509999976,414.28502509999976,414.28502509999976,417.2739693000001,shoe,f,1.5184848999997484,0.12011389999997846,417.2741302000002,417.27418079999984,None,,,,,,,,,,,,,,,,,00050,001,2026-01-18_16h12.54.357,MST_task,2024.2.0,59.8600233215135,2026-01-18 16h13.04.481071 +0530,
,Objects\383a.jpg,82,0,83,,,,,,,f,1.9324581000000762,0.1912225999999464,None,,,,,,83,0,82,417.2902109999998,,,,,,,,,,,,,,,,,,,,,,,417.2744150000001,417.2902109999998,417.7747072999998,,,,,,,,,,,,417.7992581000001,,,,,,,,,,,,417.7954226999998,417.7992581000001,417.7992581000001,417.7992581000001,420.7906430999999,shoe,f,1.9324581000000762,0.1912225999999464,420.7908200999998,420.7908890000001,None,,,,,,,,,,,,,,,,,00050,001,2026-01-18_16h12.54.357,MST_task,2024.2.0,59.8600233215135,2026-01-18 16h13.04.481071 +0530,
,Objects\222a.jpg,83,0,84,,,,,,,j,1.5317512000001443,0.2892239000002519,None,,,,,,84,0,83,420.80698770000004,,,,,,,,,,,,,,,,,,,,,,,420.7911980000001,420.80698770000004,421.2914281999999,,,,,,,,,,,,421.3268203,,,,,,,,,,,,421.3236294000001,421.3268203,421.3268203,421.3268203,424.30735260000006,shoe,j,1.5317512000001443,0.2892239000002519,424.30748979999976,424.30754049999973,None,,,,,,,,,,,,,,,,,00050,001,2026-01-18_16h12.54.357,MST_task,2024.2.0,59.8600233215135,2026-01-18 16h13.04.481071 +0530,
,Objects\219a.jpg,84,0,85,,,,,,,f,2.2084051000001637,0.1446169999999256,None,,,,,,85,0,84,424.3236153999999,,,,,,,,,,,,,,,,,,,,,,,424.3077715000002,424.3236153999999,424.80834200000004,,,,,,,,,,,,424.8662883999998,,,,,,,,,,,,424.8631183,424.8662883999998,424.8662883999998,424.8662883999998,427.8241765999999,indoor,f,2.2084051000001637,0.1446169999999256,427.8277848,427.8278128999998,None,,,,,,,,,,,,,,,,,00050,001,2026-01-18_16h12.54.357,MST_task,2024.2.0,59.8600233215135,2026-01-18 16h13.04.481071 +0530,
,Objects\218a.jpg,85,0,86,,,,,,,j,1.4519735000003493,0.14426489999959813,None,,,,,,86,0,85,427.84025659999975,,,,,,,,,,,,,,,,,,,,,,,427.82792429999995,427.84025659999975,428.3249414999998,,,,,,,,,,,,428.3678514999999,,,,,,,,,,,,428.36470010000016,428.3678514999999,428.3678514999999,428.3678514999999,431.3407718000001,indoor,j,1.4519735000003493,0.14426489999959813,431.3409328,431.3409862000001,None,,,,,,,,,,,,,,,,,00050,001,2026-01-18_16h12.54.357,MST_task,2024.2.0,59.8600233215135,2026-01-18 16h13.04.481071 +0530,
,Objects\083a.jpg,86,0,87,,,,,,,f,1.3326781000000665,0.10409190000018498,None,,,,,,87,0,86,431.3569301,,,,,,,,,,,,,,,,,,,,,,,431.34122820000016,431.3569301,431.8411516999997,,,,,,,,,,,,,,,,,,,,,,,,431.8837513000001,431.8869312999998,431.8869312999998,431.8869312999998,434.85730769999986,indoor,f,1.3326781000000665,0.10409190000018498,434.8574446,434.85749280000005,None,,,,,,,,,,,,,,,,,00050,001,2026-01-18_16h12.54.357,MST_task,2024.2.0,59.8600233215135,2026-01-18 16h13.04.481071 +0530,
,Objects\145a.jpg,87,0,88,,,,,,,f,2.2128410999998778,0.12866919999987658,None,,,,,,88,0,87,434.8735282,,,,,,,,,,,,,,,,,,,,,,,434.8577619,434.8735282,435.35798480000017,,,,,,,,,,,,435.40590910000014,,,,,,,,,,,,435.40175509999995,435.40590910000014,435.40590910000014,435.40590910000014,438.3740596,indoor,f,2.2128410999998778,0.12866919999987658,438.3742125000001,438.3742414000001,None,,,,,,,,,,,,,,,,,00050,001,2026-01-18_16h12.54.357,MST_task,2024.2.0,59.8600233215135,2026-01-18 16h13.04.481071 +0530,
,Objects\016a.jpg,88,0,89,,,,,,,f,2.14241949999996,0.10402329999988069,None,,,,,,89,0,88,438.3903047000001,,,,,,,,,,,,,,,,,,,,,,,438.3743788999998,438.3903047000001,438.8745720999998,,,,,,,,,,,,438.9480556000001,,,,,,,,,,,,438.94442319999985,438.9480556000001,438.9480556000001,438.9480556000001,441.8905966,indoor,f,2.14241949999996,0.10402329999988069,441.8907708999998,441.8908396999998,None,,,,,,,,,,,,,,,,,00050,001,2026-01-18_16h12.54.357,MST_task,2024.2.0,59.8600233215135,2026-01-18 16h13.04.481071 +0530,
,Objects\004a.jpg,89,0,90,,,,,,,f,1.3876660000000811,0.16858229999979812,None,,,,,,90,0,89,441.90684989999977,,,,,,,,,,,,,,,,,,,,,,,441.8911292999999,441.90684989999977,442.3914084999999,,,,,,,,,,,,442.4394024999999,,,,,,,,,,,,442.4347427,442.4394024999999,442.4394024999999,442.4394024999999,445.40752080000016,indoor,f,1.3876660000000811,0.16858229999979812,445.40769609999984,445.4077657,None,,,,,,,,,,,,,,,,,00050,001,2026-01-18_16h12.54.357,MST_task,2024.2.0,59.8600233215135,2026-01-18 16h13.04.481071 +0530,
,Objects\330a.jpg,90,0,91,,,,,,,f,1.6946026999999049,0.26434800000015457,None,,,,,,91,0,90,445.42354869999986,,,,,,,,,,,,,,,,,,,,,,,445.4081199,445.42354869999986,445.90801069999975,,,,,,,,,,,,445.94798639999976,,,,,,,,,,,,445.9451007,445.94798639999976,445.94798639999976,445.94798639999976,448.92507520000004,indoor,f,1.6946026999999049,0.26434800000015457,448.9252841,448.9253541999999,None,,,,,,,,,,,,,,,,,00050,001,2026-01-18_16h12.54.357,MST_task,2024.2.0,59.8600233215135,2026-01-18 16h13.04.481071 +0530,
,Objects\377a.jpg,91,0,92,,,,,,,j,2.6268543000001046,0.19073649999972986,None,,,,,,92,0,91,448.9410863999999,,,,,,,,,,,,,,,,,,,,,,,448.9256293000001,448.9410863999999,449.42465719999996,,,,,,,,,,,,449.48930210000003,,,,,,,,,,,,449.4857187,449.48930210000003,449.48930210000003,449.48930210000003,452.44112729999983,shoe,j,2.6268543000001046,0.19073649999972986,452.44507180000005,452.4451034000001,None,,,,,,,,,,,,,,,,,00050,001,2026-01-18_16h12.54.357,MST_task,2024.2.0,59.8600233215135,2026-01-18 16h13.04.481071 +0530,
,Objects\115a.jpg,92,0,93,,,,,,,f,1.4455583999997543,0.1992144000000735,None,,,,,,93,0,92,452.45695180000007,,,,,,,,,,,,,,,,,,,,,,,452.44528079999986,452.45695180000007,452.94136109999977,,,,,,,,,,,,453.00608039999975,,,,,,,,,,,,453.00198750000004,453.00608039999975,453.00608039999975,453.00608039999975,455.95809369999984,shoe,f,1.4455583999997543,0.1992144000000735,455.95826650000004,455.9583365000001,None,,,,,,,,,,,,,,,,,00050,001,2026-01-18_16h12.54.357,MST_task,2024.2.0,59.8600233215135,2026-01-18 16h13.04.481071 +0530,
,Objects\014a.jpg,93,0,94,,,,,,,f,0.9892068999997718,0.18430460000035964,None,,,,,,94,0,93,455.97372299999984,,,,,,,,,,,,,,,,,,,,,,,455.9587567000001,455.97372299999984,456.45831870000006,,,,,,,,,,,,456.5179808999999,,,,,,,,,,,,456.51493670000013,456.5179808999999,456.5179808999999,456.5179808999999,459.47401079999986,shoe,f,0.9892068999997718,0.18430460000035964,459.4742036,459.47425240000007,None,,,,,,,,,,,,,,,,,00050,001,2026-01-18_16h12.54.357,MST_task,2024.2.0,59.8600233215135,2026-01-18 16h13.04.481071 +0530,
,Objects\108a.jpg,94,0,95,,,,,,,j,1.2393556000001809,0.1914662999997745,None,,,,,,95,0,94,459.4904558999999,,,,,,,,,,,,,,,,,,,,,,,459.4745605999999,459.4904558999999,459.9746757999999,,,,,,,,,,,,460.02874469999983,,,,,,,,,,,,460.02556979999986,460.02874469999983,460.02874469999983,460.02874469999983,462.99062530000015,shoe,j,1.2393556000001809,0.1914662999997745,462.99080359999994,462.9908742,None,,,,,,,,,,,,,,,,,00050,001,2026-01-18_16h12.54.357,MST_task,2024.2.0,59.8600233215135,2026-01-18 16h13.04.481071 +0530,
,Objects\229a.jpg,95,0,96,,,,,,,f,1.618447500000002,0.11943229999997129,None,,,,,,96,0,95,463.0068782999999,,,,,,,,,,,,,,,,,,,,,,,462.991303,463.0068782999999,463.4913018,,,,,,,,,,,,463.5371171999998,,,,,,,,,,,,463.53427639999995,463.5371171999998,463.5371171999998,463.5371171999998,466.5072773999998,shoe,f,1.618447500000002,0.11943229999997129,466.5074425,466.50749729999984,None,,,,,,,,,,,,,,,,,00050,001,2026-01-18_16h12.54.357,MST_task,2024.2.0,59.8600233215135,2026-01-18 16h13.04.481071 +0530,
,Objects\062a.jpg,96,0,97,,,,,,,f,2.1169583999999304,0.23371670000005906,None,,,,,,97,0,96,466.5235194999998,,,,,,,,,,,,,,,,,,,,,,,466.507742,466.5235194999998,467.00823719999994,,,,,,,,,,,,467.0296787,,,,,,,,,,,,467.02638079999974,467.0296787,467.0296787,467.0296787,470.02462579999997,shoe,f,2.1169583999999304,0.23371670000005906,470.02481980000016,470.02488990000006,None,,,,,,,,,,,,,,,,,00050,001,2026-01-18_16h12.54.357,MST_task,2024.2.0,59.8600233215135,2026-01-18 16h13.04.481071 +0530,
,Objects\029a.jpg,97,0,98,,,,,,,f,1.5234608000000662,0.15257900000005975,None,,,,,,98,0,97,470.04054770000016,,,,,,,,,,,,,,,,,,,,,,,470.0252063999999,470.04054770000016,470.52466690000006,,,,,,,,,,,,470.56715310000004,,,,,,,,,,,,470.5642956999998,470.56715310000004,470.56715310000004,470.56715310000004,473.5405672999998,shoe,f,1.5234608000000662,0.15257900000005975,473.54072370000017,473.5407874,None,,,,,,,,,,,,,,,,,00050,001,2026-01-18_16h12.54.357,MST_task,2024.2.0,59.8600233215135,2026-01-18 16h13.04.481071 +0530,
,Objects\104a.jpg,98,0,99,,,,,,,f,2.0325442000003022,0.13504969999985406,None,,,,,,99,0,98,473.5566772999998,,,,,,,,,,,,,,,,,,,,,,,473.54102350000016,473.5566772999998,474.04132349999986,,,,,,,,,,,,474.07510819999993,,,,,,,,,,,,474.0715355,474.07510819999993,474.07510819999993,474.07510819999993,477.0572620999999,indoor,f,2.0325442000003022,0.13504969999985406,477.06204890000004,477.0621119,None,,,,,,,,,,,,,,,,,00050,001,2026-01-18_16h12.54.357,MST_task,2024.2.0,59.8600233215135,2026-01-18 16h13.04.481071 +0530,
,Objects\183a.jpg,99,0,100,,,,,,,f,1.3812945999998192,0.17632050000020172,None,,,,,,100,0,99,477.07313739999995,,,,,,,,,,,,,,,,,,,,,,,477.06231909999974,477.07313739999995,477.5582836000001,,,,,,,,,,,,477.57379890000016,,,,,,,,,,,,477.5658504999999,477.57379890000016,477.57379890000016,477.57379890000016,480.55859899999973,indoor,f,1.3812945999998192,0.17632050000020172,480.55875249999985,480.5588200999998,None,480.57355459999985,480.57355459999985,480.57355459999985,,,,,,,,,,,,,,00050,001,2026-01-18_16h12.54.357,MST_task,2024.2.0,59.8600233215135,2026-01-18 16h13.04.481071 +0530,
,Objects\098a.jpg,100,0,101,,,,,,,f,1.7257924000000457,0.20860700000002907,None,,,,,,101,0,100,480.57355459999985,,,,,,,,,,,,,,,,,,,,,,,480.55913369999985,480.57355459999985,481.05770689999986,,,,,,,,,,,,481.1012094,,,,,,,,,,,,481.09802049999985,481.1012094,481.1012094,481.1012094,484.0740414999998,indoor,f,1.7257924000000457,0.20860700000002907,484.0742109999999,484.07425839999974,None,,,,,,,,,,,,,,,,,00050,001,2026-01-18_16h12.54.357,MST_task,2024.2.0,59.8600233215135,2026-01-18 16h13.04.481071 +0530,
,Objects\099a.jpg,101,0,102,,,,,,,f,1.8504228000001604,0.24849489999996877,None,,,,,,102,0,101,484.09036029999993,,,,,,,,,,,,,,,,,,,,,,,484.0744738000001,484.09036029999993,484.5746692,,,,,,,,,,,,484.6171299,,,,,,,,,,,,484.61405979999995,484.6171299,484.6171299,484.6171299,487.5907145999997,indoor,f,1.8504228000001604,0.24849489999996877,487.59089489999974,487.5909393999998,None,,,,,,,,,,,,,,,,,00050,001,2026-01-18_16h12.54.357,MST_task,2024.2.0,59.8600233215135,2026-01-18 16h13.04.481071 +0530,
,Objects\110a.jpg,102,0,103,,,,,,,None,,,f,0.7505958000001556,None,,,,103,0,102,487.6069325000001,,,,,,,,,,,,,,,,,,,,,,,487.59115069999984,487.6069325000001,488.09157530000016,,,,,,,,,,,,488.1463292000001,,,,,,,,,,,,488.1436857000001,488.1463292000001,488.1463292000001,488.1463292000001,491.10754539999994,indoor,None,,,491.10771769999997,491.8918821,f,,,,491.1243649999999,491.1243649999999,0.7505958000001556,None,,,,,,,,,,00050,001,2026-01-18_16h12.54.357,MST_task,2024.2.0,59.8600233215135,2026-01-18 16h13.04.481071 +0530,
,Objects\227a.jpg,103,0,104,,,,,,,f,1.3860733000001346,0.19125080000003436,None,,,,,,104,0,103,491.9072260999999,,,,,,,,,,,,,,,,,,,,,,,491.89213889999996,491.9072260999999,492.3911547,,,,,,,,,,,,492.4335272999999,,,,,,,,,,,,492.43100660000005,492.4335272999999,492.4335272999999,492.4335272999999,495.4074573999999,indoor,f,1.3860733000001346,0.19125080000003436,495.4076385999999,495.40770970000017,None,,,,,,,,,,,,,,,,,00050,001,2026-01-18_16h12.54.357,MST_task,2024.2.0,59.8600233215135,2026-01-18 16h13.04.481071 +0530,
,Objects\208a.jpg,104,0,105,,,,,,,f,1.9877631999997902,0.14484680000032313,None,,,,,,105,0,104,495.4235661,,,,,,,,,,,,,,,,,,,,,,,495.40801380000016,495.4235661,495.9079890999999,,,,,,,,,,,,495.95105279999984,,,,,,,,,,,,495.9476508,495.95105279999984,495.95105279999984,495.95105279999984,498.9240334999997,indoor,f,1.9877631999997902,0.14484680000032313,498.9242228999999,498.9242901,None,,,,,,,,,,,,,,,,,00050,001,2026-01-18_16h12.54.357,MST_task,2024.2.0,59.8600233215135,2026-01-18 16h13.04.481071 +0530,
,Objects\162a.jpg,105,0,106,,,,,,,j,2.1175868000000264,0.13485579999996844,None,,,,,,106,0,105,498.9402103,,,,,,,,,,,,,,,,,,,,,,,498.9245484999999,498.9402103,499.4248049,,,,,,,,,,,,499.4701269999998,,,,,,,,,,,,499.4670635,499.4701269999998,499.4701269999998,499.4701269999998,502.4406026999998,shoe,j,2.1175868000000264,0.13485579999996844,502.4443880000001,502.4444160999999,None,,,,,,,,,,,,,,,,,00050,001,2026-01-18_16h12.54.357,MST_task,2024.2.0,59.8600233215135,2026-01-18 16h13.04.481071 +0530,
,Objects\020a.jpg,106,0,107,,,,,,,f,2.1894970999996985,0.1684639000000061,None,,,,,,107,0,106,502.456962,,,,,,,,,,,,,,,,,,,,,,,502.44452769999975,502.456962,502.9416091999999,,,,,,,,,,,,502.9736190000001,,,,,,,,,,,,502.9706742000001,502.9736190000001,502.9736190000001,502.9736190000001,505.95737669999994,shoe,f,2.1894970999996985,0.1684639000000061,505.95749679999994,505.9575413,None,,,,,,,,,,,,,,,,,00050,001,2026-01-18_16h12.54.357,MST_task,2024.2.0,59.8600233215135,2026-01-18 16h13.04.481071 +0530,
,Objects\275a.jpg,107,0,108,,,,,,,f,1.718217800000275,0.21678939999992508,None,,,,,,108,0,107,505.97356639999975,,,,,,,,,,,,,,,,,,,,,,,505.9579805999999,505.97356639999975,506.4580675999998,,,,,,,,,,,,506.5168857000001,,,,,,,,,,,,506.51304890000006,506.5168857000001,506.5168857000001,506.5168857000001,509.4740362,shoe,f,1.718217800000275,0.21678939999992508,509.4742094999999,509.474281,None,,,,,,,,,,,,,,,,,00050,001,2026-01-18_16h12.54.357,MST_task,2024.2.0,59.8600233215135,2026-01-18 16h13.04.481071 +0530,
,Objects\332a.jpg,108,0,109,,,,,,,j,2.677796199999648,0.1688177999999425,None,,,,,,109,0,108,509.4902172999998,,,,,,,,,,,,,,,,,,,,,,,509.4745968,509.4902172999998,509.9747590999998,,,,,,,,,,,,510.02124590000017,,,,,,,,,,,,510.0172326999998,510.02124590000017,510.02124590000017,510.02124590000017,512.9909605999999,shoe,j,2.677796199999648,0.1688177999999425,512.9911498999998,512.9912198,None,,,,,,,,,,,,,,,,,00050,001,2026-01-18_16h12.54.357,MST_task,2024.2.0,59.8600233215135,2026-01-18 16h13.04.481071 +0530,
,Objects\340a.jpg,109,0,110,,,,,,,None,,,f,1.143055699999877,None,,,,110,0,109,513.0068927999998,,,,,,,,,,,,,,,,,,,,,,,512.9915511000002,513.0068927999998,513.4914671999998,,,,,,,,,,,,513.5283882000001,,,,,,,,,,,,513.5253986999999,513.5283882000001,513.5283882000001,513.5283882000001,516.5072057999998,shoe,None,,,516.5073575999998,517.6758244,f,,,,516.5236373999999,516.5236373999999,1.143055699999877,None,,,,,,,,,,00050,001,2026-01-18_16h12.54.357,MST_task,2024.2.0,59.8600233215135,2026-01-18 16h13.04.481071 +0530,
,Objects\224a.jpg,110,0,111,,,,,,,j,1.1618075999999746,0.16821989999971265,None,,,,,,111,0,110,517.6903838000001,,,,,,,,,,,,,,,,,,,,,,,517.6761983999997,517.6903838000001,518.1745868,,,,,,,,,,,,518.2096178999998,,,,,,,,,,,,518.2063677999997,518.2096178999998,518.2096178999998,518.2096178999998,521.1905801999999,shoe,j,1.1618075999999746,0.16821989999971265,521.1907758999998,521.1908464999999,None,,,,,,,,,,,,,,,,,00050,001,2026-01-18_16h12.54.357,MST_task,2024.2.0,59.8600233215135,2026-01-18 16h13.04.481071 +0530,
,Objects\277a.jpg,111,0,112,,,,,,,f,1.7642407000003004,0.23990460000004532,None,,,,,,112,0,111,521.2070111999999,,,,,,,,,,,,,,,,,,,,,,,521.1911573,521.2070111999999,521.6914381999998,,,,,,,,,,,,521.7515775999998,,,,,,,,,,,,521.7473659999998,521.7515775999998,521.7515775999998,521.7515775999998,524.7074105999998,shoe,f,1.7642407000003004,0.23990460000004532,524.7075710000001,524.7076245999999,None,,,,,,,,,,,,,,,,,00050,001,2026-01-18_16h12.54.357,MST_task,2024.2.0,59.8600233215135,2026-01-18 16h13.04.481071 +0530,
,Objects\126a.jpg,112,0,113,,,,,,,f,2.769151200000124,0.14470879999998942,None,,,,,,113,0,112,524.7235683000001,,,,,,,,,,,,,,,,,,,,,,,524.7078715999999,524.7235683000001,525.2081771000001,,,,,,,,,,,,525.2577619000001,,,,,,,,,,,,525.2545650999998,525.2577619000001,525.2577619000001,525.2577619000001,528.2240418999997,indoor,f,2.769151200000124,0.14470879999998942,528.2287690999999,528.2288416999997,None,,,,,,,,,,,,,,,,,00050,001,2026-01-18_16h12.54.357,MST_task,2024.2.0,59.8600233215135,2026-01-18 16h13.04.481071 +0530,
,Objects\371a.jpg,113,0,114,,,,,,,j,1.0051109999999426,0.19864440000037575,None,,,,,,114,0,113,528.2406106999999,,,,,,,,,,,,,,,,,,,,,,,528.2290839999998,528.2406106999999,528.7246054,,,,,,,,,,,,528.7754889,,,,,,,,,,,,528.7720877999998,528.7754889,528.7754889,528.7754889,531.7405735,indoor,j,1.0051109999999426,0.19864440000037575,531.7407067000001,531.7407762,None,,,,,,,,,,,,,,,,,00050,001,2026-01-18_16h12.54.357,MST_task,2024.2.0,59.8600233215135,2026-01-18 16h13.04.481071 +0530,
,Objects\171a.jpg,114,0,115,,,,,,,f,0.8940600999999333,0.31081140000014784,None,,,,,,115,0,114,531.7570199999998,,,,,,,,,,,,,,,,,,,,,,,531.7410879000001,531.7570199999998,532.2413681999999,,,,,,,,,,,,532.2855701999999,,,,,,,,,,,,532.2824911999999,532.2855701999999,532.2855701999999,532.2855701999999,535.2573500000001,indoor,f,0.8940600999999333,0.31081140000014784,535.2574704000001,535.2575153999999,None,,,,,,,,,,,,,,,,,00050,001,2026-01-18_16h12.54.357,MST_task,2024.2.0,59.8600233215135,2026-01-18 16h13.04.481071 +0530,
,Objects\130a.jpg,115,0,116,,,,,,,f,1.813981099999637,0.21680090000018026,None,,,,,,116,0,115,535.2736186,,,,,,,,,,,,,,,,,,,,,,,535.2577201000001,535.2736186,535.7578634999998,,,,,,,,,,,,535.8051162999998,,,,,,,,,,,,535.802074,535.8051162999998,535.8051162999998,535.8051162999998,538.7741041000002,indoor,f,1.813981099999637,0.21680090000018026,538.7742672000002,538.7743075999999,None,,,,,,,,,,,,,,,,,00050,001,2026-01-18_16h12.54.357,MST_task,2024.2.0,59.8600233215135,2026-01-18 16h13.04.481071 +0530,
,Objects\025a.jpg,116,0,117,,,,,,,f,2.316740799999934,0.19261320000032356,None,,,,,,117,0,116,538.7902984999998,,,,,,,,,,,,,,,,,,,,,,,538.7745029999999,538.7902984999998,539.2750479999997,,,,,,,,,,,,539.3583366999999,,,,,,,,,,,,539.3551657999999,539.3583366999999,539.3583366999999,539.3583366999999,542.2909627000001,indoor,f,2.316740799999934,0.19261320000032356,542.2911394,542.2912088999999,None,,,,,,,,,,,,,,,,,00050,001,2026-01-18_16h12.54.357,MST_task,2024.2.0,59.8600233215135,2026-01-18 16h13.04.481071 +0530,
,Objects\027a.jpg,117,0,118,,,,,,,f,1.8002748999997493,0.15146400000003268,None,,,,,,118,0,117,542.3070139999998,,,,,,,,,,,,,,,,,,,,,,,542.2915225999998,542.3070139999998,542.7916902,,,,,,,,,,,,542.8273240000001,,,,,,,,,,,,542.8242684999998,542.8273240000001,542.8273240000001,542.8273240000001,545.8074180000001,indoor,f,1.8002748999997493,0.15146400000003268,545.8075885000001,545.8076374,None,,,,,,,,,,,,,,,,,00050,001,2026-01-18_16h12.54.357,MST_task,2024.2.0,59.8600233215135,2026-01-18 16h13.04.481071 +0530,
,Objects\100a.jpg,118,0,119,,,,,,,f,1.3923179999997046,0.2146287000000484,None,,,,,,119,0,118,545.8239182,,,,,,,,,,,,,,,,,,,,,,,545.8078779999998,545.8239182,546.3079270999999,,,,,,,,,,,,546.3558793,,,,,,,,,,,,546.3527333999998,546.3558793,546.3558793,546.3558793,549.3240567999999,indoor,f,1.3923179999997046,0.2146287000000484,549.3241689999998,549.3242118999999,None,,,,,,,,,,,,,,,,,00050,001,2026-01-18_16h12.54.357,MST_task,2024.2.0,59.8600233215135,2026-01-18 16h13.04.481071 +0530,
,Objects\369a.jpg,119,0,120,,,,,,,f,1.9863761999999952,0.2725017999996453,None,,,,,,120,0,119,549.3401922,,,,,,,,,,,,,,,,,,,,,,,549.3244044999999,549.3401922,549.8247853,,,,,,,,,,,,549.840594,,,,,,,,,,,,549.8320087,549.840594,549.840594,549.840594,552.8252215999998,shoe,f,1.9863761999999952,0.2725017999996453,552.8301555999999,552.8301982999999,None,552.8404733,552.8404733,552.8404733,,,,,,,,,,,,,,00050,001,2026-01-18_16h12.54.357,MST_task,2024.2.0,59.8600233215135,2026-01-18 16h13.04.481071 +0530,
,Objects\374a.jpg,120,0,121,,,,,,,f,1.9496091999999408,0.3288041999999223,None,,,,,,121,0,120,552.8404733,,,,,,,,,,,,,,,,,,,,,,,552.8304495999998,552.8404733,553.3248775999998,,,,,,,,,,,,553.3408854000002,,,,,,,,,,,,553.3313378999999,553.3408854000002,553.3408854000002,553.3408854000002,556.3255846999998,shoe,f,1.9496091999999408,0.3288041999999223,556.3256970999998,556.3257354999998,None,556.3402441000001,556.3402441000001,556.3402441000001,,,,,,,,,,,,,,00050,001,2026-01-18_16h12.54.357,MST_task,2024.2.0,59.8600233215135,2026-01-18 16h13.04.481071 +0530,
,Objects\233a.jpg,121,0,122,,,,,,,f,2.011023700000351,0.25696689999995215,None,,,,,,122,0,121,556.3402441000001,,,,,,,,,,,,,,,,,,,,,,,556.3259986,556.3402441000001,556.8247711000001,,,,,,,,,,,,556.8637356000002,,,,,,,,,,,,556.8597566999999,556.8637356000002,556.8637356000002,556.8637356000002,559.8406288999997,shoe,f,2.011023700000351,0.25696689999995215,559.8407443999997,559.840786,None,,,,,,,,,,,,,,,,,00050,001,2026-01-18_16h12.54.357,MST_task,2024.2.0,59.8600233215135,2026-01-18 16h13.04.481071 +0530,
,Objects\117a.jpg,122,0,123,,,,,,,None,,,f,0.5651216000001114,None,,,,123,0,122,559.8570409000001,,,,,,,,,,,,,,,,,,,,,,,559.8409755999999,559.8570409000001,560.3413807999998,,,,,,,,,,,,560.3915131000001,,,,,,,,,,,,560.3880772999998,560.3915131000001,560.3915131000001,560.3915131000001,563.3573502000002,shoe,None,,,563.3574651000001,563.9419423000002,f,,,,563.3739156999998,563.3739156999998,0.5651216000001114,None,,,,,,,,,,00050,001,2026-01-18_16h12.54.357,MST_task,2024.2.0,59.8600233215135,2026-01-18 16h13.04.481071 +0530,
,Objects\315a.jpg,123,0,124,,,,,,,f,1.5380453999996462,0.15173400000003312,None,,,,,,124,0,123,563.9570431999998,,,,,,,,,,,,,,,,,,,,,,,563.9422612999999,563.9570431999998,564.4414816999999,,,,,,,,,,,,564.4575259999999,,,,,,,,,,,,564.4474340999998,564.4575259999999,564.4575259999999,564.4575259999999,567.4419878000001,shoe,f,1.5380453999996462,0.15173400000003312,567.4421712000001,567.4422536999998,None,567.4576094000001,567.4576094000001,567.4576094000001,,,,,,,,,,,,,,00050,001,2026-01-18_16h12.54.357,MST_task,2024.2.0,59.8600233215135,2026-01-18 16h13.04.481071 +0530,
,Objects\081a.jpg,124,0,125,,,,,,,f,1.634877299999971,0.28727950000029523,None,,,,,,125,0,124,567.4576094000001,,,,,,,,,,,,,,,,,,,,,,,567.4425682999997,567.4576094000001,567.9414018999998,,,,,,,,,,,,567.9843564999999,,,,,,,,,,,,567.9791619,567.9843564999999,567.9843564999999,567.9843564999999,570.9576371,shoe,f,1.634877299999971,0.28727950000029523,570.9578015,570.9578518000001,None,,,,,,,,,,,,,,,,,00050,001,2026-01-18_16h12.54.357,MST_task,2024.2.0,59.8600233215135,2026-01-18 16h13.04.481071 +0530,
,Objects\223a.jpg,125,0,126,,,,,,,f,2.1811784999999873,0.21739449999995486,None,,,,,,126,0,125,570.9736255,,,,,,,,,,,,,,,,,,,,,,,570.9580920999999,570.9736255,571.4584042999998,,,,,,,,,,,,571.5013422,,,,,,,,,,,,571.4983377000001,571.5013422,571.5013422,571.5013422,574.4741219,shoe,f,2.1811784999999873,0.21739449999995486,574.4743032999997,574.4743732,None,,,,,,,,,,,,,,,,,00050,001,2026-01-18_16h12.54.357,MST_task,2024.2.0,59.8600233215135,2026-01-18 16h13.04.481071 +0530,
,Objects\347a.jpg,126,0,127,,,,,,,f,1.8683427999999367,0.21589190000031522,None,,,,,,127,0,126,574.4901751999998,,,,,,,,,,,,,,,,,,,,,,,574.4747310999999,574.4901751999998,574.9748366000001,,,,,,,,,,,,574.9905228999999,,,,,,,,,,,,574.9819096999997,574.9905228999999,574.9905228999999,574.9905228999999,577.9756423000001,indoor,f,1.8683427999999367,0.21589190000031522,577.9802017,577.9802406000001,None,577.9902008000001,577.9902008000001,577.9902008000001,,,,,,,,,,,,,,00050,001,2026-01-18_16h12.54.357,MST_task,2024.2.0,59.8600233215135,2026-01-18 16h13.04.481071 +0530,
,Objects\047a.jpg,127,0,128,,,,,,,f,1.3475720000001274,0.38338340000018434,None,,,,,,128,0,127,577.9902008000001,,,,,,,,,,,,,,,,,,,,,,,577.9803995999998,577.9902008000001,578.4746324,,,,,,,,,,,,578.5117583999997,,,,,,,,,,,,578.5085318999998,578.5117583999997,578.5117583999997,578.5117583999997,581.4907784,indoor,f,1.3475720000001274,0.38338340000018434,581.4909334000001,581.4909799999998,None,,,,,,,,,,,,,,,,,00050,001,2026-01-18_16h12.54.357,MST_task,2024.2.0,59.8600233215135,2026-01-18 16h13.04.481071 +0530,
,Objects\144a.jpg,128,0,129,,,,,,,f,1.7052803000001404,0.20876490000000558,None,,,,,,129,0,128,581.5069015000001,,,,,,,,,,,,,,,,,,,,,,,581.4912004999999,581.5069015000001,581.9916854,,,,,,,,,,,,582.0421691999998,,,,,,,,,,,,582.0394423999999,582.0421691999998,582.0421691999998,582.0421691999998,585.0073572999997,indoor,f,1.7052803000001404,0.20876490000000558,585.0075476999998,585.0076167,None,,,,,,,,,,,,,,,,,00050,001,2026-01-18_16h12.54.357,MST_task,2024.2.0,59.8600233215135,2026-01-18 16h13.04.481071 +0530,
,Objects\123a.jpg,129,0,130,,,,,,,j,1.5075119999996787,0.16107720000036352,None,,,,,,130,0,129,585.0237193,,,,,,,,,,,,,,,,,,,,,,,585.0079233999998,585.0237193,585.5079361,,,,,,,,,,,,585.5510299999999,,,,,,,,,,,,585.5482442999999,585.5510299999999,585.5510299999999,585.5510299999999,588.5242117,indoor,j,1.5075119999996787,0.16107720000036352,588.5243376000001,588.5243844999998,None,,,,,,,,,,,,,,,,,00050,001,2026-01-18_16h12.54.357,MST_task,2024.2.0,59.8600233215135,2026-01-18 16h13.04.481071 +0530,
,Objects\256a.jpg,130,0,131,,,,,,,f,2.2071405000001505,0.18411409999998796,None,,,,,,131,0,130,588.5401423000001,,,,,,,,,,,,,,,,,,,,,,,588.5245994999998,588.5401423000001,589.0246454999999,,,,,,,,,,,,589.0599691999998,,,,,,,,,,,,589.0568615999998,589.0599691999998,589.0599691999998,589.0599691999998,592.0408531,indoor,f,2.2071405000001505,0.18411409999998796,592.0410482999998,592.0411182999999,None,,,,,,,,,,,,,,,,,00050,001,2026-01-18_16h12.54.357,MST_task,2024.2.0,59.8600233215135,2026-01-18 16h13.04.481071 +0530,
,Objects\303a.jpg,131,0,132,,,,,,,f,2.8859583999997085,None,None,,,,,,132,0,131,592.0569620999997,,,,,,,,,,,,,,,,,,,,,,,592.0414337999998,592.0569620999997,592.5416794999999,,,,,,,,,,,,592.5574064999998,,,,,,,,,,,,592.5506407999999,592.5574064999998,592.5574064999998,592.5574064999998,595.5424010999998,indoor,f,2.8859583999997085,None,595.5425226,595.5425634000001,None,595.5567637000001,595.5567637000001,595.5567637000001,,,,,,,,,,,,,,00050,001,2026-01-18_16h12.54.357,MST_task,2024.2.0,59.8600233215135,2026-01-18 16h13.04.481071 +0530,
,Objects\059a.jpg,132,0,133,,,,,,,f,2.0860610999998244,0.1434177000001,None,,,,,,133,0,132,595.5567637000001,,,,,,,,,,,,,,,,,,,,,,,595.5427511,595.5567637000001,596.0411969999998,,,,,,,,,,,,596.0854861,,,,,,,,,,,,596.0816194000001,596.0854861,596.0854861,596.0854861,599.0572915999999,indoor,f,2.0860610999998244,0.1434177000001,599.0574635,599.0575262999998,None,,,,,,,,,,,,,,,,,00050,001,2026-01-18_16h12.54.357,MST_task,2024.2.0,59.8600233215135,2026-01-18 16h13.04.481071 +0530,
,Objects\353a.jpg,133,0,134,,,,,,,f,1.8221792999997888,0.1597991000003276,None,,,,,,134,0,133,599.0736439999998,,,,,,,,,,,,,,,,,,,,,,,599.0578196999998,599.0736439999998,599.5580342999999,,,,,,,,,,,,599.5974155000001,,,,,,,,,,,,599.5932168000002,599.5974155000001,599.5974155000001,599.5974155000001,602.5578813,shoe,f,1.8221792999997888,0.1597991000003276,602.5636698999999,602.5637162999999,None,,,,,,,,,,,,,,,,,00050,001,2026-01-18_16h12.54.357,MST_task,2024.2.0,59.8600233215135,2026-01-18 16h13.04.481071 +0530,
,Objects\080a.jpg,134,0,135,,,,,,,f,2.32997209999985,0.19057180000027074,None,,,,,,135,0,134,602.5735677999999,,,,,,,,,,,,,,,,,,,,,,,602.5638992000002,602.5735677999999,603.0578914999999,,,,,,,,,,,,603.1144707999999,,,,,,,,,,,,603.1105071,603.1144707999999,603.1144707999999,603.1144707999999,606.0739000000001,shoe,f,2.32997209999985,0.19057180000027074,606.0740748000001,606.0741434999998,None,,,,,,,,,,,,,,,,,00050,001,2026-01-18_16h12.54.357,MST_task,2024.2.0,59.8600233215135,2026-01-18 16h13.04.481071 +0530,
,Objects\356a.jpg,135,0,136,,,,,,,f,2.581332199999906,0.25564570000005915,None,,,,,,136,0,135,606.0906336999999,,,,,,,,,,,,,,,,,,,,,,,606.0744548999999,606.0906336999999,606.5747033,,,,,,,,,,,,606.6143629999999,,,,,,,,,,,,606.6112148999998,606.6143629999999,606.6143629999999,606.6143629999999,609.5750046,shoe,f,2.581332199999906,0.25564570000005915,609.5751837999999,609.5752488999999,None,,,,,,,,,,,,,,,,,00050,001,2026-01-18_16h12.54.357,MST_task,2024.2.0,59.8600233215135,2026-01-18 16h13.04.481071 +0530,
,Objects\178a.jpg,136,0,137,,,,,,,f,1.6966815999999199,0.32986990000017613,None,,,,,,137,0,136,609.5903940000001,,,,,,,,,,,,,,,,,,,,,,,609.57576,609.5903940000001,610.0746151000001,,,,,,,,,,,,610.1138263999999,,,,,,,,,,,,610.1108596000001,610.1138263999999,610.1138263999999,610.1138263999999,613.0906471999999,shoe,f,1.6966815999999199,0.32986990000017613,613.0907731999998,613.0908157000001,None,,,,,,,,,,,,,,,,,00050,001,2026-01-18_16h12.54.357,MST_task,2024.2.0,59.8600233215135,2026-01-18 16h13.04.481071 +0530,
,Objects\076a.jpg,137,0,138,,,,,,,f,1.346487000000252,0.270969299999706,None,,,,,,138,0,137,613.1076270000001,,,,,,,,,,,,,,,,,,,,,,,613.0910117999999,613.1076270000001,613.5914629000001,,,,,,,,,,,,613.6250947999999,,,,,,,,,,,,613.6223469999998,613.6250947999999,613.6250947999999,613.6250947999999,616.5910468999998,shoe,f,1.346487000000252,0.270969299999706,616.5912218999999,616.5912929999997,None,,,,,,,,,,,,,,,,,00050,001,2026-01-18_16h12.54.357,MST_task,2024.2.0,59.8600233215135,2026-01-18 16h13.04.481071 +0530,
,Objects\295a.jpg,138,0,139,,,,,,,f,1.8003155999999763,0.27150609999989683,None,,,,,,139,0,138,616.6069472000001,,,,,,,,,,,,,,,,,,,,,,,616.5916618999997,616.6069472000001,617.0912870999998,,,,,,,,,,,,617.1309613999999,,,,,,,,,,,,617.1274915000001,617.1309613999999,617.1309613999999,617.1309613999999,620.1074628999997,shoe,f,1.8003155999999763,0.27150609999989683,620.1076382999997,620.1077069999999,None,,,,,,,,,,,,,,,,,00050,001,2026-01-18_16h12.54.357,MST_task,2024.2.0,59.8600233215135,2026-01-18 16h13.04.481071 +0530,
,Objects\250a.jpg,139,0,140,,,,,,,f,1.7730810000002748,0.21698479999986375,None,,,,,,140,0,139,620.1237943999997,,,,,,,,,,,,,,,,,,,,,,,620.1080681999999,620.1237943999997,620.6079283000001,,,,,,,,,,,,620.6458331000001,,,,,,,,,,,,620.6424764000001,620.6458331000001,620.6458331000001,620.6458331000001,623.6239370000001,shoe,f,1.7730810000002748,0.21698479999986375,623.6240842,623.6241354000001,None,,,,,,,,,,,,,,,,,00050,001,2026-01-18_16h12.54.357,MST_task,2024.2.0,59.8600233215135,2026-01-18 16h13.04.481071 +0530,
,Objects\358a.jpg,140,0,141,,,,,,,f,1.7386562000001504,0.17557309999983772,None,,,,,,141,0,140,623.6401675999998,,,,,,,,,,,,,,,,,,,,,,,623.6243591999998,623.6401675999998,624.1245138000002,,,,,,,,,,,,624.1763359999998,,,,,,,,,,,,624.1734979,624.1763359999998,624.1763359999998,624.1763359999998,627.1409077999999,indoor,f,1.7386562000001504,0.17557309999983772,627.1444399,627.1444746,None,,,,,,,,,,,,,,,,,00050,001,2026-01-18_16h12.54.357,MST_task,2024.2.0,59.8600233215135,2026-01-18 16h13.04.481071 +0530,
,Objects\380a.jpg,141,0,142,,,,,,,f,2.2327918999999383,0.20084630000019388,None,,,,,,142,0,141,627.1569197000001,,,,,,,,,,,,,,,,,,,,,,,627.1446285,627.1569197000001,627.6413875000001,,,,,,,,,,,,627.6900155999999,,,,,,,,,,,,627.6868665,627.6900155999999,627.6900155999999,627.6900155999999,630.6572617999998,indoor,f,2.2327918999999383,0.20084630000019388,630.6574394000002,630.6575083,None,,,,,,,,,,,,,,,,,00050,001,2026-01-18_16h12.54.357,MST_task,2024.2.0,59.8600233215135,2026-01-18 16h13.04.481071 +0530,
,Objects\368a.jpg,142,0,143,,,,,,,f,1.2652122999998028,0.17496040000014546,None,,,,,,143,0,142,630.6742991999997,,,,,,,,,,,,,,,,,,,,,,,630.6577942000001,630.6742991999997,631.1579844999999,,,,,,,,,,,,631.2030972999999,,,,,,,,,,,,631.1981864000002,631.2030972999999,631.2030972999999,631.2030972999999,634.1742791999998,indoor,f,1.2652122999998028,0.17496040000014546,634.1743820999998,634.1744164999998,None,,,,,,,,,,,,,,,,,00050,001,2026-01-18_16h12.54.357,MST_task,2024.2.0,59.8600233215135,2026-01-18 16h13.04.481071 +0530,
,Objects\151a.jpg,143,0,144,,,,,,,f,1.4208920000000944,0.16740230000004885,None,,,,,,144,0,143,634.1903013999997,,,,,,,,,,,,,,,,,,,,,,,634.1745742999999,634.1903013999997,634.6749471999999,,,,,,,,,,,,634.7183930999997,,,,,,,,,,,,634.7152614999998,634.7183930999997,634.7183930999997,634.7183930999997,637.6910058999999,indoor,f,1.4208920000000944,0.16740230000004885,637.6911155,637.6911563000001,None,,,,,,,,,,,,,,,,,00050,001,2026-01-18_16h12.54.357,MST_task,2024.2.0,59.8600233215135,2026-01-18 16h13.04.481071 +0530,
,Objects\230a.jpg,144,0,145,,,,,,,j,1.004644599999665,0.1844960000003084,None,,,,,,145,0,144,637.7068431999999,,,,,,,,,,,,,,,,,,,,,,,637.6913484999998,637.7068431999999,638.1912645,,,,,,,,,,,,638.2382221999999,,,,,,,,,,,,638.2341395000001,638.2382221999999,638.2382221999999,638.2382221999999,641.2077148000001,indoor,j,1.004644599999665,0.1844960000003084,641.2079034999999,641.2079717999998,None,,,,,,,,,,,,,,,,,00050,001,2026-01-18_16h12.54.357,MST_task,2024.2.0,59.8600233215135,2026-01-18 16h13.04.481071 +0530,
,Objects\314a.jpg,145,0,146,,,,,,,f,1.4742668000003505,0.17537409999977172,None,,,,,,146,0,145,641.2235982,,,,,,,,,,,,,,,,,,,,,,,641.2082803999999,641.2235982,641.7079812,,,,,,,,,,,,641.7454952999999,,,,,,,,,,,,641.7424736,641.7454952999999,641.7454952999999,641.7454952999999,644.7239665,indoor,f,1.4742668000003505,0.17537409999977172,644.7241292000001,644.7241711999998,None,,,,,,,,,,,,,,,,,00050,001,2026-01-18_16h12.54.357,MST_task,2024.2.0,59.8600233215135,2026-01-18 16h13.04.481071 +0530,
,Objects\051a.jpg,146,0,147,,,,,,,f,1.5188969999999244,0.12062580000019807,None,,,,,,147,0,146,644.7405605000001,,,,,,,,,,,,,,,,,,,,,,,644.7243593999999,644.7405605000001,645.2246204999999,,,,,,,,,,,,645.2602122000001,,,,,,,,,,,,645.2563379000001,645.2602122000001,645.2602122000001,645.2602122000001,648.2406918999998,indoor,f,1.5188969999999244,0.12062580000019807,648.2408632999998,648.2409332999998,None,,,,,,,,,,,,,,,,,00050,001,2026-01-18_16h12.54.357,MST_task,2024.2.0,59.8600233215135,2026-01-18 16h13.04.481071 +0530,
,Objects\205a.jpg,147,0,148,,,,,,,f,2.582267799999954,0.1844492000000173,None,,,,,,148,0,147,648.2567717,,,,,,,,,,,,,,,,,,,,,,,648.2412397,648.2567717,648.7416451000001,,,,,,,,,,,,648.7572293999999,,,,,,,,,,,,648.7497215999999,648.7572293999999,648.7572293999999,648.7572293999999,651.7422389999999,shoe,f,2.582267799999954,0.1844492000000173,651.7456570000002,651.7456873999997,None,651.7570426999998,651.7570426999998,651.7570426999998,,,,,,,,,,,,,,00050,001,2026-01-18_16h12.54.357,MST_task,2024.2.0,59.8600233215135,2026-01-18 16h13.04.481071 +0530,
,Objects\121a.jpg,148,0,149,,,,,,,f,2.1461960000001454,0.11236949999965873,None,,,,,,149,0,148,651.7570426999998,,,,,,,,,,,,,,,,,,,,,,,651.7458135999998,651.7570426999998,652.2414038999998,,,,,,,,,,,,652.2648363999999,,,,,,,,,,,,652.2618257000001,652.2648363999999,652.2648363999999,652.2648363999999,655.2572760999999,shoe,f,2.1461960000001454,0.11236949999965873,655.2573939000001,655.2574376999999,None,,,,,,,,,,,,,,,,,00050,001,2026-01-18_16h12.54.357,MST_task,2024.2.0,59.8600233215135,2026-01-18 16h13.04.481071 +0530,
,Objects\122a.jpg,149,0,150,,,,,,,f,2.0189979000001586,0.10437759999967966,None,,,,,,150,0,149,655.2739138999998,,,,,,,,,,,,,,,,,,,,,,,655.2576447999998,655.2739138999998,655.7580165000002,,,,,,,,,,,,655.7923858000001,,,,,,,,,,,,655.7894638,655.7923858000001,655.7923858000001,655.7923858000001,658.7743662999999,shoe,f,2.0189979000001586,0.10437759999967966,658.7744990999997,658.7745468,None,,,,,,,,,,,,,,,,,00050,001,2026-01-18_16h12.54.357,MST_task,2024.2.0,59.8600233215135,2026-01-18 16h13.04.481071 +0530,
,Objects\140a.jpg,150,0,151,,,,,,,f,2.333741700000246,0.1202725999996801,None,,,,,,151,0,150,658.7902670000001,,,,,,,,,,,,,,,,,,,,,,,658.7747679000001,658.7902670000001,659.2749824,,,,,,,,,,,,659.3178654999999,,,,,,,,,,,,659.3142592000002,659.3178654999999,659.3178654999999,659.3178654999999,662.2906019999998,shoe,f,2.333741700000246,0.1202725999996801,662.2907619999999,662.2908028999998,None,,,,,,,,,,,,,,,,,00050,001,2026-01-18_16h12.54.357,MST_task,2024.2.0,59.8600233215135,2026-01-18 16h13.04.481071 +0530,
,Objects\093a.jpg,151,0,152,,,,,,,f,1.8840632999999798,0.15239859999974215,None,,,,,,152,0,151,662.3068894,,,,,,,,,,,,,,,,,,,,,,,662.2909923,662.3068894,662.7913845999999,,,,,,,,,,,,662.8384709999998,,,,,,,,,,,,662.8355387999998,662.8384709999998,662.8384709999998,662.8384709999998,665.8074995999998,shoe,f,1.8840632999999798,0.15239859999974215,665.8076831999999,665.8077520999998,None,,,,,,,,,,,,,,,,,00050,001,2026-01-18_16h12.54.357,MST_task,2024.2.0,59.8600233215135,2026-01-18 16h13.04.481071 +0530,
,Objects\193a.jpg,152,0,153,,,,,,,f,2.368363000000045,0.26433959999985746,None,,,,,,153,0,152,665.8245140000001,,,,,,,,,,,,,,,,,,,,,,,665.8080177999998,665.8245140000001,666.3238217,,,,,,,,,,,,,,,,,,,,,,,,666.3674653,666.3709182999999,666.3709182999999,666.3709182999999,669.3242284999999,shoe,f,2.368363000000045,0.26433959999985746,669.3244025000001,669.3244665,None,,,,,,,,,,,,,,,,,00050,001,2026-01-18_16h12.54.357,MST_task,2024.2.0,59.8600233215135,2026-01-18 16h13.04.481071 +0530,
,Objects\120a.jpg,153,0,154,,,,,,,f,1.8184911999996984,0.14433390000021973,None,,,,,,154,0,153,669.3403329,,,,,,,,,,,,,,,,,,,,,,,669.3247570000001,669.3403329,669.8250295,,,,,,,,,,,,669.8404705999999,,,,,,,,,,,,669.8329603999998,669.8404705999999,669.8404705999999,669.8404705999999,672.8254190999999,shoe,f,1.8184911999996984,0.14433390000021973,672.8255926999998,672.8256657,None,672.8403950999998,672.8403950999998,672.8403950999998,,,,,,,,,,,,,,00050,001,2026-01-18_16h12.54.357,MST_task,2024.2.0,59.8600233215135,2026-01-18 16h13.04.481071 +0530,
,Objects\184a.jpg,154,0,155,,,,,,,j,2.4720422000000326,0.28771039999992354,None,,,,,,155,0,154,672.8403950999998,,,,,,,,,,,,,,,,,,,,,,,672.8259863000001,672.8403950999998,673.3247909999998,,,,,,,,,,,,673.3630897999999,,,,,,,,,,,,673.3597941999999,673.3630897999999,673.3630897999999,673.3630897999999,676.3406781000001,indoor,j,2.4720422000000326,0.28771039999992354,676.3457107000002,676.3457597999998,None,,,,,,,,,,,,,,,,,00050,001,2026-01-18_16h12.54.357,MST_task,2024.2.0,59.8600233215135,2026-01-18 16h13.04.481071 +0530,
,Objects\247a.jpg,155,0,156,,,,,,,f,1.8592871000000741,0.2642452999998568,None,,,,,,156,0,155,676.3566957,,,,,,,,,,,,,,,,,,,,,,,676.3459507999999,676.3566957,676.8416577999999,,,,,,,,,,,,676.8874733,,,,,,,,,,,,676.8838843000001,676.8874733,676.8874733,676.8874733,679.8576682,indoor,f,1.8592871000000741,0.2642452999998568,679.8577941000001,679.8578408000001,None,,,,,,,,,,,,,,,,,00050,001,2026-01-18_16h12.54.357,MST_task,2024.2.0,59.8600233215135,2026-01-18 16h13.04.481071 +0530,
,Objects\007a.jpg,156,0,157,,,,,,,f,1.239632100000108,0.20704769999974815,None,,,,,,157,0,156,679.8737048999999,,,,,,,,,,,,,,,,,,,,,,,679.8580577,679.8737048999999,680.3580807999999,,,,,,,,,,,,680.4115193,,,,,,,,,,,,680.4082215999999,680.4115193,680.4115193,680.4115193,683.3737005999999,indoor,f,1.239632100000108,0.20704769999974815,683.37384,683.3738845999999,None,,,,,,,,,,,,,,,,,00050,001,2026-01-18_16h12.54.357,MST_task,2024.2.0,59.8600233215135,2026-01-18 16h13.04.481071 +0530,
,Objects\261a.jpg,157,0,158,,,,,,,f,1.3755285000002004,0.18375800000012532,None,,,,,,158,0,157,683.3903683000001,,,,,,,,,,,,,,,,,,,,,,,683.3740851999999,683.3903683000001,683.8748196999998,,,,,,,,,,,,683.9242048999997,,,,,,,,,,,,683.9183001999997,683.9242048999997,683.9242048999997,683.9242048999997,686.8745071999999,indoor,f,1.3755285000002004,0.18375800000012532,686.8746261999997,686.8746699000001,None,,,,,,,,,,,,,,,,,00050,001,2026-01-18_16h12.54.357,MST_task,2024.2.0,59.8600233215135,2026-01-18 16h13.04.481071 +0530,
,Objects\231a.jpg,158,0,159,,,,,,,j,1.334501100000125,0.08026849999987462,None,,,,,,159,0,158,686.8902420000002,,,,,,,,,,,,,,,,,,,,,,,686.8748735000001,686.8902420000002,687.3741466999998,,,,,,,,,,,,687.4198485999998,,,,,,,,,,,,687.4162555999999,687.4198485999998,687.4198485999998,687.4198485999998,690.3903745,indoor,j,1.334501100000125,0.08026849999987462,690.3904802999998,690.3905177999998,None,,,,,,,,,,,,,,,,,00050,001,2026-01-18_16h12.54.357,MST_task,2024.2.0,59.8600233215135,2026-01-18 16h13.04.481071 +0530,
,Objects\350a.jpg,159,0,160,,,,,,,f,1.5674275000001217,0.13628299999982119,None,,,,,,160,0,159,690.4069315999998,,,,,,,,,,,,,,,,,,,,,,,690.3906936000001,690.4069315999998,690.8913789000001,,,,,,,,,,,,690.9394091000001,,,,,,,,,,,,690.9364727,690.9394091000001,690.9394091000001,690.9394091000001,693.9073671999997,indoor,f,1.5674275000001217,0.13628299999982119,693.9075402999999,693.9076023999999,None,,,,,,,,,,,,,,,,,00050,001,2026-01-18_16h12.54.357,MST_task,2024.2.0,59.8600233215135,2026-01-18 16h13.04.481071 +0530,
,Objects\127a.jpg,160,0,161,,,,,,,f,2.4432623000002422,0.19915579999997135,None,,,,,,161,0,160,693.9235944999998,,,,,,,,,,,,,,,,,,,,,,,693.9078908999998,693.9235944999998,694.4080289999999,,,,,,,,,,,,694.4242661000001,,,,,,,,,,,,694.4142359999998,694.4242661000001,694.4242661000001,694.4242661000001,697.4086900999998,indoor,f,2.4432623000002422,0.19915579999997135,697.4088673999997,697.4089348,None,697.4236767999998,697.4236767999998,697.4236767999998,,,,,,,,,,,,,,00050,001,2026-01-18_16h12.54.357,MST_task,2024.2.0,59.8600233215135,2026-01-18 16h13.04.481071 +0530,
,Objects\049a.jpg,161,0,162,,,,,,,f,2.013573300000189,0.1512735999999677,None,,,,,,162,0,161,697.4236767999998,,,,,,,,,,,,,,,,,,,,,,,697.4091483,697.4236767999998,697.9079147999998,,,,,,,,,,,,697.9496956999999,,,,,,,,,,,,697.9462832000002,697.9496956999999,697.9496956999999,697.9496956999999,700.9241097000001,shoe,f,2.013573300000189,0.1512735999999677,700.9292911,700.9293460000001,None,,,,,,,,,,,,,,,,,00050,001,2026-01-18_16h12.54.357,MST_task,2024.2.0,59.8600233215135,2026-01-18 16h13.04.481071 +0530,
,Objects\112a.jpg,162,0,163,,,,,,,f,1.687275199999931,0.15168930000027103,None,,,,,,163,0,162,700.9406455000001,,,,,,,,,,,,,,,,,,,,,,,700.9295756999998,700.9406455000001,701.4246099,,,,,,,,,,,,701.4679119,,,,,,,,,,,,701.4646325000001,701.4679119,701.4679119,701.4679119,704.4408034,shoe,f,1.687275199999931,0.15168930000027103,704.4409625999999,704.4410046,None,,,,,,,,,,,,,,,,,00050,001,2026-01-18_16h12.54.357,MST_task,2024.2.0,59.8600233215135,2026-01-18 16h13.04.481071 +0530,
,Objects\008a.jpg,163,0,164,,,,,,,f,1.2871261000000231,0.21653969999988476,None,,,,,,164,0,163,704.4568111000001,,,,,,,,,,,,,,,,,,,,,,,704.4411962000001,704.4568111000001,704.9412224,,,,,,,,,,,,704.9875940999998,,,,,,,,,,,,704.9840169000001,704.9875940999998,704.9875940999998,704.9875940999998,707.9575097999998,shoe,f,1.2871261000000231,0.21653969999988476,707.9577096,707.9577779999997,None,,,,,,,,,,,,,,,,,00050,001,2026-01-18_16h12.54.357,MST_task,2024.2.0,59.8600233215135,2026-01-18 16h13.04.481071 +0530,
,Objects\327a.jpg,164,0,165,,,,,,,j,1.3941921000000548,0.2637500999999247,None,,,,,,165,0,164,707.9738755999999,,,,,,,,,,,,,,,,,,,,,,,707.9581325000001,707.9738755999999,708.4576731,,,,,,,,,,,,708.5133306999999,,,,,,,,,,,,708.5103668999998,708.5133306999999,708.5133306999999,708.5133306999999,711.4741919,shoe,j,1.3941921000000548,0.2637500999999247,711.4743744999998,711.4744451999998,None,,,,,,,,,,,,,,,,,00050,001,2026-01-18_16h12.54.357,MST_task,2024.2.0,59.8600233215135,2026-01-18 16h13.04.481071 +0530,
,Objects\301a.jpg,165,0,166,,,,,,,j,2.2322211000000607,0.15157959999987725,None,,,,,,166,0,165,711.4902282,,,,,,,,,,,,,,,,,,,,,,,711.4747488,711.4902282,711.9747387,,,,,,,,,,,,712.0110735000001,,,,,,,,,,,,712.0080009000001,712.0110735000001,712.0110735000001,712.0110735000001,714.9906798999998,shoe,j,2.2322211000000607,0.15157959999987725,714.9908730999998,714.9909421,None,,,,,,,,,,,,,,,,,00050,001,2026-01-18_16h12.54.357,MST_task,2024.2.0,59.8600233215135,2026-01-18 16h13.04.481071 +0530,
,Objects\147a.jpg,166,0,167,,,,,,,f,1.6864181999999346,0.3046408000000156,None,,,,,,167,0,166,715.0069111,,,,,,,,,,,,,,,,,,,,,,,714.9912570999998,715.0069111,715.4915349999999,,,,,,,,,,,,715.5405714999999,,,,,,,,,,,,715.5374731999998,715.5405714999999,715.5405714999999,715.5405714999999,718.5079023999999,shoe,f,1.6864181999999346,0.3046408000000156,718.5080092999999,718.5080482999999,None,,,,,,,,,,,,,,,,,00050,001,2026-01-18_16h12.54.357,MST_task,2024.2.0,59.8600233215135,2026-01-18 16h13.04.481071 +0530,
,Objects\003a.jpg,167,0,168,,,,,,,j,1.590579599999728,0.18265700000029028,None,,,,,,168,0,167,718.5235728,,,,,,,,,,,,,,,,,,,,,,,718.5082279999999,718.5235728,719.0080296999997,,,,,,,,,,,,719.0610527000001,,,,,,,,,,,,719.057779,719.0610527000001,719.0610527000001,719.0610527000001,722.0241078000001,shoe,j,1.590579599999728,0.18265700000029028,722.0242249999999,722.0242615999998,None,,,,,,,,,,,,,,,,,00050,001,2026-01-18_16h12.54.357,MST_task,2024.2.0,59.8600233215135,2026-01-18 16h13.04.481071 +0530,
,Objects\052a.jpg,168,0,169,,,,,,,f,2.0824204999998983,0.21588500000007116,None,,,,,,169,0,168,722.0403820999998,,,,,,,,,,,,,,,,,,,,,,,722.0244319000001,722.0403820999998,722.5250334,,,,,,,,,,,,722.5687101000001,,,,,,,,,,,,722.5661027999997,722.5687101000001,722.5687101000001,722.5687101000001,725.5407855999999,indoor,f,2.0824204999998983,0.21588500000007116,725.5446598999999,725.5447029999998,None,,,,,,,,,,,,,,,,,00050,001,2026-01-18_16h12.54.357,MST_task,2024.2.0,59.8600233215135,2026-01-18 16h13.04.481071 +0530,
,Objects\032a.jpg,169,0,170,,,,,,,j,1.1820726999999351,0.2712276000002021,None,,,,,,170,0,169,725.5569226,,,,,,,,,,,,,,,,,,,,,,,725.5448696999999,725.5569226,726.0414383,,,,,,,,,,,,726.0855678,,,,,,,,,,,,726.0821426999998,726.0855678,726.0855678,726.0855678,729.0572970999999,indoor,j,1.1820726999999351,0.2712276000002021,729.0574288999999,729.0574764999999,None,,,,,,,,,,,,,,,,,00050,001,2026-01-18_16h12.54.357,MST_task,2024.2.0,59.8600233215135,2026-01-18 16h13.04.481071 +0530,
,Objects\006a.jpg,170,0,171,,,,,,,f,2.8786785000002055,None,None,,,,,,171,0,170,729.0735292000002,,,,,,,,,,,,,,,,,,,,,,,729.0576988999999,729.0735292000002,729.5577900000001,,,,,,,,,,,,729.5955095000002,,,,,,,,,,,,729.5917907,729.5955095000002,729.5955095000002,729.5955095000002,732.5741412,indoor,f,2.8786785000002055,None,732.5743393,732.5743906,None,,,,,,,,,,,,,,,,,00050,001,2026-01-18_16h12.54.357,MST_task,2024.2.0,59.8600233215135,2026-01-18 16h13.04.481071 +0530,
,Objects\096a.jpg,171,0,172,,,,,,,f,2.0434353999999075,0.12782130000005054,None,,,,,,172,0,171,732.5902447000001,,,,,,,,,,,,,,,,,,,,,,,732.5746235999998,732.5902447000001,733.0746959999999,,,,,,,,,,,,733.0958617999997,,,,,,,,,,,,733.0929989999997,733.0958617999997,733.0958617999997,733.0958617999997,736.0749339000001,indoor,f,2.0434353999999075,0.12782130000005054,736.0750734999999,736.0751217,None,,,,,,,,,,,,,,,,,00050,001,2026-01-18_16h12.54.357,MST_task,2024.2.0,59.8600233215135,2026-01-18 16h13.04.481071 +0530,
,Objects\245a.jpg,172,0,173,,,,,,,f,1.0461584000004223,0.22472919999972873,None,,,,,,173,0,172,736.0906997,,,,,,,,,,,,,,,,,,,,,,,736.0753397000001,736.0906997,736.5745838,,,,,,,,,,,,736.6124625,,,,,,,,,,,,736.6095385000001,736.6124625,736.6124625,736.6124625,739.5907657999999,indoor,f,1.0461584000004223,0.22472919999972873,739.5909377999999,739.5910047,None,,,,,,,,,,,,,,,,,00050,001,2026-01-18_16h12.54.357,MST_task,2024.2.0,59.8600233215135,2026-01-18 16h13.04.481071 +0530,
,Objects\164a.jpg,173,0,174,,,,,,,f,1.7793323000000782,0.2159083000001374,None,,,,,,174,0,173,739.6072287,,,,,,,,,,,,,,,,,,,,,,,739.5913244000001,739.6072287,740.0916421999998,,,,,,,,,,,,740.1281418000001,,,,,,,,,,,,740.1251833999997,740.1281418000001,740.1281418000001,740.1281418000001,743.1074934999999,indoor,f,1.7793323000000782,0.2159083000001374,743.1076547,743.1076961000001,None,,,,,,,,,,,,,,,,,00050,001,2026-01-18_16h12.54.357,MST_task,2024.2.0,59.8600233215135,2026-01-18 16h13.04.481071 +0530,
,Objects\075a.jpg,174,0,175,,,,,,,f,2.253074800000377,0.3605969999998706,None,,,,,,175,0,174,743.1236416999998,,,,,,,,,,,,,,,,,,,,,,,743.1078894999998,743.1236416999998,743.6077334999998,,,,,,,,,,,,743.6380744,,,,,,,,,,,,743.6347834000001,743.6380744,743.6380744,743.6380744,746.6241342999999,indoor,f,2.253074800000377,0.3605969999998706,746.6243081999999,746.6243781000001,None,,,,,,,,,,,,,,,,,00050,001,2026-01-18_16h12.54.357,MST_task,2024.2.0,59.8600233215135,2026-01-18 16h13.04.481071 +0530,
,Objects\284a.jpg,175,0,176,,,,,,,None,,,j,0.5332633000002716,None,,,,176,0,175,746.6402282000001,,,,,,,,,,,,,,,,,,,,,,,746.6246853999999,746.6402282000001,747.1245815,,,,,,,,,,,,747.1634668999998,,,,,,,,,,,,747.1606414999999,747.1634668999998,747.1634668999998,747.1634668999998,750.1405201999999,shoe,None,,,750.1442737999998,750.7088445000002,j,,,,750.1580685000001,750.1580685000001,0.5332633000002716,None,,,,,,,,,,00050,001,2026-01-18_16h12.54.357,MST_task,2024.2.0,59.8600233215135,2026-01-18 16h13.04.481071 +0530,
