thisN,thisTrialN,thisRepN,key_resp_3.keys,key_resp_3.rt,key_resp_3.duration,trials.thisRepN,trials.thisTrialN,trials.thisN,thisRow.t,notes,intro_page.started,text.started,key_resp.started,intro_page.stopped,key_resp.keys,key_resp.rt,key_resp.duration,instructions.started,text_2.started,key_resp_2.started,instructions.stopped,key_resp_2.keys,key_resp_2.rt,key_resp_2.duration,demo1.started,image_1.started,image_2.started,text_7.started,key_resp_6.started,text_9.started,demo1.stopped,key_resp_6.keys,key_resp_6.rt,key_resp_6.duration,demo3.started,image_5.started,image_6.started,text_11.started,text_12.started,key_resp_8.started,demo3.stopped,key_resp_8.keys,key_resp_8.rt,key_resp_8.duration,demo_conclusion.started,text_13.started,key_resp_9.started,demo_conclusion.stopped,key_resp_9.keys,key_resp_9.rt,key_resp_9.duration,start_test.started,text_6.started,key_resp_5.started,start_test.stopped,key_resp_5.keys,key_resp_5.rt,key_resp_5.duration,ISI.started,text_4.started,text_4.stopped,ISI.stopped,routine_1.started,image.started,text_3.started,key_resp_3.started,routine_1.stopped,image_path,position_of_stimuli,trials.key_resp_3.keys,trials.key_resp_3.rt,trials.key_resp_3.duration,End_page.started,text_5.started,key_resp_4.started,End_page.stopped,key_resp_4.keys,key_resp_4.rt,key_resp_4.duration,participant,session,date,expName,psychopyVersion,frameRate,expStart,
,,,,,,,,,,,0.0014562999999725434,0.0035323000001881155,0.0035323000001881155,15.450450100000126,space,15.43625750000001,None,,,,,,,,,,,,,,,,,,,,,,,,,,,,,,,,,,,,,,,,,,,,,,,,,,,,,,,,,,,,,,,00050,001,2026-01-18_16h37.27.121,MST_test,2024.2.0,60.52341862891323,2026-01-18 16h37.51.940219 +0530,
,,,,,,,,,,,,,,,,,,15.450535700000273,15.46781510000028,15.46781510000028,29.362206900000274,space,13.891786300000149,None,,,,,,,,,,,,,,,,,,,,,,,,,,,,,,,,,,,,,,,,,,,,,,,,,,,,,,,,00050,001,2026-01-18_16h37.27.121,MST_test,2024.2.0,60.52341862891323,2026-01-18 16h37.51.940219 +0530,
,,,,,,,,,,,,,,,,,,,,,,,,,29.36230620000015,29.397490700000162,29.397490700000162,29.397490700000162,29.397490700000162,29.397490700000162,38.77867270000024,space,9.370495000000119,None,,,,,,,,,,,,,,,,,,,,,,,,,,,,,,,,,,,,,,,,,,,,,,00050,001,2026-01-18_16h37.27.121,MST_test,2024.2.0,60.52341862891323,2026-01-18 16h37.51.940219 +0530,
,,,,,,,,,,,,,,,,,,,,,,,,,,,,,,,,,,,38.778739000000314,38.79449390000036,38.79449390000036,38.79449390000036,38.79449390000036,38.79449390000036,43.6961153000002,space,4.884513100000277,None,,,,,,,,,,,,,,,,,,,,,,,,,,,,,,,,,,,,00050,001,2026-01-18_16h37.27.121,MST_test,2024.2.0,60.52341862891323,2026-01-18 16h37.51.940219 +0530,
,,,,,,,,,,,,,,,,,,,,,,,,,,,,,,,,,,,,,,,,,,,,,43.696239200000036,43.71028200000001,43.71028200000001,60.06276930000013,space,16.345901199999844,None,,,,,,,,,,,,,,,,,,,,,,,,,,,,,00050,001,2026-01-18_16h37.27.121,MST_test,2024.2.0,60.52341862891323,2026-01-18 16h37.51.940219 +0530,
,,,,,,,,,,,,,,,,,,,,,,,,,,,,,,,,,,,,,,,,,,,,,,,,,,,,60.06287340000017,60.08925470000031,60.08925470000031,122.36254839999992,space,62.262736900000164,None,,,,,,,,,,,,,,,,,,,,,,00050,001,2026-01-18_16h37.27.121,MST_test,2024.2.0,60.52341862891323,2026-01-18 16h37.51.940219 +0530,
0,0,1,s,6.4730759999997645,None,1,0,0,122.37745970000014,,,,,,,,,,,,,,,,,,,,,,,,,,,,,,,,,,,,,,,,,,,,,,,,,,122.36901750000015,122.37745970000014,122.87819190000027,122.86148390000017,122.87560639999992,122.87819190000027,122.87819190000027,122.87819190000027,129.36300759999995,Objects\118a.jpg,post,s,6.4730759999997645,None,,,,,,,,00050,001,2026-01-18_16h37.27.121,MST_test,2024.2.0,60.52341862891323,2026-01-18 16h37.51.940219 +0530,
1,0,2,o,3.7309863000000405,None,2,0,1,129.376976,,,,,,,,,,,,,,,,,,,,,,,,,,,,,,,,,,,,,,,,,,,,,,,,,,129.36330510000016,129.376976,129.8772401000001,129.86140320000004,129.86987080000017,129.8772401000001,129.8772401000001,129.8772401000001,133.61271710000028,Objects\108a.jpg,mid,o,3.7309863000000405,None,,,,,,,,00050,001,2026-01-18_16h37.27.121,MST_test,2024.2.0,60.52341862891323,2026-01-18 16h37.51.940219 +0530,
2,0,3,o,2.3290202000002864,None,3,0,2,133.62695030000032,,,,,,,,,,,,,,,,,,,,,,,,,,,,,,,,,,,,,,,,,,,,,,,,,,133.61306400000012,133.62695030000032,134.12734500000033,134.11149270000033,134.11760430000004,134.12734500000033,134.12734500000033,134.12734500000033,136.4625973000002,Objects\258a.jpg,post,o,2.3290202000002864,None,,,,,,,,00050,001,2026-01-18_16h37.27.121,MST_test,2024.2.0,60.52341862891323,2026-01-18 16h37.51.940219 +0530,
3,0,4,o,1.9105092000004333,None,4,0,3,136.47701039999993,,,,,,,,,,,,,,,,,,,,,,,,,,,,,,,,,,,,,,,,,,,,,,,,,,136.46292170000015,136.47701039999993,136.97738789999994,136.96133080000027,136.96736390000024,136.97738789999994,136.97738789999994,136.97738789999994,138.8959334000001,Objects\313a.jpg,mid,o,1.9105092000004333,None,,,,,,,,00050,001,2026-01-18_16h37.27.121,MST_test,2024.2.0,60.52341862891323,2026-01-18 16h37.51.940219 +0530,
4,0,5,n,2.7327844999999797,None,5,0,4,138.91068930000029,,,,,,,,,,,,,,,,,,,,,,,,,,,,,,,,,,,,,,,,,,,,,,,,,,138.89624520000007,138.91068930000029,139.4107051000001,139.39486490000036,139.4026197000003,139.4107051000001,139.4107051000001,139.4107051000001,142.14565459999994,Foils\101b.jpg,none,n,2.7327844999999797,None,,,,,,,,00050,001,2026-01-18_16h37.27.121,MST_test,2024.2.0,60.52341862891323,2026-01-18 16h37.51.940219 +0530,
5,0,6,n,2.987573099999736,None,6,0,5,142.1602310000003,,,,,,,,,,,,,,,,,,,,,,,,,,,,,,,,,,,,,,,,,,,,,,,,,,142.14595140000029,142.1602310000003,142.66057070000033,142.64473980000002,142.65263350000032,142.66057070000033,142.66057070000033,142.66057070000033,145.6626212000001,Foils\073a.jpg,none,n,2.987573099999736,None,,,,,,,,00050,001,2026-01-18_16h37.27.121,MST_test,2024.2.0,60.52341862891323,2026-01-18 16h37.51.940219 +0530,
6,0,7,n,2.1663002999998753,None,7,0,6,145.67693860000008,,,,,,,,,,,,,,,,,,,,,,,,,,,,,,,,,,,,,,,,,,,,,,,,,,145.66292350000003,145.67693860000008,146.1772919,146.16141130000005,146.16946260000032,146.1772919,146.1772919,146.1772919,148.34582900000032,Foils\121a.jpg,none,n,2.1663002999998753,None,,,,,,,,00050,001,2026-01-18_16h37.27.121,MST_test,2024.2.0,60.52341862891323,2026-01-18 16h37.51.940219 +0530,
7,0,8,o,3.910729899999751,None,8,0,7,148.36041160000013,,,,,,,,,,,,,,,,,,,,,,,,,,,,,,,,,,,,,,,,,,,,,,,,,,148.3462227,148.36041160000013,148.89022730000033,148.84468590000006,148.88748020000003,148.89022730000033,148.89022730000033,148.89022730000033,152.81218030000036,Objects\042b.jpg,mid,o,3.910729899999751,None,,,,,,,,00050,001,2026-01-18_16h37.27.121,MST_test,2024.2.0,60.52341862891323,2026-01-18 16h37.51.940219 +0530,
8,0,9,o,1.5443591000002925,None,9,0,8,152.82694119999996,,,,,,,,,,,,,,,,,,,,,,,,,,,,,,,,,,,,,,,,,,,,,,,,,,152.81241,152.82694119999996,153.32684530000006,153.31150950000028,153.31815060000008,153.32684530000006,153.32684530000006,153.32684530000006,154.8789025000001,Objects\066a.jpg,post,o,1.5443591000002925,None,,,,,,,,00050,001,2026-01-18_16h37.27.121,MST_test,2024.2.0,60.52341862891323,2026-01-18 16h37.51.940219 +0530,
9,0,10,s,3.0688045000001694,None,10,0,9,154.8936977000003,,,,,,,,,,,,,,,,,,,,,,,,,,,,,,,,,,,,,,,,,,,,,,,,,,154.8792344000003,154.8936977000003,155.3951333,155.37847749999992,155.3839656,155.3951333,155.3951333,155.3951333,158.47932519999995,Objects\284b.jpg,post,s,3.0688045000001694,None,,,,,,,,00050,001,2026-01-18_16h37.27.121,MST_test,2024.2.0,60.52341862891323,2026-01-18 16h37.51.940219 +0530,
10,0,11,n,4.758138900000176,None,11,0,10,158.49378690000003,,,,,,,,,,,,,,,,,,,,,,,,,,,,,,,,,,,,,,,,,,,,,,,,,,158.47969980000016,158.49378690000003,158.99420370000007,158.97797100000025,158.98606870000003,158.99420370000007,158.99420370000007,158.99420370000007,163.7625011,Foils\026a.jpg,none,n,4.758138900000176,None,,,,,,,,00050,001,2026-01-18_16h37.27.121,MST_test,2024.2.0,60.52341862891323,2026-01-18 16h37.51.940219 +0530,
11,0,12,n,2.5628881000002366,None,12,0,11,163.77685910000037,,,,,,,,,,,,,,,,,,,,,,,,,,,,,,,,,,,,,,,,,,,,,,,,,,163.76282750000018,163.77685910000037,164.27718129999994,164.26199910000014,164.26992210000026,164.27718129999994,164.27718129999994,164.27718129999994,166.84564940000018,Foils\090a.jpg,none,n,2.5628881000002366,None,,,,,,,,00050,001,2026-01-18_16h37.27.121,MST_test,2024.2.0,60.52341862891323,2026-01-18 16h37.51.940219 +0530,
12,0,13,n,2.2862027999999555,None,13,0,12,166.86050320000004,,,,,,,,,,,,,,,,,,,,,,,,,,,,,,,,,,,,,,,,,,,,,,,,,,166.84596760000022,166.86050320000004,167.36076110000022,167.34500340000022,167.35127469999998,167.36076110000022,167.36076110000022,167.36076110000022,169.66232800000034,Foils\009a.jpg,none,n,2.2862027999999555,None,,,,,,,,00050,001,2026-01-18_16h37.27.121,MST_test,2024.2.0,60.52341862891323,2026-01-18 16h37.51.940219 +0530,
13,0,14,s,2.1338791000002857,None,14,0,13,169.67707530000007,,,,,,,,,,,,,,,,,,,,,,,,,,,,,,,,,,,,,,,,,,,,,,,,,,169.66265569999996,169.67707530000007,170.17774929999996,170.1615472000003,170.16978719999997,170.17774929999996,170.17774929999996,170.17774929999996,172.32861730000013,Objects\161a.jpg,mid,s,2.1338791000002857,None,,,,,,,,00050,001,2026-01-18_16h37.27.121,MST_test,2024.2.0,60.52341862891323,2026-01-18 16h37.51.940219 +0530,
14,0,15,s,9.561959000000115,None,15,0,14,172.34379820000004,,,,,,,,,,,,,,,,,,,,,,,,,,,,,,,,,,,,,,,,,,,,,,,,,,172.3290317000001,172.34379820000004,172.8779671000002,172.82791670000006,172.87509760000012,172.8779671000002,172.8779671000002,172.8779671000002,182.4456594000003,Objects\109b.jpg,pre,s,9.561959000000115,None,,,,,,,,00050,001,2026-01-18_16h37.27.121,MST_test,2024.2.0,60.52341862891323,2026-01-18 16h37.51.940219 +0530,
15,0,16,s,1.7531264999997802,None,16,0,15,182.46042820000002,,,,,,,,,,,,,,,,,,,,,,,,,,,,,,,,,,,,,,,,,,,,,,,,,,182.4461220000003,182.46042820000002,182.9824947000002,182.9451511000002,182.97959690000016,182.9824947000002,182.9824947000002,182.9824947000002,184.74574759999996,Objects\096b.jpg,mid,s,1.7531264999997802,None,,,,,,,,00050,001,2026-01-18_16h37.27.121,MST_test,2024.2.0,60.52341862891323,2026-01-18 16h37.51.940219 +0530,
16,0,17,o,2.739610399999947,None,17,0,16,184.76038580000022,,,,,,,,,,,,,,,,,,,,,,,,,,,,,,,,,,,,,,,,,,,,,,,,,,184.74617639999997,184.76038580000022,185.26058409999996,185.24452960000008,185.25272730000006,185.26058409999996,185.26058409999996,185.26058409999996,188.01237700000001,Objects\170a.jpg,mid,o,2.739610399999947,None,,,,,,,,00050,001,2026-01-18_16h37.27.121,MST_test,2024.2.0,60.52341862891323,2026-01-18 16h37.51.940219 +0530,
17,0,18,s,1.7202982999997403,None,18,0,17,188.02710680000018,,,,,,,,,,,,,,,,,,,,,,,,,,,,,,,,,,,,,,,,,,,,,,,,,,188.01281120000021,188.02710680000018,188.54289020000033,188.5117083,188.54042049999998,188.54289020000033,188.54289020000033,188.54289020000033,190.2787972000001,Objects\097b.jpg,mid,s,1.7202982999997403,None,,,,,,,,00050,001,2026-01-18_16h37.27.121,MST_test,2024.2.0,60.52341862891323,2026-01-18 16h37.51.940219 +0530,
18,0,19,s,3.164847500000178,None,19,0,18,190.29365690000031,,,,,,,,,,,,,,,,,,,,,,,,,,,,,,,,,,,,,,,,,,,,,,,,,,190.27915940000003,190.29365690000031,190.84279590000006,190.77827230000003,190.84002240000018,190.84279590000006,190.84279590000006,190.84279590000006,194.0121919000003,Objects\377b.jpg,post,s,3.164847500000178,None,,,,,,,,00050,001,2026-01-18_16h37.27.121,MST_test,2024.2.0,60.52341862891323,2026-01-18 16h37.51.940219 +0530,
19,0,20,s,1.5376031999999213,None,20,0,19,194.02716439999995,,,,,,,,,,,,,,,,,,,,,,,,,,,,,,,,,,,,,,,,,,,,,,,,,,194.01243479999994,194.02716439999995,194.55735300000015,194.5115498,194.55464040000015,194.55735300000015,194.55735300000015,194.55735300000015,196.1120665000003,Objects\292b.jpg,post,s,1.5376031999999213,None,,,,,,,,00050,001,2026-01-18_16h37.27.121,MST_test,2024.2.0,60.52341862891323,2026-01-18 16h37.51.940219 +0530,
20,0,21,o,1.987974099999974,None,21,0,20,196.1270399,,,,,,,,,,,,,,,,,,,,,,,,,,,,,,,,,,,,,,,,,,,,,,,,,,196.1123104000003,196.1270399,196.62824390000014,196.61148850000018,196.62439339999992,196.62824390000014,196.62824390000014,196.62824390000014,198.62909160000027,Objects\330a.jpg,pre,o,1.987974099999974,None,,,,,,,,00050,001,2026-01-18_16h37.27.121,MST_test,2024.2.0,60.52341862891323,2026-01-18 16h37.51.940219 +0530,
21,0,22,s,4.248344499999803,None,22,0,21,198.6437407000003,,,,,,,,,,,,,,,,,,,,,,,,,,,,,,,,,,,,,,,,,,,,,,,,,,198.62944180000022,198.6437407000003,199.16795330000014,199.1282484000003,199.1642157000001,199.16795330000014,199.16795330000014,199.16795330000014,203.42996960000028,Objects\178b.jpg,mid,s,4.248344499999803,None,,,,,,,,00050,001,2026-01-18_16h37.27.121,MST_test,2024.2.0,60.52341862891323,2026-01-18 16h37.51.940219 +0530,
22,0,23,n,1.982768699999724,None,23,0,22,203.44373940000014,,,,,,,,,,,,,,,,,,,,,,,,,,,,,,,,,,,,,,,,,,,,,,,,,,203.4303047000003,203.44373940000014,203.94422080000004,203.9280143000001,203.93283240000028,203.94422080000004,203.94422080000004,203.94422080000004,205.9291949000003,Foils\f7.jpg,none,n,1.982768699999724,None,,,,,,,,00050,001,2026-01-18_16h37.27.121,MST_test,2024.2.0,60.52341862891323,2026-01-18 16h37.51.940219 +0530,
23,0,24,n,0.9786020000001372,None,24,0,23,205.94379060000028,,,,,,,,,,,,,,,,,,,,,,,,,,,,,,,,,,,,,,,,,,,,,,,,,,205.92947380000032,205.94379060000028,206.46165079999992,206.42818780000016,206.45877440000004,206.46165079999992,206.46165079999992,206.46165079999992,207.4457921000003,Foils\f5.jpg,none,n,0.9786020000001372,None,,,,,,,,00050,001,2026-01-18_16h37.27.121,MST_test,2024.2.0,60.52341862891323,2026-01-18 16h37.51.940219 +0530,
24,0,25,o,2.5430685999999696,None,25,0,24,207.46023920000016,,,,,,,,,,,,,,,,,,,,,,,,,,,,,,,,,,,,,,,,,,,,,,,,,,207.44608000000017,207.46023920000016,207.96084360000032,207.94496040000013,207.9513726,207.96084360000032,207.96084360000032,207.96084360000032,210.51200139999992,Objects\266a.jpg,mid,o,2.5430685999999696,None,,,,,,,,00050,001,2026-01-18_16h37.27.121,MST_test,2024.2.0,60.52341862891323,2026-01-18 16h37.51.940219 +0530,
25,0,26,s,1.8629608999999618,None,26,0,25,210.52703229999997,,,,,,,,,,,,,,,,,,,,,,,,,,,,,,,,,,,,,,,,,,,,,,,,,,210.51222800000005,210.52703229999997,211.07243599999993,211.01181730000008,211.06928150000022,211.07243599999993,211.07243599999993,211.07243599999993,212.9451670000003,Objects\208b.jpg,pre,s,1.8629608999999618,None,,,,,,,,00050,001,2026-01-18_16h37.27.121,MST_test,2024.2.0,60.52341862891323,2026-01-18 16h37.51.940219 +0530,
26,0,27,s,1.8981189000000995,None,27,0,26,212.96038050000016,,,,,,,,,,,,,,,,,,,,,,,,,,,,,,,,,,,,,,,,,,,,,,,,,,212.9453728000003,212.96038050000016,213.4608691000003,213.44482740000012,213.4508552000002,213.4608691000003,213.4608691000003,213.4608691000003,215.36202120000007,Objects\337a.jpg,post,s,1.8981189000000995,None,,,,,,,,00050,001,2026-01-18_16h37.27.121,MST_test,2024.2.0,60.52341862891323,2026-01-18 16h37.51.940219 +0530,
27,0,28,o,1.5939791999999215,None,28,0,27,215.37755270000025,,,,,,,,,,,,,,,,,,,,,,,,,,,,,,,,,,,,,,,,,,,,,,,,,,215.36233630000015,215.37755270000025,215.87842230000024,215.8614603000001,215.86785210000016,215.87842230000024,215.87842230000024,215.87842230000024,217.47929539999996,Objects\184a.jpg,post,o,1.5939791999999215,None,,,,,,,,00050,001,2026-01-18_16h37.27.121,MST_test,2024.2.0,60.52341862891323,2026-01-18 16h37.51.940219 +0530,
28,0,29,s,1.530756200000269,None,29,0,28,217.49368649999997,,,,,,,,,,,,,,,,,,,,,,,,,,,,,,,,,,,,,,,,,,,,,,,,,,217.47955000000002,217.49368649999997,218.0209079000001,217.97837280000022,218.01795290000018,218.0209079000001,218.0209079000001,218.0209079000001,219.5623883000003,Objects\332b.jpg,mid,s,1.530756200000269,None,,,,,,,,00050,001,2026-01-18_16h37.27.121,MST_test,2024.2.0,60.52341862891323,2026-01-18 16h37.51.940219 +0530,
29,0,30,n,1.807339100000263,None,30,0,29,219.5769491000001,,,,,,,,,,,,,,,,,,,,,,,,,,,,,,,,,,,,,,,,,,,,,,,,,,219.5627445,219.5769491000001,220.08069590000014,220.06175759999996,220.07800459999999,220.08069590000014,220.08069590000014,220.08069590000014,221.89528420000033,Foils\010a.jpg,none,n,1.807339100000263,None,,,,,,,,00050,001,2026-01-18_16h37.27.121,MST_test,2024.2.0,60.52341862891323,2026-01-18 16h37.51.940219 +0530,
30,0,31,n,3.9442659000001186,None,31,0,30,221.9112739000002,,,,,,,,,,,,,,,,,,,,,,,,,,,,,,,,,,,,,,,,,,,,,,,,,,221.89569359999996,221.9112739000002,222.43206180000016,222.3951806,222.42938490000006,222.43206180000016,222.43206180000016,222.43206180000016,226.37902200000008,Objects\127b.jpg,pre,n,3.9442659000001186,None,,,,,,,,00050,001,2026-01-18_16h37.27.121,MST_test,2024.2.0,60.52341862891323,2026-01-18 16h37.51.940219 +0530,
31,0,32,n,1.23941270000023,None,32,0,31,226.3936332000003,,,,,,,,,,,,,,,,,,,,,,,,,,,,,,,,,,,,,,,,,,,,,,,,,,226.37925870000026,226.3936332000003,226.91291709999996,226.87813200000028,226.9101452,226.91291709999996,226.91291709999996,226.91291709999996,228.1619168000002,Objects\138b.jpg,post,n,1.23941270000023,None,,,,,,,,00050,001,2026-01-18_16h37.27.121,MST_test,2024.2.0,60.52341862891323,2026-01-18 16h37.51.940219 +0530,
32,0,33,n,1.1439448999999513,None,33,0,32,228.17710560000023,,,,,,,,,,,,,,,,,,,,,,,,,,,,,,,,,,,,,,,,,,,,,,,,,,228.16229890000022,228.17710560000023,228.68038109999998,228.66236359999994,228.67739849999998,228.68038109999998,228.68038109999998,228.68038109999998,229.82926120000002,Foils\098a.jpg,none,n,1.1439448999999513,None,,,,,,,,00050,001,2026-01-18_16h37.27.121,MST_test,2024.2.0,60.52341862891323,2026-01-18 16h37.51.940219 +0530,
33,0,34,s,3.33971049999991,None,34,0,33,229.843617,,,,,,,,,,,,,,,,,,,,,,,,,,,,,,,,,,,,,,,,,,,,,,,,,,229.82951870000034,229.843617,230.37226670000018,230.32825820000016,230.36998530000028,230.37226670000018,230.37226670000018,230.37226670000018,233.72911410000006,Objects\117b.jpg,mid,s,3.33971049999991,None,,,,,,,,00050,001,2026-01-18_16h37.27.121,MST_test,2024.2.0,60.52341862891323,2026-01-18 16h37.51.940219 +0530,
34,0,35,s,1.228098399999908,None,35,0,34,233.74365699999998,,,,,,,,,,,,,,,,,,,,,,,,,,,,,,,,,,,,,,,,,,,,,,,,,,233.72935170000028,233.74365699999998,234.24420780000037,234.22853750000013,234.23421350000035,234.24420780000037,234.24420780000037,234.24420780000037,235.47936759999993,Foils\057a.jpg,none,s,1.228098399999908,None,,,,,,,,00050,001,2026-01-18_16h37.27.121,MST_test,2024.2.0,60.52341862891323,2026-01-18 16h37.51.940219 +0530,
35,0,36,s,1.1500110000001769,None,36,0,35,235.49405210000032,,,,,,,,,,,,,,,,,,,,,,,,,,,,,,,,,,,,,,,,,,,,,,,,,,235.47960980000016,235.49405210000032,235.99390840000024,235.97844299999997,235.98700050000025,235.99390840000024,235.99390840000024,235.99390840000024,237.14602270000023,Objects\045a.jpg,mid,s,1.1500110000001769,None,,,,,,,,00050,001,2026-01-18_16h37.27.121,MST_test,2024.2.0,60.52341862891323,2026-01-18 16h37.51.940219 +0530,
36,0,37,s,3.9176557999999204,None,37,0,36,237.1605300000001,,,,,,,,,,,,,,,,,,,,,,,,,,,,,,,,,,,,,,,,,,,,,,,,,,237.1464132000001,237.1605300000001,237.69055490000028,237.6447379000001,237.6878729,237.69055490000028,237.69055490000028,237.69055490000028,241.61227180000014,Objects\037b.jpg,pre,s,3.9176557999999204,None,,,,,,,,00050,001,2026-01-18_16h37.27.121,MST_test,2024.2.0,60.52341862891323,2026-01-18 16h37.51.940219 +0530,
37,0,38,s,1.9902225999999246,None,38,0,37,241.62702560000025,,,,,,,,,,,,,,,,,,,,,,,,,,,,,,,,,,,,,,,,,,,,,,,,,,241.61254390000022,241.62702560000025,242.20933430000014,242.11164980000012,242.20554560000028,242.20933430000014,242.20933430000014,242.20933430000014,244.21251630000006,Objects\049b.jpg,post,s,1.9902225999999246,None,,,,,,,,00050,001,2026-01-18_16h37.27.121,MST_test,2024.2.0,60.52341862891323,2026-01-18 16h37.51.940219 +0530,
38,0,39,o,1.8490514000000076,None,39,0,38,244.22705940000014,,,,,,,,,,,,,,,,,,,,,,,,,,,,,,,,,,,,,,,,,,,,,,,,,,244.2127674000003,244.22705940000014,244.72711010000012,244.71172260000003,244.7176274000003,244.72711010000012,244.72711010000012,244.72711010000012,246.57977170000004,Objects\120a.jpg,pre,o,1.8490514000000076,None,,,,,,,,00050,001,2026-01-18_16h37.27.121,MST_test,2024.2.0,60.52341862891323,2026-01-18 16h37.51.940219 +0530,
39,0,40,s,4.920434799999839,None,40,0,39,246.5939999000002,,,,,,,,,,,,,,,,,,,,,,,,,,,,,,,,,,,,,,,,,,,,,,,,,,246.58015569999998,246.5939999000002,247.11065009999993,247.0780953000003,247.10727080000015,247.11065009999993,247.11065009999993,247.11065009999993,252.04572540000026,Objects\293b.jpg,post,s,4.920434799999839,None,,,,,,,,00050,001,2026-01-18_16h37.27.121,MST_test,2024.2.0,60.52341862891323,2026-01-18 16h37.51.940219 +0530,
40,0,41,s,1.4231568000000152,None,41,0,40,252.0602997000001,,,,,,,,,,,,,,,,,,,,,,,,,,,,,,,,,,,,,,,,,,,,,,,,,,252.04615439999998,252.0602997000001,252.56087419999994,252.5448534000002,252.55318030000035,252.56087419999994,252.56087419999994,252.56087419999994,253.99624070000027,Objects\347a.jpg,post,s,1.4231568000000152,None,,,,,,,,00050,001,2026-01-18_16h37.27.121,MST_test,2024.2.0,60.52341862891323,2026-01-18 16h37.51.940219 +0530,
41,0,42,s,1.6752953000000161,None,42,0,41,254.01034670000035,,,,,,,,,,,,,,,,,,,,,,,,,,,,,,,,,,,,,,,,,,,,,,,,,,253.99654499999997,254.01034670000035,254.54785110000012,254.49473549999993,254.54451199999994,254.54785110000012,254.54785110000012,254.54785110000012,256.22931629999994,Objects\195b.jpg,mid,s,1.6752953000000161,None,,,,,,,,00050,001,2026-01-18_16h37.27.121,MST_test,2024.2.0,60.52341862891323,2026-01-18 16h37.51.940219 +0530,
42,0,43,o,1.7348157999999785,None,43,0,42,256.2436437000001,,,,,,,,,,,,,,,,,,,,,,,,,,,,,,,,,,,,,,,,,,,,,,,,,,256.22969980000016,256.2436437000001,256.74403759999996,256.72803079999994,256.7336459000003,256.74403759999996,256.74403759999996,256.74403759999996,258.4960788000003,Objects\322a.jpg,pre,o,1.7348157999999785,None,,,,,,,,00050,001,2026-01-18_16h37.27.121,MST_test,2024.2.0,60.52341862891323,2026-01-18 16h37.51.940219 +0530,
43,0,44,o,0.9976775000000089,None,44,0,43,258.51051670000015,,,,,,,,,,,,,,,,,,,,,,,,,,,,,,,,,,,,,,,,,,,,,,,,,,258.49635450000005,258.51051670000015,259.0107333000001,258.9951328000002,259.00629449999997,259.0107333000001,259.0107333000001,259.0107333000001,260.01207079999995,Objects\327a.jpg,mid,o,0.9976775000000089,None,,,,,,,,00050,001,2026-01-18_16h37.27.121,MST_test,2024.2.0,60.52341862891323,2026-01-18 16h37.51.940219 +0530,
44,0,45,s,2.6795290999998542,None,45,0,44,260.0274491,,,,,,,,,,,,,,,,,,,,,,,,,,,,,,,,,,,,,,,,,,,,,,,,,,260.01229600000033,260.0274491,260.52732960000003,260.51160230000005,260.5204496000001,260.52732960000003,260.52732960000003,260.52732960000003,263.2123431,Objects\307a.jpg,pre,s,2.6795290999998542,None,,,,,,,,00050,001,2026-01-18_16h37.27.121,MST_test,2024.2.0,60.52341862891323,2026-01-18 16h37.51.940219 +0530,
45,0,46,o,1.2962861999999404,None,46,0,45,263.2269451000002,,,,,,,,,,,,,,,,,,,,,,,,,,,,,,,,,,,,,,,,,,,,,,,,,,263.2127284000003,263.2269451000002,263.72721619999993,263.71138169999995,263.71701680000024,263.72721619999993,263.72721619999993,263.72721619999993,265.0288765,Objects\100a.jpg,pre,o,1.2962861999999404,None,,,,,,,,00050,001,2026-01-18_16h37.27.121,MST_test,2024.2.0,60.52341862891323,2026-01-18 16h37.51.940219 +0530,
46,0,47,s,1.9352471999995942,None,47,0,46,265.0437419,,,,,,,,,,,,,,,,,,,,,,,,,,,,,,,,,,,,,,,,,,,,,,,,,,265.0292835,265.0437419,265.5440076,265.52811629999997,265.53433889999997,265.5440076,265.5440076,265.5440076,267.4956879000001,Objects\126a.jpg,post,s,1.9352471999995942,None,,,,,,,,00050,001,2026-01-18_16h37.27.121,MST_test,2024.2.0,60.52341862891323,2026-01-18 16h37.51.940219 +0530,
47,0,48,s,2.0611950999996225,None,48,0,47,267.5103889000002,,,,,,,,,,,,,,,,,,,,,,,,,,,,,,,,,,,,,,,,,,,,,,,,,,267.49609880000025,267.5103889000002,268.0105418000003,267.99488010000005,268.00019150000026,268.0105418000003,268.0105418000003,268.0105418000003,270.07892600000014,Objects\246a.jpg,post,s,2.0611950999996225,None,,,,,,,,00050,001,2026-01-18_16h37.27.121,MST_test,2024.2.0,60.52341862891323,2026-01-18 16h37.51.940219 +0530,
48,0,49,s,1.1957215999996151,None,49,0,48,270.09357100000034,,,,,,,,,,,,,,,,,,,,,,,,,,,,,,,,,,,,,,,,,,,,,,,,,,270.0792961000002,270.09357100000034,270.59650439999996,270.57811760000004,270.59362260000034,270.59650439999996,270.59650439999996,270.59650439999996,271.79580450000003,Objects\019b.jpg,post,s,1.1957215999996151,None,,,,,,,,00050,001,2026-01-18_16h37.27.121,MST_test,2024.2.0,60.52341862891323,2026-01-18 16h37.51.940219 +0530,
49,0,50,n,2.5285328999998455,None,50,0,49,271.81036829999994,,,,,,,,,,,,,,,,,,,,,,,,,,,,,,,,,,,,,,,,,,,,,,,,,,271.79607750000014,271.81036829999994,272.3106375000002,272.2948430000001,272.3033369,272.3106375000002,272.3106375000002,272.3106375000002,274.84611010000026,Foils\018a.jpg,none,n,2.5285328999998455,None,,,,,,,,00050,001,2026-01-18_16h37.27.121,MST_test,2024.2.0,60.52341862891323,2026-01-18 16h37.51.940219 +0530,
50,0,51,o,1.933334400000149,None,51,0,50,274.8602740000001,,,,,,,,,,,,,,,,,,,,,,,,,,,,,,,,,,,,,,,,,,,,,,,,,,274.8465100000003,274.8602740000001,275.4032328000003,275.34488039999997,275.40093509999997,275.4032328000003,275.4032328000003,275.4032328000003,277.3452245000003,Objects\234b.jpg,post,o,1.933334400000149,None,,,,,,,,00050,001,2026-01-18_16h37.27.121,MST_test,2024.2.0,60.52341862891323,2026-01-18 16h37.51.940219 +0530,
51,0,52,o,7.81191600000011,None,52,0,51,277.36028639999995,,,,,,,,,,,,,,,,,,,,,,,,,,,,,,,,,,,,,,,,,,,,,,,,,,277.345648,277.36028639999995,277.86060720000023,277.8445716000001,277.85262839999996,277.86060720000023,277.86060720000023,277.86060720000023,285.6789678,Objects\130a.jpg,mid,o,7.81191600000011,None,,,,,,,,00050,001,2026-01-18_16h37.27.121,MST_test,2024.2.0,60.52341862891323,2026-01-18 16h37.51.940219 +0530,
52,0,53,n,3.1410523999998077,None,53,0,52,285.6937733,,,,,,,,,,,,,,,,,,,,,,,,,,,,,,,,,,,,,,,,,,,,,,,,,,285.6794721000001,285.6937733,286.19413810000015,286.1781999,286.18700119999994,286.19413810000015,286.19413810000015,286.19413810000015,289.3453824000003,Foils\093b.jpg,none,n,3.1410523999998077,None,,,,,,,,00050,001,2026-01-18_16h37.27.121,MST_test,2024.2.0,60.52341862891323,2026-01-18 16h37.51.940219 +0530,
53,0,54,s,1.2995778999998038,None,54,0,53,289.36041969999997,,,,,,,,,,,,,,,,,,,,,,,,,,,,,,,,,,,,,,,,,,,,,,,,,,289.3457169000003,289.36041969999997,289.8605298000002,289.84464400000024,289.8504803000001,289.8605298000002,289.8605298000002,289.8605298000002,291.1624624000001,Objects\370a.jpg,pre,s,1.2995778999998038,None,,,,,,,,00050,001,2026-01-18_16h37.27.121,MST_test,2024.2.0,60.52341862891323,2026-01-18 16h37.51.940219 +0530,
54,0,55,o,1.2420302999998967,None,55,0,54,291.1772226000003,,,,,,,,,,,,,,,,,,,,,,,,,,,,,,,,,,,,,,,,,,,,,,,,,,291.1628746000001,291.1772226000003,291.67749600000025,291.6618532000002,291.6671183000003,291.67749600000025,291.67749600000025,291.67749600000025,292.9288561000003,Objects\274a.jpg,pre,o,1.2420302999998967,None,,,,,,,,00050,001,2026-01-18_16h37.27.121,MST_test,2024.2.0,60.52341862891323,2026-01-18 16h37.51.940219 +0530,
55,0,56,o,1.3243886000000202,None,56,0,55,292.9437554000001,,,,,,,,,,,,,,,,,,,,,,,,,,,,,,,,,,,,,,,,,,,,,,,,,,292.9291386,292.9437554000001,293.4441419,293.4279421000001,293.44014689999995,293.4441419,293.4441419,293.4441419,294.77890730000036,Objects\358a.jpg,post,o,1.3243886000000202,None,,,,,,,,00050,001,2026-01-18_16h37.27.121,MST_test,2024.2.0,60.52341862891323,2026-01-18 16h37.51.940219 +0530,
56,0,57,n,1.7779365000001235,None,57,0,56,294.79376550000006,,,,,,,,,,,,,,,,,,,,,,,,,,,,,,,,,,,,,,,,,,,,,,,,,,294.77935479999996,294.79376550000006,295.2941201000003,295.27810290000025,295.28641160000006,295.2941201000003,295.2941201000003,295.2941201000003,297.07921050000004,Objects\059b.jpg,pre,n,1.7779365000001235,None,,,,,,,,00050,001,2026-01-18_16h37.27.121,MST_test,2024.2.0,60.52341862891323,2026-01-18 16h37.51.940219 +0530,
57,0,58,o,1.7262744999998176,None,58,0,57,297.0937607000001,,,,,,,,,,,,,,,,,,,,,,,,,,,,,,,,,,,,,,,,,,,,,,,,,,297.07954180000024,297.0937607000001,297.5938781,297.5785148,297.58296199999995,297.5938781,297.5938781,297.5938781,299.3289697,Objects\145a.jpg,mid,o,1.7262744999998176,None,,,,,,,,00050,001,2026-01-18_16h37.27.121,MST_test,2024.2.0,60.52341862891323,2026-01-18 16h37.51.940219 +0530,
58,0,59,o,0.9879655999998249,None,59,0,58,299.34410049999997,,,,,,,,,,,,,,,,,,,,,,,,,,,,,,,,,,,,,,,,,,,,,,,,,,299.32940970000027,299.34410049999997,299.84382730000016,299.8282134000001,299.8360864000001,299.84382730000016,299.84382730000016,299.84382730000016,300.8461328000003,Objects\125a.jpg,mid,o,0.9879655999998249,None,,,,,,,,00050,001,2026-01-18_16h37.27.121,MST_test,2024.2.0,60.52341862891323,2026-01-18 16h37.51.940219 +0530,
59,0,60,o,5.8222037999998975,None,60,0,59,300.8605044000001,,,,,,,,,,,,,,,,,,,,,,,,,,,,,,,,,,,,,,,,,,,,,,,,,,300.84654070000033,300.8605044000001,301.3936311000002,301.34487420000005,301.3895923,301.3936311000002,301.3936311000002,301.3936311000002,307.22891470000013,Objects\352b.jpg,mid,o,5.8222037999998975,None,,,,,,,,00050,001,2026-01-18_16h37.27.121,MST_test,2024.2.0,60.52341862891323,2026-01-18 16h37.51.940219 +0530,
60,0,61,s,1.2320490000001882,None,61,0,60,307.24374400000033,,,,,,,,,,,,,,,,,,,,,,,,,,,,,,,,,,,,,,,,,,,,,,,,,,307.2293990000003,307.24374400000033,307.7589261000003,307.72807920000014,307.7565675000001,307.7589261000003,307.7589261000003,307.7589261000003,308.99604190000036,Objects\223b.jpg,pre,s,1.2320490000001882,None,,,,,,,,00050,001,2026-01-18_16h37.27.121,MST_test,2024.2.0,60.52341862891323,2026-01-18 16h37.51.940219 +0530,
61,0,62,s,1.7684409999997115,None,62,0,61,309.01025849999996,,,,,,,,,,,,,,,,,,,,,,,,,,,,,,,,,,,,,,,,,,,,,,,,,,308.9964259000003,309.01025849999996,309.51086609999993,309.49543470000026,309.5016450000003,309.51086609999993,309.51086609999993,309.51086609999993,311.2957157999999,Foils\097a.jpg,none,s,1.7684409999997115,None,,,,,,,,00050,001,2026-01-18_16h37.27.121,MST_test,2024.2.0,60.52341862891323,2026-01-18 16h37.51.940219 +0530,
62,0,63,s,1.1249354000001404,None,63,0,62,311.31014380000033,,,,,,,,,,,,,,,,,,,,,,,,,,,,,,,,,,,,,,,,,,,,,,,,,,311.29606950000016,311.31014380000033,311.81098440000005,311.79476360000035,311.80230740000025,311.81098440000005,311.81098440000005,311.81098440000005,312.94568860000027,Objects\104a.jpg,post,s,1.1249354000001404,None,,,,,,,,00050,001,2026-01-18_16h37.27.121,MST_test,2024.2.0,60.52341862891323,2026-01-18 16h37.51.940219 +0530,
63,0,64,s,1.9094098000000486,None,64,0,63,312.9602923000002,,,,,,,,,,,,,,,,,,,,,,,,,,,,,,,,,,,,,,,,,,,,,,,,,,312.94613230000004,312.9602923000002,313.490898,313.4453321000001,313.48772290000034,313.490898,313.490898,313.490898,315.4125766000002,Objects\187b.jpg,mid,s,1.9094098000000486,None,,,,,,,,00050,001,2026-01-18_16h37.27.121,MST_test,2024.2.0,60.52341862891323,2026-01-18 16h37.51.940219 +0530,
64,0,65,o,1.6053228000000672,None,65,0,64,315.42757640000036,,,,,,,,,,,,,,,,,,,,,,,,,,,,,,,,,,,,,,,,,,,,,,,,,,315.41285400000015,315.42757640000036,315.9547144000003,315.91136670000014,315.95207560000017,315.9547144000003,315.9547144000003,315.9547144000003,317.5622134,Objects\015b.jpg,pre,o,1.6053228000000672,None,,,,,,,,00050,001,2026-01-18_16h37.27.121,MST_test,2024.2.0,60.52341862891323,2026-01-18 16h37.51.940219 +0530,
65,0,66,n,1.8316413000002285,None,66,0,65,317.5771662000002,,,,,,,,,,,,,,,,,,,,,,,,,,,,,,,,,,,,,,,,,,,,,,,,,,317.5624849000001,317.5771662000002,318.10463610000033,318.0613235999999,318.1015443000001,318.10463610000033,318.10463610000033,318.10463610000033,319.9459833000001,Objects\277b.jpg,pre,n,1.8316413000002285,None,,,,,,,,00050,001,2026-01-18_16h37.27.121,MST_test,2024.2.0,60.52341862891323,2026-01-18 16h37.51.940219 +0530,
66,0,67,o,1.544191200000114,None,67,0,66,319.9603000000002,,,,,,,,,,,,,,,,,,,,,,,,,,,,,,,,,,,,,,,,,,,,,,,,,,319.94638699999996,319.9603000000002,320.48695309999994,320.44479980000006,320.48371399999996,320.48695309999994,320.48695309999994,320.48695309999994,322.0458592,Objects\354b.jpg,pre,o,1.544191200000114,None,,,,,,,,00050,001,2026-01-18_16h37.27.121,MST_test,2024.2.0,60.52341862891323,2026-01-18 16h37.51.940219 +0530,
67,0,68,o,0.8060989000000518,None,68,0,67,322.0604306,,,,,,,,,,,,,,,,,,,,,,,,,,,,,,,,,,,,,,,,,,,,,,,,,,322.0462302000001,322.0604306,322.56079420000015,322.5449119,322.5545436000002,322.56079420000015,322.56079420000015,322.56079420000015,323.378921,Objects\304a.jpg,mid,o,0.8060989000000518,None,,,,,,,,00050,001,2026-01-18_16h37.27.121,MST_test,2024.2.0,60.52341862891323,2026-01-18 16h37.51.940219 +0530,
68,0,69,o,0.945386100000178,None,69,0,68,323.39373220000016,,,,,,,,,,,,,,,,,,,,,,,,,,,,,,,,,,,,,,,,,,,,,,,,,,323.3791761000002,323.39373220000016,323.8944899000003,323.8783383,323.8884587000002,323.8944899000003,323.8944899000003,323.8944899000003,324.84566250000034,Objects\153b.jpg,post,o,0.945386100000178,None,,,,,,,,00050,001,2026-01-18_16h37.27.121,MST_test,2024.2.0,60.52341862891323,2026-01-18 16h37.51.940219 +0530,
69,0,70,o,2.551116699999966,None,70,0,69,324.8603803000001,,,,,,,,,,,,,,,,,,,,,,,,,,,,,,,,,,,,,,,,,,,,,,,,,,324.8459505999999,324.8603803000001,325.3605616,325.34482260000004,325.3525281000002,325.3605616,325.3605616,325.3605616,327.92916319999995,Objects\137b.jpg,pre,o,2.551116699999966,None,,,,,,,,00050,001,2026-01-18_16h37.27.121,MST_test,2024.2.0,60.52341862891323,2026-01-18 16h37.51.940219 +0530,
70,0,71,s,1.5474770000000717,None,71,0,70,327.9440738000003,,,,,,,,,,,,,,,,,,,,,,,,,,,,,,,,,,,,,,,,,,,,,,,,,,327.9295161,327.9440738000003,328.4443160000001,328.4283639,328.43430179999996,328.4443160000001,328.4443160000001,328.4443160000001,329.99563530000023,Objects\362a.jpg,pre,s,1.5474770000000717,None,,,,,,,,00050,001,2026-01-18_16h37.27.121,MST_test,2024.2.0,60.52341862891323,2026-01-18 16h37.51.940219 +0530,
71,0,72,s,2.204739199999949,None,72,0,71,330.0107916000002,,,,,,,,,,,,,,,,,,,,,,,,,,,,,,,,,,,,,,,,,,,,,,,,,,329.9959570000001,330.0107916000002,330.5387138000001,330.49507919999996,330.53615919999993,330.5387138000001,330.5387138000001,330.5387138000001,332.74615970000013,Objects\197b.jpg,post,s,2.204739199999949,None,,,,,,,,00050,001,2026-01-18_16h37.27.121,MST_test,2024.2.0,60.52341862891323,2026-01-18 16h37.51.940219 +0530,
72,0,73,n,4.372715199999675,None,73,0,72,332.7602594,,,,,,,,,,,,,,,,,,,,,,,,,,,,,,,,,,,,,,,,,,,,,,,,,,332.7465338000002,332.7602594,333.2920017000001,333.2449872000002,333.28919700000006,333.2920017000001,333.2920017000001,333.2920017000001,337.67860280000014,Objects\219b.jpg,post,n,4.372715199999675,None,,,,,,,,00050,001,2026-01-18_16h37.27.121,MST_test,2024.2.0,60.52341862891323,2026-01-18 16h37.51.940219 +0530,
73,0,74,s,1.1366954999998597,None,74,0,73,337.6940665000002,,,,,,,,,,,,,,,,,,,,,,,,,,,,,,,,,,,,,,,,,,,,,,,,,,337.67882839999993,337.6940665000002,338.2305434,338.17852949999997,338.2278692,338.2305434,338.2305434,338.2305434,339.37894350000033,Objects\036b.jpg,pre,s,1.1366954999998597,None,,,,,,,,00050,001,2026-01-18_16h37.27.121,MST_test,2024.2.0,60.52341862891323,2026-01-18 16h37.51.940219 +0530,
74,0,75,s,1.1863484000000426,None,75,0,74,339.39379069999995,,,,,,,,,,,,,,,,,,,,,,,,,,,,,,,,,,,,,,,,,,,,,,,,,,339.3793776000002,339.39379069999995,339.9090091000003,339.8779661000003,339.90626340000017,339.9090091000003,339.9090091000003,339.9090091000003,341.1122650000002,Objects\091b.jpg,mid,s,1.1863484000000426,None,,,,,,,,00050,001,2026-01-18_16h37.27.121,MST_test,2024.2.0,60.52341862891323,2026-01-18 16h37.51.940219 +0530,
75,0,76,s,1.2662466000001587,None,76,0,75,341.12705830000004,,,,,,,,,,,,,,,,,,,,,,,,,,,,,,,,,,,,,,,,,,,,,,,,,,341.1125154000001,341.12705830000004,341.6690486000002,341.61125470000025,341.66593420000027,341.6690486000002,341.6690486000002,341.6690486000002,342.94600790000004,Objects\288b.jpg,pre,s,1.2662466000001587,None,,,,,,,,00050,001,2026-01-18_16h37.27.121,MST_test,2024.2.0,60.52341862891323,2026-01-18 16h37.51.940219 +0530,
76,0,77,o,1.587231299999985,None,77,0,76,342.9603922000001,,,,,,,,,,,,,,,,,,,,,,,,,,,,,,,,,,,,,,,,,,,,,,,,,,342.9464412000002,342.9603922000001,343.51627959999996,343.4450816000003,343.5131414000002,343.51627959999996,343.51627959999996,343.51627959999996,345.11253579999993,Objects\003b.jpg,pre,o,1.587231299999985,None,,,,,,,,00050,001,2026-01-18_16h37.27.121,MST_test,2024.2.0,60.52341862891323,2026-01-18 16h37.51.940219 +0530,
77,0,78,s,1.1484153000001243,None,78,0,77,345.1269053000001,,,,,,,,,,,,,,,,,,,,,,,,,,,,,,,,,,,,,,,,,,,,,,,,,,345.11287500000026,345.1269053000001,345.62727760000007,345.61150180000004,345.61855890000015,345.62727760000007,345.62727760000007,345.62727760000007,346.77901569999995,Foils\113a.jpg,none,s,1.1484153000001243,None,,,,,,,,00050,001,2026-01-18_16h37.27.121,MST_test,2024.2.0,60.52341862891323,2026-01-18 16h37.51.940219 +0530,
78,0,79,s,3.2261594000001423,None,79,0,78,346.7937062000001,,,,,,,,,,,,,,,,,,,,,,,,,,,,,,,,,,,,,,,,,,,,,,,,,,346.7794160000003,346.7937062000001,347.29409280000027,347.2780107000003,347.28762730000017,347.29409280000027,347.29409280000027,347.29409280000027,350.5287906000003,Objects\329a.jpg,post,s,3.2261594000001423,None,,,,,,,,00050,001,2026-01-18_16h37.27.121,MST_test,2024.2.0,60.52341862891323,2026-01-18 16h37.51.940219 +0530,
79,0,80,s,2.8508280000000923,None,80,0,79,350.54368190000014,,,,,,,,,,,,,,,,,,,,,,,,,,,,,,,,,,,,,,,,,,,,,,,,,,350.52903570000035,350.54368190000014,351.04392899999993,351.02869230000033,351.0376844000002,351.04392899999993,351.04392899999993,351.04392899999993,353.9121597000003,Objects\162a.jpg,post,s,2.8508280000000923,None,,,,,,,,00050,001,2026-01-18_16h37.27.121,MST_test,2024.2.0,60.52341862891323,2026-01-18 16h37.51.940219 +0530,
80,0,81,n,1.2196172999997543,None,81,0,80,353.92705449999994,,,,,,,,,,,,,,,,,,,,,,,,,,,,,,,,,,,,,,,,,,,,,,,,,,353.91243920000034,353.92705449999994,354.4272595000002,354.4114061,354.41935730000023,354.4272595000002,354.4272595000002,354.4272595000002,355.6622539,Foils\082a.jpg,none,n,1.2196172999997543,None,,,,,,,,00050,001,2026-01-18_16h37.27.121,MST_test,2024.2.0,60.52341862891323,2026-01-18 16h37.51.940219 +0530,
81,0,82,s,3.6790415000000394,None,82,0,81,355.67677600000025,,,,,,,,,,,,,,,,,,,,,,,,,,,,,,,,,,,,,,,,,,,,,,,,,,355.6625858000002,355.67677600000025,356.1771206000003,356.1613877,356.16667750000033,356.1771206000003,356.1771206000003,356.1771206000003,359.8624307,Objects\031a.jpg,mid,s,3.6790415000000394,None,,,,,,,,00050,001,2026-01-18_16h37.27.121,MST_test,2024.2.0,60.52341862891323,2026-01-18 16h37.51.940219 +0530,
82,0,83,s,1.8946047999997973,None,83,0,82,359.87714099999994,,,,,,,,,,,,,,,,,,,,,,,,,,,,,,,,,,,,,,,,,,,,,,,,,,359.8627743000002,359.87714099999994,360.37739690000035,360.36130430000003,360.36643330000015,360.37739690000035,360.37739690000035,360.37739690000035,362.2789109,Foils\050a.jpg,none,s,1.8946047999997973,None,,,,,,,,00050,001,2026-01-18_16h37.27.121,MST_test,2024.2.0,60.52341862891323,2026-01-18 16h37.51.940219 +0530,
83,0,84,s,1.7032133000002432,None,84,0,83,362.2944915000003,,,,,,,,,,,,,,,,,,,,,,,,,,,,,,,,,,,,,,,,,,,,,,,,,,362.2792184,362.2944915000003,362.84018689999994,362.7788891,362.83739590000005,362.84018689999994,362.84018689999994,362.84018689999994,364.5455982000003,Objects\075b.jpg,pre,s,1.7032133000002432,None,,,,,,,,00050,001,2026-01-18_16h37.27.121,MST_test,2024.2.0,60.52341862891323,2026-01-18 16h37.51.940219 +0530,
84,0,85,o,2.3865112000003137,None,85,0,84,364.5603182,,,,,,,,,,,,,,,,,,,,,,,,,,,,,,,,,,,,,,,,,,,,,,,,,,364.5459128000002,364.5603182,365.0606007000001,365.0447687000001,365.0505843000001,365.0606007000001,365.0606007000001,365.0606007000001,367.4625186000003,Objects\061a.jpg,pre,o,2.3865112000003137,None,,,,,,,,00050,001,2026-01-18_16h37.27.121,MST_test,2024.2.0,60.52341862891323,2026-01-18 16h37.51.940219 +0530,
85,0,86,s,1.0255944000000454,None,86,0,85,367.4770805000003,,,,,,,,,,,,,,,,,,,,,,,,,,,,,,,,,,,,,,,,,,,,,,,,,,367.46282539999993,367.4770805000003,368.01361369999995,367.96161980000034,368.0111621000001,368.01361369999995,368.01361369999995,368.01361369999995,369.0462738000001,Objects\134b.jpg,mid,s,1.0255944000000454,None,,,,,,,,00050,001,2026-01-18_16h37.27.121,MST_test,2024.2.0,60.52341862891323,2026-01-18 16h37.51.940219 +0530,
86,0,87,s,1.9186397000003126,None,87,0,86,369.0601240000001,,,,,,,,,,,,,,,,,,,,,,,,,,,,,,,,,,,,,,,,,,,,,,,,,,369.0465628000002,369.0601240000001,369.56028940000033,369.5447362,369.55186219999996,369.56028940000033,369.56028940000033,369.56028940000033,371.49561730000005,Foils\066a.jpg,none,s,1.9186397000003126,None,,,,,,,,00050,001,2026-01-18_16h37.27.121,MST_test,2024.2.0,60.52341862891323,2026-01-18 16h37.51.940219 +0530,
87,0,88,o,1.213885200000277,None,88,0,87,371.5104722000001,,,,,,,,,,,,,,,,,,,,,,,,,,,,,,,,,,,,,,,,,,,,,,,,,,371.4958879999999,371.5104722000001,372.0500624000001,371.9957263000001,372.0462196000003,372.0500624000001,372.0500624000001,372.0500624000001,373.2791827000001,Objects\263b.jpg,pre,o,1.213885200000277,None,,,,,,,,00050,001,2026-01-18_16h37.27.121,MST_test,2024.2.0,60.52341862891323,2026-01-18 16h37.51.940219 +0530,
88,0,89,n,0.9254647000002478,None,89,0,88,373.2940506,,,,,,,,,,,,,,,,,,,,,,,,,,,,,,,,,,,,,,,,,,,,,,,,,,373.27943559999994,373.2940506,373.79429400000026,373.7783225000003,373.78373610000017,373.79429400000026,373.79429400000026,373.79429400000026,374.72897150000017,Foils\020b.jpg,none,n,0.9254647000002478,None,,,,,,,,00050,001,2026-01-18_16h37.27.121,MST_test,2024.2.0,60.52341862891323,2026-01-18 16h37.51.940219 +0530,
89,0,90,n,1.4356942000003983,None,90,0,89,374.74378920000026,,,,,,,,,,,,,,,,,,,,,,,,,,,,,,,,,,,,,,,,,,,,,,,,,,374.7292924000003,374.74378920000026,375.24389210000027,375.22818430000007,375.2365098,375.24389210000027,375.24389210000027,375.24389210000027,376.6955505000001,Objects\151a.jpg,mid,n,1.4356942000003983,None,,,,,,,,00050,001,2026-01-18_16h37.27.121,MST_test,2024.2.0,60.52341862891323,2026-01-18 16h37.51.940219 +0530,
90,0,91,o,3.6920905000001767,None,91,0,90,376.7105696000003,,,,,,,,,,,,,,,,,,,,,,,,,,,,,,,,,,,,,,,,,,,,,,,,,,376.6959217000003,376.7105696000003,377.21072410000033,377.19486240000015,377.2006001,377.21072410000033,377.21072410000033,377.21072410000033,380.91238360000034,Objects\296a.jpg,pre,o,3.6920905000001767,None,,,,,,,,00050,001,2026-01-18_16h37.27.121,MST_test,2024.2.0,60.52341862891323,2026-01-18 16h37.51.940219 +0530,
91,0,92,s,2.1210628000003453,None,92,0,91,380.92693099999997,,,,,,,,,,,,,,,,,,,,,,,,,,,,,,,,,,,,,,,,,,,,,,,,,,380.91274870000007,380.92693099999997,381.43114060000016,381.41166350000003,381.4277777000002,381.43114060000016,381.43114060000016,381.43114060000016,383.56308400000034,Objects\051b.jpg,pre,s,2.1210628000003453,None,,,,,,,,00050,001,2026-01-18_16h37.27.121,MST_test,2024.2.0,60.52341862891323,2026-01-18 16h37.51.940219 +0530,
92,0,93,o,3.337053599999763,None,93,0,92,383.57703200000014,,,,,,,,,,,,,,,,,,,,,,,,,,,,,,,,,,,,,,,,,,,,,,,,,,383.56342829999994,383.57703200000014,384.0777198999999,384.0618139000003,384.0697892000003,384.0777198999999,384.0777198999999,384.0777198999999,387.42916349999996,Objects\248a.jpg,pre,o,3.337053599999763,None,,,,,,,,00050,001,2026-01-18_16h37.27.121,MST_test,2024.2.0,60.52341862891323,2026-01-18 16h37.51.940219 +0530,
93,0,94,s,1.4326498999998876,None,94,0,93,387.4436192000003,,,,,,,,,,,,,,,,,,,,,,,,,,,,,,,,,,,,,,,,,,,,,,,,,,387.4295155,387.4436192000003,387.97448780000013,387.92859550000003,387.9716919000002,387.97448780000013,387.97448780000013,387.97448780000013,389.41212940000014,Objects\124b.jpg,mid,s,1.4326498999998876,None,,,,,,,,00050,001,2026-01-18_16h37.27.121,MST_test,2024.2.0,60.52341862891323,2026-01-18 16h37.51.940219 +0530,
94,0,95,o,7.272087299999839,None,95,0,94,389.4270670000001,,,,,,,,,,,,,,,,,,,,,,,,,,,,,,,,,,,,,,,,,,,,,,,,,,389.4124108000001,389.4270670000001,389.92729499999996,389.91164660000004,389.9180642000001,389.92729499999996,389.92729499999996,389.92729499999996,397.2119289000002,Objects\094a.jpg,pre,o,7.272087299999839,None,,,,,,,,00050,001,2026-01-18_16h37.27.121,MST_test,2024.2.0,60.52341862891323,2026-01-18 16h37.51.940219 +0530,
95,0,96,o,1.5048166999999921,None,96,0,95,397.22709190000023,,,,,,,,,,,,,,,,,,,,,,,,,,,,,,,,,,,,,,,,,,,,,,,,,,397.21216930000037,397.22709190000023,397.7271874000003,397.71157280000034,397.7179691000001,397.7271874000003,397.7271874000003,397.7271874000003,399.24535330000026,Objects\222a.jpg,pre,o,1.5048166999999921,None,,,,,,,,00050,001,2026-01-18_16h37.27.121,MST_test,2024.2.0,60.52341862891323,2026-01-18 16h37.51.940219 +0530,
96,0,97,n,3.901481700000204,None,97,0,96,399.2604970000002,,,,,,,,,,,,,,,,,,,,,,,,,,,,,,,,,,,,,,,,,,,,,,,,,,399.2456188000001,399.2604970000002,399.80136660000016,399.7448752,399.7988316000001,399.80136660000016,399.80136660000016,399.80136660000016,403.7122293000002,Objects\099b.jpg,mid,n,3.901481700000204,None,,,,,,,,00050,001,2026-01-18_16h37.27.121,MST_test,2024.2.0,60.52341862891323,2026-01-18 16h37.51.940219 +0530,
97,0,98,s,1.48490240000001,None,98,0,97,403.7270400000002,,,,,,,,,,,,,,,,,,,,,,,,,,,,,,,,,,,,,,,,,,,,,,,,,,403.7125307000001,403.7270400000002,404.22722139999996,404.2117043000003,404.21975470000007,404.22722139999996,404.22722139999996,404.22722139999996,405.7289198000003,Objects\052a.jpg,post,s,1.48490240000001,None,,,,,,,,00050,001,2026-01-18_16h37.27.121,MST_test,2024.2.0,60.52341862891323,2026-01-18 16h37.51.940219 +0530,
98,0,99,o,1.2084058000000368,None,99,0,98,405.743743,,,,,,,,,,,,,,,,,,,,,,,,,,,,,,,,,,,,,,,,,,,,,,,,,,405.72919290000027,405.743743,406.2629015000002,406.2280463000002,406.25984689999996,406.2629015000002,406.2629015000002,406.2629015000002,407.47888009999997,Objects\369b.jpg,post,o,1.2084058000000368,None,,,,,,,,00050,001,2026-01-18_16h37.27.121,MST_test,2024.2.0,60.52341862891323,2026-01-18 16h37.51.940219 +0530,
99,0,100,n,1.965987000000041,None,100,0,99,407.4936408000003,,,,,,,,,,,,,,,,,,,,,,,,,,,,,,,,,,,,,,,,,,,,,,,,,,407.47928580000007,407.4936408000003,408.00997940000025,407.9783402000003,408.00695670000005,408.00997940000025,408.00997940000025,408.00997940000025,409.97903859999997,Foils\058a.jpg,none,n,1.965987000000041,None,,,,,,,,00050,001,2026-01-18_16h37.27.121,MST_test,2024.2.0,60.52341862891323,2026-01-18 16h37.51.940219 +0530,
100,0,101,n,2.4494266000001517,None,101,0,100,409.9939064,,,,,,,,,,,,,,,,,,,,,,,,,,,,,,,,,,,,,,,,,,,,,,,,,,409.9793139000003,409.9939064,410.5261110000001,410.47845400000006,410.5230554,410.5261110000001,410.5261110000001,410.5261110000001,412.97899430000007,Objects\272b.jpg,mid,n,2.4494266000001517,None,,,,,,,,00050,001,2026-01-18_16h37.27.121,MST_test,2024.2.0,60.52341862891323,2026-01-18 16h37.51.940219 +0530,
101,0,102,s,1.5642012000002978,None,102,0,101,412.99371770000016,,,,,,,,,,,,,,,,,,,,,,,,,,,,,,,,,,,,,,,,,,,,,,,,,,412.97938890000023,412.99371770000016,413.52385989999993,413.47818210000014,413.5206545000001,413.52385989999993,413.52385989999993,413.52385989999993,415.0956854000001,Objects\360b.jpg,pre,s,1.5642012000002978,None,,,,,,,,00050,001,2026-01-18_16h37.27.121,MST_test,2024.2.0,60.52341862891323,2026-01-18 16h37.51.940219 +0530,
102,0,103,s,1.2042554999998174,None,103,0,102,415.1111828000003,,,,,,,,,,,,,,,,,,,,,,,,,,,,,,,,,,,,,,,,,,,,,,,,,,415.09610120000025,415.1111828000003,415.63554620000014,415.5950911,415.63297690000036,415.63554620000014,415.63554620000014,415.63554620000014,416.8459823000003,Objects\029b.jpg,pre,s,1.2042554999998174,None,,,,,,,,00050,001,2026-01-18_16h37.27.121,MST_test,2024.2.0,60.52341862891323,2026-01-18 16h37.51.940219 +0530,
103,0,104,n,1.2071740999999747,None,104,0,103,416.8607340000003,,,,,,,,,,,,,,,,,,,,,,,,,,,,,,,,,,,,,,,,,,,,,,,,,,416.8462843000002,416.8607340000003,417.3605550000002,417.3447483,417.35296530000005,417.3605550000002,417.3605550000002,417.3605550000002,418.57879690000027,Foils\105a.jpg,none,n,1.2071740999999747,None,,,,,,,,00050,001,2026-01-18_16h37.27.121,MST_test,2024.2.0,60.52341862891323,2026-01-18 16h37.51.940219 +0530,
104,0,105,n,1.9528014000002258,None,105,0,104,418.5940042000002,,,,,,,,,,,,,,,,,,,,,,,,,,,,,,,,,,,,,,,,,,,,,,,,,,418.5790470000002,418.5940042000002,419.0938745000003,419.0783997000003,419.0840178000003,419.0938745000003,419.0938745000003,419.0938745000003,421.0626164,Objects\317a.jpg,post,n,1.9528014000002258,None,,,,,,,,00050,001,2026-01-18_16h37.27.121,MST_test,2024.2.0,60.52341862891323,2026-01-18 16h37.51.940219 +0530,
105,0,106,o,2.4139116999999715,None,106,0,105,421.0770685000002,,,,,,,,,,,,,,,,,,,,,,,,,,,,,,,,,,,,,,,,,,,,,,,,,,421.0629210000002,421.0770685000002,421.57822639999995,421.56152550000024,421.56996359999994,421.57822639999995,421.57822639999995,421.57822639999995,423.99563780000017,Objects\326a.jpg,pre,o,2.4139116999999715,None,,,,,,,,00050,001,2026-01-18_16h37.27.121,MST_test,2024.2.0,60.52341862891323,2026-01-18 16h37.51.940219 +0530,
106,0,107,n,1.480994600000031,None,107,0,106,424.01035600000023,,,,,,,,,,,,,,,,,,,,,,,,,,,,,,,,,,,,,,,,,,,,,,,,,,423.9960737000001,424.01035600000023,424.51100620000034,424.4948399,424.5010443000001,424.51100620000034,424.51100620000034,424.51100620000034,425.99551840000004,Foils\f6.jpg,none,n,1.480994600000031,None,,,,,,,,00050,001,2026-01-18_16h37.27.121,MST_test,2024.2.0,60.52341862891323,2026-01-18 16h37.51.940219 +0530,
107,0,108,s,3.1669428000000153,None,108,0,107,426.0103988999999,,,,,,,,,,,,,,,,,,,,,,,,,,,,,,,,,,,,,,,,,,,,,,,,,,425.9959014000001,426.0103988999999,426.5368318000001,426.4948096000003,426.5340470000001,426.5368318000001,426.5368318000001,426.5368318000001,429.71134150000034,Objects\308b.jpg,mid,s,3.1669428000000153,None,,,,,,,,00050,001,2026-01-18_16h37.27.121,MST_test,2024.2.0,60.52341862891323,2026-01-18 16h37.51.940219 +0530,
108,0,109,s,0.8786614999999074,None,109,0,108,429.72683670000015,,,,,,,,,,,,,,,,,,,,,,,,,,,,,,,,,,,,,,,,,,,,,,,,,,429.71150490000036,429.72683670000015,430.26515340000014,430.2104400000003,430.26248520000036,430.26515340000014,430.26515340000014,430.26515340000014,431.14616950000027,Objects\250b.jpg,pre,s,0.8786614999999074,None,,,,,,,,00050,001,2026-01-18_16h37.27.121,MST_test,2024.2.0,60.52341862891323,2026-01-18 16h37.51.940219 +0530,
109,0,110,s,1.9225698999998713,None,110,0,109,431.16068380000024,,,,,,,,,,,,,,,,,,,,,,,,,,,,,,,,,,,,,,,,,,,,,,,,,,431.1465223,431.16068380000024,431.66102420000016,431.64497359999996,431.65126020000025,431.66102420000016,431.66102420000016,431.66102420000016,433.59584570000015,Objects\050a.jpg,mid,s,1.9225698999998713,None,,,,,,,,00050,001,2026-01-18_16h37.27.121,MST_test,2024.2.0,60.52341862891323,2026-01-18 16h37.51.940219 +0530,
110,0,111,s,2.984337500000038,None,111,0,110,433.61039800000026,,,,,,,,,,,,,,,,,,,,,,,,,,,,,,,,,,,,,,,,,,,,,,,,,,433.5962776000001,433.61039800000026,434.110725,434.0968534000003,434.1053259,434.110725,434.110725,434.110725,437.11239479999995,Objects\243a.jpg,mid,s,2.984337500000038,None,,,,,,,,00050,001,2026-01-18_16h37.27.121,MST_test,2024.2.0,60.52341862891323,2026-01-18 16h37.51.940219 +0530,
111,0,112,o,1.5807049000000006,None,112,0,111,437.1269897000002,,,,,,,,,,,,,,,,,,,,,,,,,,,,,,,,,,,,,,,,,,,,,,,,,,437.1126812000002,437.1269897000002,437.6276753000002,437.6116019000001,437.6199101000002,437.6276753000002,437.6276753000002,437.6276753000002,439.21226479999996,Objects\207a.jpg,mid,o,1.5807049000000006,None,,,,,,,,00050,001,2026-01-18_16h37.27.121,MST_test,2024.2.0,60.52341862891323,2026-01-18 16h37.51.940219 +0530,
112,0,113,o,1.2003182000003108,None,113,0,112,439.2269344000001,,,,,,,,,,,,,,,,,,,,,,,,,,,,,,,,,,,,,,,,,,,,,,,,,,439.2125016,439.2269344000001,439.72731150000027,439.71226060000026,439.7209428000001,439.72731150000027,439.72731150000027,439.72731150000027,440.9294718000001,Objects\158a.jpg,mid,o,1.2003182000003108,None,,,,,,,,00050,001,2026-01-18_16h37.27.121,MST_test,2024.2.0,60.52341862891323,2026-01-18 16h37.51.940219 +0530,
113,0,114,n,1.128377300000011,None,114,0,113,440.94381810000004,,,,,,,,,,,,,,,,,,,,,,,,,,,,,,,,,,,,,,,,,,,,,,,,,,440.9297558000003,440.94381810000004,441.4477221000002,441.42824740000015,441.4453463,441.4477221000002,441.4477221000002,441.4477221000002,442.57982280000033,Foils\033a.jpg,none,n,1.128377300000011,None,,,,,,,,00050,001,2026-01-18_16h37.27.121,MST_test,2024.2.0,60.52341862891323,2026-01-18 16h37.51.940219 +0530,
114,0,115,n,1.2166394999999284,None,115,0,114,442.5937398000001,,,,,,,,,,,,,,,,,,,,,,,,,,,,,,,,,,,,,,,,,,,,,,,,,,442.58008940000036,442.5937398000001,443.0942508000003,443.0779443000001,443.0857962,443.0942508000003,443.0942508000003,443.0942508000003,444.31308290000015,Foils\065a.jpg,none,n,1.2166394999999284,None,,,,,,,,00050,001,2026-01-18_16h37.27.121,MST_test,2024.2.0,60.52341862891323,2026-01-18 16h37.51.940219 +0530,
115,0,116,n,0.9479089999999815,None,116,0,115,444.32711130000007,,,,,,,,,,,,,,,,,,,,,,,,,,,,,,,,,,,,,,,,,,,,,,,,,,444.3134723000003,444.32711130000007,444.8673094999999,444.81152520000023,444.86435329999995,444.8673094999999,444.8673094999999,444.8673094999999,445.8293612000002,Objects\305b.jpg,post,n,0.9479089999999815,None,,,,,,,,00050,001,2026-01-18_16h37.27.121,MST_test,2024.2.0,60.52341862891323,2026-01-18 16h37.51.940219 +0530,
116,0,117,o,5.897545399999672,None,117,0,116,445.84364030000006,,,,,,,,,,,,,,,,,,,,,,,,,,,,,,,,,,,,,,,,,,,,,,,,,,445.8296418,445.84364030000006,446.3742792000003,446.3279292000002,446.37152760000026,446.3742792000003,446.3742792000003,446.3742792000003,452.2788263000002,Objects\205b.jpg,post,o,5.897545399999672,None,,,,,,,,00050,001,2026-01-18_16h37.27.121,MST_test,2024.2.0,60.52341862891323,2026-01-18 16h37.51.940219 +0530,
117,0,118,n,1.2065136000001075,None,118,0,117,452.29373480000004,,,,,,,,,,,,,,,,,,,,,,,,,,,,,,,,,,,,,,,,,,,,,,,,,,452.2790920000002,452.29373480000004,452.8012364000001,452.7782668,452.7977814999999,452.8012364000001,452.8012364000001,452.8012364000001,454.0126177000002,Foils\086a.jpg,none,n,1.2065136000001075,None,,,,,,,,00050,001,2026-01-18_16h37.27.121,MST_test,2024.2.0,60.52341862891323,2026-01-18 16h37.51.940219 +0530,
118,0,119,n,0.9640116000000489,None,119,0,118,454.02701320000006,,,,,,,,,,,,,,,,,,,,,,,,,,,,,,,,,,,,,,,,,,,,,,,,,,454.0129675000003,454.02701320000006,454.54672789999995,454.5108349000002,454.5432767000002,454.54672789999995,454.54672789999995,454.54672789999995,455.51274420000027,Objects\353b.jpg,post,n,0.9640116000000489,None,,,,,,,,00050,001,2026-01-18_16h37.27.121,MST_test,2024.2.0,60.52341862891323,2026-01-18 16h37.51.940219 +0530,
119,0,120,o,1.8918148000002475,None,120,0,119,455.52692890000026,,,,,,,,,,,,,,,,,,,,,,,,,,,,,,,,,,,,,,,,,,,,,,,,,,455.51306120000027,455.52692890000026,456.0277894999999,456.0115713,456.0198097000002,456.0277894999999,456.0277894999999,456.0277894999999,457.9290020000003,Objects\210a.jpg,pre,o,1.8918148000002475,None,,,,,,,,00050,001,2026-01-18_16h37.27.121,MST_test,2024.2.0,60.52341862891323,2026-01-18 16h37.51.940219 +0530,
120,0,121,o,2.5475342999998247,None,121,0,120,457.9437012000003,,,,,,,,,,,,,,,,,,,,,,,,,,,,,,,,,,,,,,,,,,,,,,,,,,457.9293316000003,457.9437012000003,458.4442001000002,458.4281312000003,458.43535050000037,458.4442001000002,458.4442001000002,458.4442001000002,460.99571600000036,Objects\196a.jpg,mid,o,2.5475342999998247,None,,,,,,,,00050,001,2026-01-18_16h37.27.121,MST_test,2024.2.0,60.52341862891323,2026-01-18 16h37.51.940219 +0530,
121,0,122,n,1.3118890999999167,None,122,0,121,461.0105198000001,,,,,,,,,,,,,,,,,,,,,,,,,,,,,,,,,,,,,,,,,,,,,,,,,,460.9960355000003,461.0105198000001,461.5761464000002,461.49483180000016,461.5729314,461.5761464000002,461.5761464000002,461.5761464000002,462.8958872000003,Objects\276b.jpg,post,n,1.3118890999999167,None,,,,,,,,00050,001,2026-01-18_16h37.27.121,MST_test,2024.2.0,60.52341862891323,2026-01-18 16h37.51.940219 +0530,
122,0,123,n,2.2664609999997083,None,123,0,122,462.91072220000024,,,,,,,,,,,,,,,,,,,,,,,,,,,,,,,,,,,,,,,,,,,,,,,,,,462.8962779000003,462.91072220000024,463.45295480000004,463.3948181999999,463.4499957000003,463.45295480000004,463.45295480000004,463.45295480000004,465.72885140000017,Objects\140b.jpg,mid,n,2.2664609999997083,None,,,,,,,,00050,001,2026-01-18_16h37.27.121,MST_test,2024.2.0,60.52341862891323,2026-01-18 16h37.51.940219 +0530,
123,0,124,o,1.2677573000000848,None,124,0,123,465.74382300000025,,,,,,,,,,,,,,,,,,,,,,,,,,,,,,,,,,,,,,,,,,,,,,,,,,465.72929190000013,465.74382300000025,466.2441635,466.2285089000002,466.2374992,466.2441635,466.2441635,466.2441635,467.52947330000006,Objects\018a.jpg,pre,o,1.2677573000000848,None,,,,,,,,00050,001,2026-01-18_16h37.27.121,MST_test,2024.2.0,60.52341862891323,2026-01-18 16h37.51.940219 +0530,
124,0,125,o,1.4891916000001402,None,125,0,124,467.5441384999999,,,,,,,,,,,,,,,,,,,,,,,,,,,,,,,,,,,,,,,,,,,,,,,,,,467.5299011000002,467.5441384999999,468.08763510000017,468.0285200000003,468.0850852000003,468.08763510000017,468.08763510000017,468.08763510000017,469.57977710000023,Objects\072b.jpg,mid,o,1.4891916000001402,None,,,,,,,,00050,001,2026-01-18_16h37.27.121,MST_test,2024.2.0,60.52341862891323,2026-01-18 16h37.51.940219 +0530,
125,0,126,n,0.9174831999998787,None,126,0,125,469.59458459999996,,,,,,,,,,,,,,,,,,,,,,,,,,,,,,,,,,,,,,,,,,,,,,,,,,469.5800965000003,469.59458459999996,470.13023790000034,470.0785057000003,470.08820779999996,470.13023790000034,470.13023790000034,470.13023790000034,471.0622036,Foils\002a.jpg,none,n,0.9174831999998787,None,,,,,,,,00050,001,2026-01-18_16h37.27.121,MST_test,2024.2.0,60.52341862891323,2026-01-18 16h37.51.940219 +0530,
126,0,127,n,1.5812519999999495,None,127,0,126,471.0770388000001,,,,,,,,,,,,,,,,,,,,,,,,,,,,,,,,,,,,,,,,,,,,,,,,,,471.06261440000026,471.0770388000001,471.57758030000014,471.5615928000002,471.56984120000016,471.57758030000014,471.57758030000014,471.57758030000014,473.1623251000001,Objects\359a.jpg,pre,n,1.5812519999999495,None,,,,,,,,00050,001,2026-01-18_16h37.27.121,MST_test,2024.2.0,60.52341862891323,2026-01-18 16h37.51.940219 +0530,
127,0,128,n,1.742392099999961,None,128,0,127,473.1770896000003,,,,,,,,,,,,,,,,,,,,,,,,,,,,,,,,,,,,,,,,,,,,,,,,,,473.1627589,473.1770896000003,473.7210149000002,473.6616666,473.71766720000005,473.7210149000002,473.7210149000002,473.7210149000002,475.4791126,Objects\102b.jpg,mid,n,1.742392099999961,None,,,,,,,,00050,001,2026-01-18_16h37.27.121,MST_test,2024.2.0,60.52341862891323,2026-01-18 16h37.51.940219 +0530,
128,0,129,n,1.0057573999997658,None,129,0,128,475.4937344,,,,,,,,,,,,,,,,,,,,,,,,,,,,,,,,,,,,,,,,,,,,,,,,,,475.4793744000003,475.4937344,475.99416840000004,475.9781430000003,475.9839571000002,475.99416840000004,475.99416840000004,475.99416840000004,477.0125548000001,Foils\081a.jpg,none,n,1.0057573999997658,None,,,,,,,,00050,001,2026-01-18_16h37.27.121,MST_test,2024.2.0,60.52341862891323,2026-01-18 16h37.51.940219 +0530,
129,0,130,n,0.8881488000001809,None,130,0,129,477.0271164999999,,,,,,,,,,,,,,,,,,,,,,,,,,,,,,,,,,,,,,,,,,,,,,,,,,477.0128371999999,477.0271164999999,477.52720309999995,477.51145380000025,477.51759800000036,477.52720309999995,477.52720309999995,477.52720309999995,478.4290844000002,Objects\101a.jpg,post,n,0.8881488000001809,None,,,,,,,,00050,001,2026-01-18_16h37.27.121,MST_test,2024.2.0,60.52341862891323,2026-01-18 16h37.51.940219 +0530,
130,0,131,o,1.462537599999905,None,131,0,130,478.44367630000033,,,,,,,,,,,,,,,,,,,,,,,,,,,,,,,,,,,,,,,,,,,,,,,,,,478.4294437000003,478.44367630000033,478.94425200000023,478.92882690000033,478.9366212,478.94425200000023,478.94425200000023,478.94425200000023,480.41294560000006,Objects\021a.jpg,mid,o,1.462537599999905,None,,,,,,,,00050,001,2026-01-18_16h37.27.121,MST_test,2024.2.0,60.52341862891323,2026-01-18 16h37.51.940219 +0530,
131,0,132,n,2.541279900000063,None,132,0,131,480.42780660000017,,,,,,,,,,,,,,,,,,,,,,,,,,,,,,,,,,,,,,,,,,,,,,,,,,480.41335930000014,480.42780660000017,480.93071869999994,480.9113725000002,480.9279322000002,480.93071869999994,480.93071869999994,480.93071869999994,483.4794423000003,Foils\074a.jpg,none,n,2.541279900000063,None,,,,,,,,00050,001,2026-01-18_16h37.27.121,MST_test,2024.2.0,60.52341862891323,2026-01-18 16h37.51.940219 +0530,
132,0,133,n,1.1854410999999345,None,133,0,132,483.49380150000025,,,,,,,,,,,,,,,,,,,,,,,,,,,,,,,,,,,,,,,,,,,,,,,,,,483.47988350000014,483.49380150000025,483.9988754000001,483.9782147000001,483.99623480000037,483.9988754000001,483.9988754000001,483.9988754000001,485.1957913000001,Foils\042a.jpg,none,n,1.1854410999999345,None,,,,,,,,00050,001,2026-01-18_16h37.27.121,MST_test,2024.2.0,60.52341862891323,2026-01-18 16h37.51.940219 +0530,
133,0,134,o,1.1858071000001473,None,134,0,133,485.21035340000026,,,,,,,,,,,,,,,,,,,,,,,,,,,,,,,,,,,,,,,,,,,,,,,,,,485.1961865000003,485.21035340000026,485.74902629999997,485.69531050000023,485.74598289999994,485.74902629999997,485.74902629999997,485.74902629999997,486.9456163,Objects\123b.jpg,mid,o,1.1858071000001473,None,,,,,,,,00050,001,2026-01-18_16h37.27.121,MST_test,2024.2.0,60.52341862891323,2026-01-18 16h37.51.940219 +0530,
134,0,135,o,1.93938849999995,None,135,0,134,486.9603409000001,,,,,,,,,,,,,,,,,,,,,,,,,,,,,,,,,,,,,,,,,,,,,,,,,,486.94593650000024,486.9603409000001,487.4606195000001,487.444755,487.45370460000004,487.4606195000001,487.4606195000001,487.4606195000001,489.4127407000001,Objects\228a.jpg,post,o,1.93938849999995,None,,,,,,,,00050,001,2026-01-18_16h37.27.121,MST_test,2024.2.0,60.52341862891323,2026-01-18 16h37.51.940219 +0530,
135,0,136,o,2.4825175999999374,None,136,0,135,489.4270626000002,,,,,,,,,,,,,,,,,,,,,,,,,,,,,,,,,,,,,,,,,,,,,,,,,,489.41303500000004,489.4270626000002,489.94821279999996,489.91130079999994,489.94509259999995,489.94821279999996,489.94821279999996,489.94821279999996,492.4460858000002,Objects\381b.jpg,post,o,2.4825175999999374,None,,,,,,,,00050,001,2026-01-18_16h37.27.121,MST_test,2024.2.0,60.52341862891323,2026-01-18 16h37.51.940219 +0530,
136,0,137,n,1.266981499999929,None,137,0,136,492.46058040000025,,,,,,,,,,,,,,,,,,,,,,,,,,,,,,,,,,,,,,,,,,,,,,,,,,492.4463618,492.46058040000025,492.97968850000007,492.94500080000034,492.9767933000003,492.97968850000007,492.97968850000007,492.97968850000007,494.26258310000003,Objects\156b.jpg,post,n,1.266981499999929,None,,,,,,,,00050,001,2026-01-18_16h37.27.121,MST_test,2024.2.0,60.52341862891323,2026-01-18 16h37.51.940219 +0530,
137,0,138,n,1.469536000000062,None,138,0,137,494.2772394000003,,,,,,,,,,,,,,,,,,,,,,,,,,,,,,,,,,,,,,,,,,,,,,,,,,494.2629632000003,494.2772394000003,494.7934531000001,494.76150380000036,494.79060660000005,494.7934531000001,494.7934531000001,494.7934531000001,496.2790994000002,Objects\261b.jpg,mid,n,1.469536000000062,None,,,,,,,,00050,001,2026-01-18_16h37.27.121,MST_test,2024.2.0,60.52341862891323,2026-01-18 16h37.51.940219 +0530,
138,0,139,n,1.0521625000001222,None,139,0,138,496.2937201,,,,,,,,,,,,,,,,,,,,,,,,,,,,,,,,,,,,,,,,,,,,,,,,,,496.27950180000016,496.2937201,496.79470830000037,496.7779585000003,496.78458070000033,496.79470830000037,496.79470830000037,496.79470830000037,497.86218869999993,Objects\065a.jpg,post,n,1.0521625000001222,None,,,,,,,,00050,001,2026-01-18_16h37.27.121,MST_test,2024.2.0,60.52341862891323,2026-01-18 16h37.51.940219 +0530,
139,0,140,s,1.7310397999999623,None,140,0,139,497.87687540000024,,,,,,,,,,,,,,,,,,,,,,,,,,,,,,,,,,,,,,,,,,,,,,,,,,497.8625334000003,497.87687540000024,498.40435830000024,498.3614854000002,498.4012121999999,498.40435830000024,498.40435830000024,498.40435830000024,500.14592360000006,Objects\069b.jpg,pre,s,1.7310397999999623,None,,,,,,,,00050,001,2026-01-18_16h37.27.121,MST_test,2024.2.0,60.52341862891323,2026-01-18 16h37.51.940219 +0530,
140,0,141,o,1.178669799999625,None,141,0,140,500.16077350000023,,,,,,,,,,,,,,,,,,,,,,,,,,,,,,,,,,,,,,,,,,,,,,,,,,500.14625430000024,500.16077350000023,500.6607100000001,500.64480060000005,500.65085390000013,500.6607100000001,500.6607100000001,500.6607100000001,501.8456003000001,Objects\028a.jpg,pre,o,1.178669799999625,None,,,,,,,,00050,001,2026-01-18_16h37.27.121,MST_test,2024.2.0,60.52341862891323,2026-01-18 16h37.51.940219 +0530,
141,0,142,s,1.1747338000000127,None,142,0,141,501.86080800000036,,,,,,,,,,,,,,,,,,,,,,,,,,,,,,,,,,,,,,,,,,,,,,,,,,501.8458671000003,501.86080800000036,502.3609187000002,502.3451594000003,502.35062930000004,502.3609187000002,502.3609187000002,502.3609187000002,503.5456342000002,Foils\106a.jpg,none,s,1.1747338000000127,None,,,,,,,,00050,001,2026-01-18_16h37.27.121,MST_test,2024.2.0,60.52341862891323,2026-01-18 16h37.51.940219 +0530,
142,0,143,s,1.825832900000023,None,143,0,142,503.5602804,,,,,,,,,,,,,,,,,,,,,,,,,,,,,,,,,,,,,,,,,,,,,,,,,,503.5459028,503.5602804,504.07818450000013,504.04460700000027,504.07522100000006,504.07818450000013,504.07818450000013,504.07818450000013,505.9125790000003,Objects\270b.jpg,post,s,1.825832900000023,None,,,,,,,,00050,001,2026-01-18_16h37.27.121,MST_test,2024.2.0,60.52341862891323,2026-01-18 16h37.51.940219 +0530,
143,0,144,s,0.9967611000001853,None,144,0,143,505.92697210000006,,,,,,,,,,,,,,,,,,,,,,,,,,,,,,,,,,,,,,,,,,,,,,,,,,505.9128805,505.92697210000006,506.42731440000034,506.41164230000004,506.4206131000001,506.42731440000034,506.42731440000034,506.42731440000034,507.4290810000002,Objects\088a.jpg,post,s,0.9967611000001853,None,,,,,,,,00050,001,2026-01-18_16h37.27.121,MST_test,2024.2.0,60.52341862891323,2026-01-18 16h37.51.940219 +0530,
144,0,145,s,1.0161984000001212,None,145,0,144,507.44367250000005,,,,,,,,,,,,,,,,,,,,,,,,,,,,,,,,,,,,,,,,,,,,,,,,,,507.4294565,507.44367250000005,507.9443070000002,507.9281940999999,507.93633620000037,507.9443070000002,507.9443070000002,507.9443070000002,508.96254620000036,Objects\235a.jpg,pre,s,1.0161984000001212,None,,,,,,,,00050,001,2026-01-18_16h37.27.121,MST_test,2024.2.0,60.52341862891323,2026-01-18 16h37.51.940219 +0530,
145,0,146,o,1.7138311999997313,None,146,0,145,508.9769779000003,,,,,,,,,,,,,,,,,,,,,,,,,,,,,,,,,,,,,,,,,,,,,,,,,,508.9628150000003,508.9769779000003,509.4778730000003,509.46131000000014,509.46942100000024,509.4778730000003,509.4778730000003,509.4778730000003,511.19590540000036,Objects\033a.jpg,mid,o,1.7138311999997313,None,,,,,,,,00050,001,2026-01-18_16h37.27.121,MST_test,2024.2.0,60.52341862891323,2026-01-18 16h37.51.940219 +0530,
146,0,147,n,1.2084189999995942,None,147,0,146,511.2105478000003,,,,,,,,,,,,,,,,,,,,,,,,,,,,,,,,,,,,,,,,,,,,,,,,,,511.19622789999994,511.2105478000003,511.71054900000036,511.69469389999995,511.7033719000001,511.71054900000036,511.71054900000036,511.71054900000036,512.9294889000003,Objects\298a.jpg,pre,n,1.2084189999995942,None,,,,,,,,00050,001,2026-01-18_16h37.27.121,MST_test,2024.2.0,60.52341862891323,2026-01-18 16h37.51.940219 +0530,
147,0,148,s,1.6038953000002039,None,148,0,147,512.9436335,,,,,,,,,,,,,,,,,,,,,,,,,,,,,,,,,,,,,,,,,,,,,,,,,,512.9299011000003,512.9436335,513.4438049,513.4282751999999,513.4344709000002,513.4438049,513.4438049,513.4438049,515.0626986000002,Objects\106a.jpg,post,s,1.6038953000002039,None,,,,,,,,00050,001,2026-01-18_16h37.27.121,MST_test,2024.2.0,60.52341862891323,2026-01-18 16h37.51.940219 +0530,
148,0,149,s,2.7374393999998574,None,149,0,148,515.0767926000003,,,,,,,,,,,,,,,,,,,,,,,,,,,,,,,,,,,,,,,,,,,,,,,,,,515.0629662000001,515.0767926000003,515.5981707999999,515.5614171000002,515.5954740000002,515.5981707999999,515.5981707999999,515.5981707999999,518.3454873000001,Objects\056b.jpg,post,s,2.7374393999998574,None,,,,,,,,00050,001,2026-01-18_16h37.27.121,MST_test,2024.2.0,60.52341862891323,2026-01-18 16h37.51.940219 +0530,
149,0,150,o,1.2836212000001979,None,150,0,149,518.3604113000001,,,,,,,,,,,,,,,,,,,,,,,,,,,,,,,,,,,,,,,,,,,,,,,,,,518.3458385000004,518.3604113000001,518.8606523000003,518.8445914000004,518.8525319,518.8606523000003,518.8606523000003,518.8606523000003,520.1462661,Objects\041a.jpg,post,o,1.2836212000001979,None,,,,,,,,00050,001,2026-01-18_16h37.27.121,MST_test,2024.2.0,60.52341862891323,2026-01-18 16h37.51.940219 +0530,
,,,,,,,,,,,,,,,,,,,,,,,,,,,,,,,,,,,,,,,,,,,,,,,,,,,,,,,,,,,,,,,,,,,,,,,,,520.1465462000001,520.1608521000003,520.1608521000003,521.7628316,space,1.5988243000001603,None,00050,001,2026-01-18_16h37.27.121,MST_test,2024.2.0,60.52341862891323,2026-01-18 16h37.51.940219 +0530,
