thisN,thisTrialN,thisRepN,key_resp_3.keys,key_resp_3.rt,key_resp_3.duration,trials.thisRepN,trials.thisTrialN,trials.thisN,thisRow.t,notes,intro_page.started,text.started,key_resp.started,intro_page.stopped,key_resp.keys,key_resp.rt,key_resp.duration,instructions.started,text_2.started,key_resp_2.started,instructions.stopped,key_resp_2.keys,key_resp_2.rt,key_resp_2.duration,demo1.started,image_1.started,image_2.started,text_7.started,key_resp_6.started,text_9.started,demo1.stopped,key_resp_6.keys,key_resp_6.rt,key_resp_6.duration,demo3.started,image_5.started,image_6.started,text_11.started,text_12.started,key_resp_8.started,demo3.stopped,key_resp_8.keys,key_resp_8.rt,key_resp_8.duration,demo_conclusion.started,text_13.started,key_resp_9.started,demo_conclusion.stopped,key_resp_9.keys,key_resp_9.rt,key_resp_9.duration,start_test.started,text_6.started,key_resp_5.started,start_test.stopped,key_resp_5.keys,key_resp_5.rt,key_resp_5.duration,ISI.started,text_4.started,ISI.stopped,routine_1.started,image.started,text_3.started,key_resp_3.started,routine_1.stopped,image_path,position_of_stimuli,trials.key_resp_3.keys,trials.key_resp_3.rt,trials.key_resp_3.duration,End_page.started,text_5.started,key_resp_4.started,End_page.stopped,key_resp_4.keys,key_resp_4.rt,key_resp_4.duration,participant,session,date,expName,psychopyVersion,frameRate,expStart,
,,,,,,,,,,,0.014638799999374896,0.03034500003559515,0.03034500003559515,9.793501400039531,space,9.703910999989603,None,,,,,,,,,,,,,,,,,,,,,,,,,,,,,,,,,,,,,,,,,,,,,,,,,,,,,,,,,,,,,,00057,001,2026-01-19_11h48.50.532,MST_test,2024.2.0,59.76007524572899,2026-01-19 11h49.07.972694 +0530,
,,,,,,,,,,,,,,,,,,9.793543300009333,9.815543500008062,9.815543500008062,22.17606720002368,space,12.350661700009368,None,,,,,,,,,,,,,,,,,,,,,,,,,,,,,,,,,,,,,,,,,,,,,,,,,,,,,,,00057,001,2026-01-19_11h48.50.532,MST_test,2024.2.0,59.76007524572899,2026-01-19 11h49.07.972694 +0530,
,,,,,,,,,,,,,,,,,,,,,,,,,22.17609610001091,22.192225100006908,22.192225100006908,22.192225100006908,22.192225100006908,22.192225100006908,30.906853899999987,space,8.710315399977844,None,,,,,,,,,,,,,,,,,,,,,,,,,,,,,,,,,,,,,,,,,,,,,00057,001,2026-01-19_11h48.50.532,MST_test,2024.2.0,59.76007524572899,2026-01-19 11h49.07.972694 +0530,
,,,,,,,,,,,,,,,,,,,,,,,,,,,,,,,,,,,30.906888300029095,30.922769800003152,30.922769800003152,30.922769800003152,30.922769800003152,30.922769800003152,35.33894310001051,space,4.411616600002162,None,,,,,,,,,,,,,,,,,,,,,,,,,,,,,,,,,,,00057,001,2026-01-19_11h48.50.532,MST_test,2024.2.0,59.76007524572899,2026-01-19 11h49.07.972694 +0530,
,,,,,,,,,,,,,,,,,,,,,,,,,,,,,,,,,,,,,,,,,,,,,35.33897230000002,35.35484169999836,35.35484169999836,103.34382609999739,space,67.98697130003711,None,,,,,,,,,,,,,,,,,,,,,,,,,,,,00057,001,2026-01-19_11h48.50.532,MST_test,2024.2.0,59.76007524572899,2026-01-19 11h49.07.972694 +0530,
,,,,,,,,,,,,,,,,,,,,,,,,,,,,,,,,,,,,,,,,,,,,,,,,,,,,103.34387040004367,103.3763961000368,103.3763961000368,117.86111450003227,space,14.470403400016949,None,,,,,,,,,,,,,,,,,,,,,00057,001,2026-01-19_11h48.50.532,MST_test,2024.2.0,59.76007524572899,2026-01-19 11h49.07.972694 +0530,
0,0,1,o,5.386218199972063,None,1,0,0,117.87716259999434,,,,,,,,,,,,,,,,,,,,,,,,,,,,,,,,,,,,,,,,,,,,,,,,,,117.86450429999968,117.87716259999434,118.36234640004113,118.3830363000161,118.39642070000991,118.39642070000991,118.39642070000991,123.79846419999376,Objects\342a.jpg,post,o,5.386218199972063,None,,,,,,,,00057,001,2026-01-19_11h48.50.532,MST_test,2024.2.0,59.76007524572899,2026-01-19 11h49.07.972694 +0530,
1,0,2,s,3.9929367000004277,None,2,0,1,123.81462010001997,,,,,,,,,,,,,,,,,,,,,,,,,,,,,,,,,,,,,,,,,,,,,,,,,,123.79857350001112,123.81462010001997,124.29983030003496,124.3091997000156,124.33310059999349,124.33310059999349,124.33310059999349,128.33142639999278,Objects\025a.jpg,post,s,3.9929367000004277,None,,,,,,,,00057,001,2026-01-19_11h48.50.532,MST_test,2024.2.0,59.76007524572899,2026-01-19 11h49.07.972694 +0530,
2,0,3,o,3.5571244999882765,None,3,0,2,128.34722560003866,,,,,,,,,,,,,,,,,,,,,,,,,,,,,,,,,,,,,,,,,,,,,,,,,,128.33154550002655,128.34722560003866,128.8326420999947,128.84207290003542,128.86559860000852,128.86559860000852,128.86559860000852,132.4291015000199,Objects\017b.jpg,post,o,3.5571244999882765,None,,,,,,,,00057,001,2026-01-19_11h48.50.532,MST_test,2024.2.0,59.76007524572899,2026-01-19 11h49.07.972694 +0530,
3,0,4,s,3.7796501999837346,None,4,0,3,132.44484529999318,,,,,,,,,,,,,,,,,,,,,,,,,,,,,,,,,,,,,,,,,,,,,,,,,,132.42919370002346,132.44484529999318,132.93005060002906,132.9392586000031,132.9633221999975,132.9633221999975,132.9633221999975,136.74413410003763,Objects\159b.jpg,pre,s,3.7796501999837346,None,,,,,,,,00057,001,2026-01-19_11h48.50.532,MST_test,2024.2.0,59.76007524572899,2026-01-19 11h49.07.972694 +0530,
4,0,5,s,3.3991612999816425,None,5,0,4,136.760068100004,,,,,,,,,,,,,,,,,,,,,,,,,,,,,,,,,,,,,,,,,,,,,,,,,,136.74423320003552,136.760068100004,137.24504529999103,137.25606260000495,137.27855600003386,137.27855600003386,137.27855600003386,140.69121190003352,Objects\153a.jpg,mid,s,3.3991612999816425,None,,,,,,,,00057,001,2026-01-19_11h48.50.532,MST_test,2024.2.0,59.76007524572899,2026-01-19 11h49.07.972694 +0530,
5,0,6,o,3.73963729996467,None,6,0,5,140.70713460003026,,,,,,,,,,,,,,,,,,,,,,,,,,,,,,,,,,,,,,,,,,,,,,,,,,140.6913100000238,140.70713460003026,141.19228820002172,141.20774530002382,141.22633000003407,141.22633000003407,141.22633000003407,144.972813600034,Objects\327b.jpg,mid,o,3.73963729996467,None,,,,,,,,00057,001,2026-01-19_11h48.50.532,MST_test,2024.2.0,59.76007524572899,2026-01-19 11h49.07.972694 +0530,
6,0,7,o,2.9468717999989167,None,7,0,6,144.98887930001365,,,,,,,,,,,,,,,,,,,,,,,,,,,,,,,,,,,,,,,,,,,,,,,,,,144.97291260003112,144.98887930001365,145.47386329999426,145.49020270002075,145.50748840003507,145.50748840003507,145.50748840003507,148.46858660003636,Objects\086b.jpg,mid,o,2.9468717999989167,None,,,,,,,,00057,001,2026-01-19_11h48.50.532,MST_test,2024.2.0,59.76007524572899,2026-01-19 11h49.07.972694 +0530,
7,0,8,o,3.3468431999790482,None,8,0,7,148.48446410003817,,,,,,,,,,,,,,,,,,,,,,,,,,,,,,,,,,,,,,,,,,,,,,,,,,148.46867969998857,148.48446410003817,148.96942830004264,148.9786243000417,149.00294400000712,149.00294400000712,149.00294400000712,152.36517340003047,Foils\049a.jpg,none,o,3.3468431999790482,None,,,,,,,,00057,001,2026-01-19_11h48.50.532,MST_test,2024.2.0,59.76007524572899,2026-01-19 11h49.07.972694 +0530,
8,0,9,o,1.265982300043106,None,9,0,8,152.38144339999417,,,,,,,,,,,,,,,,,,,,,,,,,,,,,,,,,,,,,,,,,,,,,,,,,,152.36526710004546,152.38144339999417,152.8664157000021,152.87597729999106,152.8999410000397,152.8999410000397,152.8999410000397,154.1716379999998,Objects\112a.jpg,post,o,1.265982300043106,None,,,,,,,,00057,001,2026-01-19_11h48.50.532,MST_test,2024.2.0,59.76007524572899,2026-01-19 11h49.07.972694 +0530,
9,0,10,o,1.3552428999682888,None,10,0,9,154.18764300004113,,,,,,,,,,,,,,,,,,,,,,,,,,,,,,,,,,,,,,,,,,,,,,,,,,154.1717345000361,154.18764300004113,154.67271110002184,154.68199270003242,154.7063547000289,154.7063547000289,154.7063547000289,156.07835490000434,Objects\158a.jpg,pre,o,1.3552428999682888,None,,,,,,,,00057,001,2026-01-19_11h48.50.532,MST_test,2024.2.0,59.76007524572899,2026-01-19 11h49.07.972694 +0530,
10,0,11,n,1.4088407999952324,None,11,0,10,156.09435190004297,,,,,,,,,,,,,,,,,,,,,,,,,,,,,,,,,,,,,,,,,,,,,,,,,,156.07845070003532,156.09435190004297,156.5795589000336,156.5893048000289,156.61281150003197,156.61281150003197,156.61281150003197,158.03520500002196,Objects\134a.jpg,post,n,1.4088407999952324,None,,,,,,,,00057,001,2026-01-19_11h48.50.532,MST_test,2024.2.0,59.76007524572899,2026-01-19 11h49.07.972694 +0530,
11,0,12,s,4.501580799988005,None,12,0,11,158.05118740000762,,,,,,,,,,,,,,,,,,,,,,,,,,,,,,,,,,,,,,,,,,,,,,,,,,158.0352978000301,158.05118740000762,158.53637829999207,158.545342300029,158.56965580000542,158.56965580000542,158.56965580000542,163.08689880004385,Objects\008b.jpg,post,s,4.501580799988005,None,,,,,,,,00057,001,2026-01-19_11h48.50.532,MST_test,2024.2.0,59.76007524572899,2026-01-19 11h49.07.972694 +0530,
12,0,13,o,3.0169137000339106,None,13,0,12,163.1022168000345,,,,,,,,,,,,,,,,,,,,,,,,,,,,,,,,,,,,,,,,,,,,,,,,,,163.08700050000334,163.1022168000345,163.58758150000358,163.5966100000078,163.62086050002836,163.62086050002836,163.62086050002836,166.6491824000259,Objects\141b.jpg,post,o,3.0169137000339106,None,,,,,,,,00057,001,2026-01-19_11h48.50.532,MST_test,2024.2.0,59.76007524572899,2026-01-19 11h49.07.972694 +0530,
13,0,14,o,1.248164499993436,None,14,0,13,166.66469050000887,,,,,,,,,,,,,,,,,,,,,,,,,,,,,,,,,,,,,,,,,,,,,,,,,,166.64928060001694,166.66469050000887,167.14991650002776,167.1570125000435,167.16598650004016,167.16598650004016,167.16598650004016,168.4214965000283,Objects\335a.jpg,post,o,1.248164499993436,None,,,,,,,,00057,001,2026-01-19_11h48.50.532,MST_test,2024.2.0,59.76007524572899,2026-01-19 11h49.07.972694 +0530,
14,0,15,o,4.545654499961529,None,15,0,14,168.43755420000525,,,,,,,,,,,,,,,,,,,,,,,,,,,,,,,,,,,,,,,,,,,,,,,,,,168.4215891000349,168.43755420000525,168.92278180003632,168.93841160001466,168.9560419000336,168.9560419000336,168.9560419000336,173.5059150000452,Objects\219a.jpg,mid,o,4.545654499961529,None,,,,,,,,00057,001,2026-01-19_11h48.50.532,MST_test,2024.2.0,59.76007524572899,2026-01-19 11h49.07.972694 +0530,
15,0,16,n,5.9331471000332385,None,16,0,15,173.52215979999164,,,,,,,,,,,,,,,,,,,,,,,,,,,,,,,,,,,,,,,,,,,,,,,,,,173.50601630000165,173.52215979999164,174.00727110001026,174.01694520004094,174.04063730000053,174.04063730000053,174.04063730000053,179.97867079998832,Objects\122a.jpg,post,n,5.9331471000332385,None,,,,,,,,00057,001,2026-01-19_11h48.50.532,MST_test,2024.2.0,59.76007524572899,2026-01-19 11h49.07.972694 +0530,
16,0,17,o,3.4448021999560297,None,17,0,16,179.99482870002976,,,,,,,,,,,,,,,,,,,,,,,,,,,,,,,,,,,,,,,,,,,,,,,,,,179.9787631999934,179.99482870002976,180.47976730001392,180.48906580003677,180.51328940002713,180.51328940002713,180.51328940002713,183.9594930000021,Objects\044b.jpg,mid,o,3.4448021999560297,None,,,,,,,,00057,001,2026-01-19_11h48.50.532,MST_test,2024.2.0,59.76007524572899,2026-01-19 11h49.07.972694 +0530,
17,0,18,s,1.6250443000462838,None,18,0,17,183.97531220002566,,,,,,,,,,,,,,,,,,,,,,,,,,,,,,,,,,,,,,,,,,,,,,,,,,183.95958970003994,183.97531220002566,184.4605067000375,184.46981630002847,184.49377649999224,184.49377649999224,184.49377649999224,186.13359630003106,Objects\104a.jpg,pre,s,1.6250443000462838,None,,,,,,,,00057,001,2026-01-19_11h48.50.532,MST_test,2024.2.0,59.76007524572899,2026-01-19 11h49.07.972694 +0530,
18,0,19,n,3.1781576999928802,None,19,0,18,186.1496926000109,,,,,,,,,,,,,,,,,,,,,,,,,,,,,,,,,,,,,,,,,,,,,,,,,,186.13369919999968,186.1496926000109,186.63480679999338,186.64950150001096,186.6681765000103,186.6681765000103,186.6681765000103,189.8469706000178,Objects\340a.jpg,pre,n,3.1781576999928802,None,,,,,,,,00057,001,2026-01-19_11h48.50.532,MST_test,2024.2.0,59.76007524572899,2026-01-19 11h49.07.972694 +0530,
19,0,20,s,1.53756169998087,None,20,0,19,189.8626699000015,,,,,,,,,,,,,,,,,,,,,,,,,,,,,,,,,,,,,,,,,,,,,,,,,,189.84706150001148,189.8626699000015,190.34780170000158,190.3628743000445,190.38106490002247,190.38106490002247,190.38106490002247,191.92052220000187,Objects\364b.jpg,mid,s,1.53756169998087,None,,,,,,,,00057,001,2026-01-19_11h48.50.532,MST_test,2024.2.0,59.76007524572899,2026-01-19 11h49.07.972694 +0530,
20,0,21,n,1.694728899979964,None,21,0,20,191.93662719998974,,,,,,,,,,,,,,,,,,,,,,,,,,,,,,,,,,,,,,,,,,,,,,,,,,191.92061999998987,191.93662719998974,192.4215847000014,192.4361101000104,192.4552367000142,192.4552367000142,192.4552367000142,194.1615578000201,Foils\098a.jpg,none,n,1.694728899979964,None,,,,,,,,00057,001,2026-01-19_11h48.50.532,MST_test,2024.2.0,59.76007524572899,2026-01-19 11h49.07.972694 +0530,
21,0,22,o,1.3657993000233546,None,22,0,21,194.17769929999486,,,,,,,,,,,,,,,,,,,,,,,,,,,,,,,,,,,,,,,,,,,,,,,,,,194.16165010002442,194.17769929999486,194.66309929999989,194.67441660002805,194.69618269999046,194.69618269999046,194.69618269999046,196.06843250000384,Objects\182a.jpg,post,o,1.3657993000233546,None,,,,,,,,00057,001,2026-01-19_11h48.50.532,MST_test,2024.2.0,59.76007524572899,2026-01-19 11h49.07.972694 +0530,
22,0,23,n,4.0193984000361525,None,23,0,22,196.08448720001616,,,,,,,,,,,,,,,,,,,,,,,,,,,,,,,,,,,,,,,,,,,,,,,,,,196.06852460000664,196.08448720001616,196.56961710000178,196.5806903000339,196.60296769998968,196.60296769998968,196.60296769998968,200.63381930004107,Objects\229b.jpg,pre,n,4.0193984000361525,None,,,,,,,,00057,001,2026-01-19_11h48.50.532,MST_test,2024.2.0,59.76007524572899,2026-01-19 11h49.07.972694 +0530,
23,0,24,o,1.4134220999549143,None,24,0,23,200.65016780002043,,,,,,,,,,,,,,,,,,,,,,,,,,,,,,,,,,,,,,,,,,,,,,,,,,200.63391920004506,200.65016780002043,201.13515330001246,201.144300999993,201.1686316000414,201.1686316000414,201.1686316000414,202.59119960002135,Objects\087a.jpg,pre,o,1.4134220999549143,None,,,,,,,,00057,001,2026-01-19_11h48.50.532,MST_test,2024.2.0,59.76007524572899,2026-01-19 11h49.07.972694 +0530,
24,0,25,o,1.1687355999602005,None,25,0,24,202.60703220003052,,,,,,,,,,,,,,,,,,,,,,,,,,,,,,,,,,,,,,,,,,,,,,,,,,202.59129230002873,202.60703220003052,203.0920093000168,203.10111380001763,203.1254776000278,203.1254776000278,203.1254776000278,204.2969539000187,Objects\274a.jpg,mid,o,1.1687355999602005,None,,,,,,,,00057,001,2026-01-19_11h48.50.532,MST_test,2024.2.0,59.76007524572899,2026-01-19 11h49.07.972694 +0530,
25,0,26,s,2.4785592000116594,None,26,0,25,204.31287220004015,,,,,,,,,,,,,,,,,,,,,,,,,,,,,,,,,,,,,,,,,,,,,,,,,,204.29705029999604,204.31287220004015,204.79810050001834,204.80728519998956,204.83133600000292,204.83133600000292,204.83133600000292,207.32390170003055,Foils\074a.jpg,none,s,2.4785592000116594,None,,,,,,,,00057,001,2026-01-19_11h48.50.532,MST_test,2024.2.0,59.76007524572899,2026-01-19 11h49.07.972694 +0530,
26,0,27,s,1.6428757999674417,None,27,0,26,207.34028200001922,,,,,,,,,,,,,,,,,,,,,,,,,,,,,,,,,,,,,,,,,,,,,,,,,,207.32402629998978,207.34028200001922,207.8254472000408,207.8353078000364,207.85892990004504,207.85892990004504,207.85892990004504,209.51505330001237,Foils\101b.jpg,none,s,1.6428757999674417,None,,,,,,,,00057,001,2026-01-19_11h48.50.532,MST_test,2024.2.0,59.76007524572899,2026-01-19 11h49.07.972694 +0530,
27,0,28,o,1.1640127999708056,None,28,0,27,209.531291900028,,,,,,,,,,,,,,,,,,,,,,,,,,,,,,,,,,,,,,,,,,,,,,,,,,209.5151518000057,209.531291900028,210.016264600039,210.02585370000452,210.04993889998877,210.04993889998877,210.04993889998877,211.22117249999428,Objects\154b.jpg,mid,o,1.1640127999708056,None,,,,,,,,00057,001,2026-01-19_11h48.50.532,MST_test,2024.2.0,59.76007524572899,2026-01-19 11h49.07.972694 +0530,
28,0,29,s,1.410265700018499,None,29,0,28,211.23713790002512,,,,,,,,,,,,,,,,,,,,,,,,,,,,,,,,,,,,,,,,,,,,,,,,,,211.2212666000123,211.23713790002512,211.72233850002522,211.73214690003078,211.75564470002428,211.75564470002428,211.75564470002428,213.17795109999133,Objects\058a.jpg,post,s,1.410265700018499,None,,,,,,,,00057,001,2026-01-19_11h48.50.532,MST_test,2024.2.0,59.76007524572899,2026-01-19 11h49.07.972694 +0530,
29,0,30,s,4.0371143000083975,None,30,0,29,213.19409150001593,,,,,,,,,,,,,,,,,,,,,,,,,,,,,,,,,,,,,,,,,,,,,,,,,,213.17804339999566,213.19409150001593,213.67949920002138,213.6888762000017,213.71255960001145,213.71255960001145,213.71255960001145,217.76080300001195,Objects\056b.jpg,post,s,4.0371143000083975,None,,,,,,,,00057,001,2026-01-19_11h48.50.532,MST_test,2024.2.0,59.76007524572899,2026-01-19 11h49.07.972694 +0530,
30,0,31,s,1.766691799974069,None,31,0,30,217.77683139999863,,,,,,,,,,,,,,,,,,,,,,,,,,,,,,,,,,,,,,,,,,,,,,,,,,217.76089460001094,217.77683139999863,218.26180070004193,218.2714272000012,218.29526720003923,218.29526720003923,218.29526720003923,220.0687598999939,Objects\098b.jpg,post,s,1.766691799974069,None,,,,,,,,00057,001,2026-01-19_11h48.50.532,MST_test,2024.2.0,59.76007524572899,2026-01-19 11h49.07.972694 +0530,
31,0,32,s,1.3475402999902144,None,32,0,31,220.08477900002617,,,,,,,,,,,,,,,,,,,,,,,,,,,,,,,,,,,,,,,,,,,,,,,,,,220.06885400001192,220.08477900002617,220.57000730000436,220.57972490001703,220.6032838000101,220.6032838000101,220.6032838000101,221.95902489998844,Objects\019b.jpg,pre,s,1.3475402999902144,None,,,,,,,,00057,001,2026-01-19_11h48.50.532,MST_test,2024.2.0,59.76007524572899,2026-01-19 11h49.07.972694 +0530,
32,0,33,n,4.696842600009404,None,33,0,32,221.97474199999124,,,,,,,,,,,,,,,,,,,,,,,,,,,,,,,,,,,,,,,,,,,,,,,,,,221.95911749999505,221.97474199999124,222.46012669999618,222.47641030000523,222.49318079999648,222.49318079999648,222.49318079999648,227.1936069999938,Objects\289b.jpg,mid,n,4.696842600009404,None,,,,,,,,00057,001,2026-01-19_11h48.50.532,MST_test,2024.2.0,59.76007524572899,2026-01-19 11h49.07.972694 +0530,
33,0,34,o,4.303017699974589,None,34,0,33,227.20972520002397,,,,,,,,,,,,,,,,,,,,,,,,,,,,,,,,,,,,,,,,,,,,,,,,,,227.1937019000179,227.20972520002397,227.69509920000564,227.70977800001856,227.7281855000183,227.7281855000183,227.7281855000183,232.04392440000083,Objects\073b.jpg,pre,o,4.303017699974589,None,,,,,,,,00057,001,2026-01-19_11h48.50.532,MST_test,2024.2.0,59.76007524572899,2026-01-19 11h49.07.972694 +0530,
34,0,35,o,1.3076103000203148,None,35,0,34,232.0609288000269,,,,,,,,,,,,,,,,,,,,,,,,,,,,,,,,,,,,,,,,,,,,,,,,,,232.04403069999535,232.0609288000269,232.54514860000927,232.55985640001018,232.57861620001495,232.57861620001495,232.57861620001495,233.90078419999918,Objects\358a.jpg,pre,o,1.3076103000203148,None,,,,,,,,00057,001,2026-01-19_11h48.50.532,MST_test,2024.2.0,59.76007524572899,2026-01-19 11h49.07.972694 +0530,
35,0,36,o,1.8522112999926321,None,36,0,35,233.91667080001207,,,,,,,,,,,,,,,,,,,,,,,,,,,,,,,,,,,,,,,,,,,,,,,,,,233.90087740001036,233.91667080001207,234.40165260003414,234.41768850001972,234.4352460000082,234.4352460000082,234.4352460000082,236.29234430001816,Objects\330a.jpg,post,o,1.8522112999926321,None,,,,,,,,00057,001,2026-01-19_11h48.50.532,MST_test,2024.2.0,59.76007524572899,2026-01-19 11h49.07.972694 +0530,
36,0,37,s,1.3709525999729522,None,37,0,36,236.3083859999897,,,,,,,,,,,,,,,,,,,,,,,,,,,,,,,,,,,,,,,,,,,,,,,,,,236.2924411999993,236.3083859999897,236.79336010001134,236.8083570000017,236.82682710001245,236.82682710001245,236.82682710001245,238.19904189999215,Objects\230b.jpg,post,s,1.3709525999729522,None,,,,,,,,00057,001,2026-01-19_11h48.50.532,MST_test,2024.2.0,59.76007524572899,2026-01-19 11h49.07.972694 +0530,
37,0,38,s,2.880558300006669,None,38,0,37,238.2149395000306,,,,,,,,,,,,,,,,,,,,,,,,,,,,,,,,,,,,,,,,,,,,,,,,,,238.19913640001323,238.2149395000306,238.70040110003902,238.7143726000213,238.73339300003136,238.73339300003136,238.73339300003136,241.6275125000393,Objects\245a.jpg,pre,s,2.880558300006669,None,,,,,,,,00057,001,2026-01-19_11h48.50.532,MST_test,2024.2.0,59.76007524572899,2026-01-19 11h49.07.972694 +0530,
38,0,39,s,1.4594985999865457,None,39,0,38,241.64361710002413,,,,,,,,,,,,,,,,,,,,,,,,,,,,,,,,,,,,,,,,,,,,,,,,,,241.62761250004405,241.64361710002413,242.12881449999986,242.1462057000026,242.16205929999705,242.16205929999705,242.16205929999705,243.63457510003354,Objects\221b.jpg,post,s,1.4594985999865457,None,,,,,,,,00057,001,2026-01-19_11h48.50.532,MST_test,2024.2.0,59.76007524572899,2026-01-19 11h49.07.972694 +0530,
39,0,40,n,1.6455562000046484,None,40,0,39,243.65077800001018,,,,,,,,,,,,,,,,,,,,,,,,,,,,,,,,,,,,,,,,,,,,,,,,,,243.63466979999794,243.65077800001018,244.1357232000446,244.14769250003155,244.16919570002938,244.16919570002938,244.16919570002938,245.8256436000229,Foils\f7.jpg,none,n,1.6455562000046484,None,,,,,,,,00057,001,2026-01-19_11h48.50.532,MST_test,2024.2.0,59.76007524572899,2026-01-19 11h49.07.972694 +0530,
40,0,41,n,1.3817859999835491,None,41,0,40,245.8417596000363,,,,,,,,,,,,,,,,,,,,,,,,,,,,,,,,,,,,,,,,,,,,,,,,,,245.82575210003415,245.8417596000363,246.3269222000381,246.343429200002,246.360210200015,246.360210200015,246.360210200015,247.74913519999245,Foils\009a.jpg,none,n,1.3817859999835491,None,,,,,,,,00057,001,2026-01-19_11h48.50.532,MST_test,2024.2.0,59.76007524572899,2026-01-19 11h49.07.972694 +0530,
41,0,42,s,0.987341900006868,None,42,0,41,247.76515940000536,,,,,,,,,,,,,,,,,,,,,,,,,,,,,,,,,,,,,,,,,,,,,,,,,,247.74923020001734,247.76515940000536,248.25013330002548,248.25930550001794,248.28360920003615,248.28360920003615,248.28360920003615,249.2877473999979,Objects\009b.jpg,pre,s,0.987341900006868,None,,,,,,,,00057,001,2026-01-19_11h48.50.532,MST_test,2024.2.0,59.76007524572899,2026-01-19 11h49.07.972694 +0530,
42,0,43,o,3.768950199999381,None,43,0,42,249.3037654000218,,,,,,,,,,,,,,,,,,,,,,,,,,,,,,,,,,,,,,,,,,,,,,,,,,249.28784020000603,249.3037654000218,249.78899540001294,249.80344520002836,249.82221410004422,249.82221410004422,249.82221410004422,253.6036323000444,Objects\224b.jpg,mid,o,3.768950199999381,None,,,,,,,,00057,001,2026-01-19_11h48.50.532,MST_test,2024.2.0,59.76007524572899,2026-01-19 11h49.07.972694 +0530,
43,0,44,n,4.324295899947174,None,44,0,43,253.61914389999583,,,,,,,,,,,,,,,,,,,,,,,,,,,,,,,,,,,,,,,,,,,,,,,,,,253.60372559999814,253.61914389999583,254.10400749999098,254.11307329998817,254.13744429999497,254.13744429999497,254.13744429999497,258.4698417999898,Objects\189a.jpg,pre,n,4.324295899947174,None,,,,,,,,00057,001,2026-01-19_11h48.50.532,MST_test,2024.2.0,59.76007524572899,2026-01-19 11h49.07.972694 +0530,
44,0,45,s,2.209320799971465,None,45,0,44,258.486041199998,,,,,,,,,,,,,,,,,,,,,,,,,,,,,,,,,,,,,,,,,,,,,,,,,,258.46994800004177,258.486041199998,258.97100700001465,258.9879590999917,259.00447790004546,259.00447790004546,259.00447790004546,261.22992579999845,Objects\344a.jpg,mid,s,2.209320799971465,None,,,,,,,,00057,001,2026-01-19_11h48.50.532,MST_test,2024.2.0,59.76007524572899,2026-01-19 11h49.07.972694 +0530,
45,0,46,n,1.185951399966143,None,46,0,45,261.2457096000435,,,,,,,,,,,,,,,,,,,,,,,,,,,,,,,,,,,,,,,,,,,,,,,,,,261.23002700001234,261.2457096000435,261.73078370001167,261.74551979999524,261.7641458000289,261.7641458000289,261.7641458000289,262.9522324000136,Foils\081a.jpg,none,n,1.185951399966143,None,,,,,,,,00057,001,2026-01-19_11h48.50.532,MST_test,2024.2.0,59.76007524572899,2026-01-19 11h49.07.972694 +0530,
46,0,47,s,1.3272092000115663,None,47,0,46,262.9684180000331,,,,,,,,,,,,,,,,,,,,,,,,,,,,,,,,,,,,,,,,,,,,,,,,,,262.95232510002097,262.9684180000331,263.4534003000008,263.4666520000319,263.4868401000276,263.4868401000276,263.4868401000276,264.82535260001896,Objects\268a.jpg,post,s,1.3272092000115663,None,,,,,,,,00057,001,2026-01-19_11h48.50.532,MST_test,2024.2.0,59.76007524572899,2026-01-19 11h49.07.972694 +0530,
47,0,48,s,1.5098069999949075,None,48,0,47,264.8415098999976,,,,,,,,,,,,,,,,,,,,,,,,,,,,,,,,,,,,,,,,,,,,,,,,,,264.82544580003014,264.8415098999976,265.3269067000365,265.3405032000155,265.36036990000866,265.36036990000866,265.36036990000866,266.88276040001074,Objects\346b.jpg,pre,s,1.5098069999949075,None,,,,,,,,00057,001,2026-01-19_11h48.50.532,MST_test,2024.2.0,59.76007524572899,2026-01-19 11h49.07.972694 +0530,
48,0,49,o,1.4042703000013717,None,49,0,48,266.89884790004,,,,,,,,,,,,,,,,,,,,,,,,,,,,,,,,,,,,,,,,,,,,,,,,,,266.8828531000181,266.89884790004,267.38455409999005,267.40077340003336,267.4172143000178,267.4172143000178,267.4172143000178,268.822711899993,Objects\193a.jpg,mid,o,1.4042703000013717,None,,,,,,,,00057,001,2026-01-19_11h48.50.532,MST_test,2024.2.0,59.76007524572899,2026-01-19 11h49.07.972694 +0530,
49,0,50,n,3.200556299998425,None,50,0,49,268.83897380001144,,,,,,,,,,,,,,,,,,,,,,,,,,,,,,,,,,,,,,,,,,,,,,,,,,268.8228067000164,268.83897380001144,269.3239161000238,269.33854840003187,269.35741009999765,269.35741009999765,269.35741009999765,272.5694550999906,Objects\201a.jpg,mid,n,3.200556299998425,None,,,,,,,,00057,001,2026-01-19_11h48.50.532,MST_test,2024.2.0,59.76007524572899,2026-01-19 11h49.07.972694 +0530,
50,0,51,s,1.6227941999677569,None,51,0,50,272.5852966000093,,,,,,,,,,,,,,,,,,,,,,,,,,,,,,,,,,,,,,,,,,,,,,,,,,272.56955350004137,272.5852966000093,273.0704815000063,273.08652310003527,273.1037513000192,273.1037513000192,273.1037513000192,274.74322880001273,Objects\144b.jpg,pre,s,1.6227941999677569,None,,,,,,,,00057,001,2026-01-19_11h48.50.532,MST_test,2024.2.0,59.76007524572899,2026-01-19 11h49.07.972694 +0530,
51,0,52,o,1.9673648999887519,None,52,0,51,274.75970059999963,,,,,,,,,,,,,,,,,,,,,,,,,,,,,,,,,,,,,,,,,,,,,,,,,,274.7433223000262,274.75970059999963,275.24465930002043,275.2591667000088,275.2781417000224,275.2781417000224,275.2781417000224,277.2524336000206,Objects\275a.jpg,post,o,1.9673648999887519,None,,,,,,,,00057,001,2026-01-19_11h48.50.532,MST_test,2024.2.0,59.76007524572899,2026-01-19 11h49.07.972694 +0530,
52,0,53,s,1.5551734000327997,None,53,0,52,277.26836660003755,,,,,,,,,,,,,,,,,,,,,,,,,,,,,,,,,,,,,,,,,,,,,,,,,,277.25253540003905,277.26836660003755,277.7539334000321,277.7686584999901,277.78679750004085,277.78679750004085,277.78679750004085,279.3430188000202,Foils\057a.jpg,none,s,1.5551734000327997,None,,,,,,,,00057,001,2026-01-19_11h48.50.532,MST_test,2024.2.0,59.76007524572899,2026-01-19 11h49.07.972694 +0530,
53,0,54,s,1.857369099976495,None,54,0,53,279.35901240003295,,,,,,,,,,,,,,,,,,,,,,,,,,,,,,,,,,,,,,,,,,,,,,,,,,279.34312169998884,279.35901240003295,279.84426350001013,279.8535172000411,279.8774652000284,279.8774652000284,279.8774652000284,281.7512987999944,Objects\197a.jpg,mid,s,1.857369099976495,None,,,,,,,,00057,001,2026-01-19_11h48.50.532,MST_test,2024.2.0,59.76007524572899,2026-01-19 11h49.07.972694 +0530,
54,0,55,n,1.295919700001832,None,55,0,54,281.76756970002316,,,,,,,,,,,,,,,,,,,,,,,,,,,,,,,,,,,,,,,,,,,,,,,,,,281.75139620003756,281.76756970002316,282.2528162000235,282.26186400000006,282.28602310002316,282.28602310002316,282.28602310002316,283.5916014999966,Foils\020b.jpg,none,n,1.295919700001832,None,,,,,,,,00057,001,2026-01-19_11h48.50.532,MST_test,2024.2.0,59.76007524572899,2026-01-19 11h49.07.972694 +0530,
55,0,56,o,1.264098399959039,None,56,0,55,283.60724320000736,,,,,,,,,,,,,,,,,,,,,,,,,,,,,,,,,,,,,,,,,,,,,,,,,,283.5917094000033,283.60724320000736,284.0927312000422,284.1070752000087,284.1256680000224,284.1256680000224,284.1256680000224,285.39743300003465,Objects\209a.jpg,mid,o,1.264098399959039,None,,,,,,,,00057,001,2026-01-19_11h48.50.532,MST_test,2024.2.0,59.76007524572899,2026-01-19 11h49.07.972694 +0530,
56,0,57,s,2.1383777000010014,None,57,0,56,285.4136662000092,,,,,,,,,,,,,,,,,,,,,,,,,,,,,,,,,,,,,,,,,,,,,,,,,,285.397525300039,285.4136662000092,285.89868320000824,285.91361920000054,285.93211550003616,285.93211550003616,285.93211550003616,288.07360260002315,Objects\177b.jpg,mid,s,2.1383777000010014,None,,,,,,,,00057,001,2026-01-19_11h48.50.532,MST_test,2024.2.0,59.76007524572899,2026-01-19 11h49.07.972694 +0530,
57,0,58,o,1.2458568000001833,None,58,0,57,288.08992380002746,,,,,,,,,,,,,,,,,,,,,,,,,,,,,,,,,,,,,,,,,,,,,,,,,,288.07369749998907,288.08992380002746,288.57497200003127,288.58439999999246,288.60833479999565,288.60833479999565,288.60833479999565,289.8630934000248,Objects\191b.jpg,pre,o,1.2458568000001833,None,,,,,,,,00057,001,2026-01-19_11h48.50.532,MST_test,2024.2.0,59.76007524572899,2026-01-19 11h49.07.972694 +0530,
58,0,59,o,1.272104199975729,None,59,0,58,289.87937570002396,,,,,,,,,,,,,,,,,,,,,,,,,,,,,,,,,,,,,,,,,,,,,,,,,,289.8631984000094,289.87937570002396,290.36456930002896,290.37454560003243,290.39793830004055,290.39793830004055,290.39793830004055,291.68668849999085,Objects\178a.jpg,pre,o,1.272104199975729,None,,,,,,,,00057,001,2026-01-19_11h48.50.532,MST_test,2024.2.0,59.76007524572899,2026-01-19 11h49.07.972694 +0530,
59,0,60,n,1.4574133999994956,None,60,0,59,291.7024194000405,,,,,,,,,,,,,,,,,,,,,,,,,,,,,,,,,,,,,,,,,,,,,,,,,,291.6867924000253,291.7024194000405,292.1876285999897,292.19722249999177,292.22085770004196,292.22085770004196,292.22085770004196,293.6932706999942,Foils\033a.jpg,none,n,1.4574133999994956,None,,,,,,,,00057,001,2026-01-19_11h48.50.532,MST_test,2024.2.0,59.76007524572899,2026-01-19 11h49.07.972694 +0530,
60,0,61,n,1.4105107000214048,None,61,0,60,293.71039870003005,,,,,,,,,,,,,,,,,,,,,,,,,,,,,,,,,,,,,,,,,,,,,,,,,,293.69337090000045,293.71039870003005,294.1946478000027,294.209277499991,294.22790019999957,294.22790019999957,294.22790019999957,295.6501063000178,Objects\339b.jpg,pre,n,1.4105107000214048,None,,,,,,,,00057,001,2026-01-19_11h48.50.532,MST_test,2024.2.0,59.76007524572899,2026-01-19 11h49.07.972694 +0530,
61,0,62,n,2.1096632000408135,None,62,0,61,295.6663654000149,,,,,,,,,,,,,,,,,,,,,,,,,,,,,,,,,,,,,,,,,,,,,,,,,,295.6502027999959,295.6663654000149,296.1525442000129,296.16661549999844,296.1847391999909,296.1847391999909,296.1847391999909,298.3096835000324,Foils\106a.jpg,none,n,2.1096632000408135,None,,,,,,,,00057,001,2026-01-19_11h48.50.532,MST_test,2024.2.0,59.76007524572899,2026-01-19 11h49.07.972694 +0530,
62,0,63,o,3.2745485000195913,None,63,0,62,298.32560620002914,,,,,,,,,,,,,,,,,,,,,,,,,,,,,,,,,,,,,,,,,,,,,,,,,,298.3097764000413,298.32560620002914,298.8107999000349,298.8205114000011,298.844056300004,298.844056300004,298.844056300004,302.12262290000217,Objects\088b.jpg,post,o,3.2745485000195913,None,,,,,,,,00057,001,2026-01-19_11h48.50.532,MST_test,2024.2.0,59.76007524572899,2026-01-19 11h49.07.972694 +0530,
63,0,64,n,2.475901099969633,None,64,0,63,302.13893280003686,,,,,,,,,,,,,,,,,,,,,,,,,,,,,,,,,,,,,,,,,,,,,,,,,,302.12274459999753,302.13893280003686,302.6240284999949,302.6328884999966,302.6583607000066,302.6583607000066,302.6583607000066,305.1497604000033,Foils\026a.jpg,none,n,2.475901099969633,None,,,,,,,,00057,001,2026-01-19_11h48.50.532,MST_test,2024.2.0,59.76007524572899,2026-01-19 11h49.07.972694 +0530,
64,0,65,s,1.8577162000001408,None,65,0,64,305.1661668000161,,,,,,,,,,,,,,,,,,,,,,,,,,,,,,,,,,,,,,,,,,,,,,,,,,305.14985600003274,305.1661668000161,305.6512897000066,305.6656320000184,305.68462150002597,305.68462150002597,305.68462150002597,307.55872640002053,Objects\265b.jpg,post,s,1.8577162000001408,None,,,,,,,,00057,001,2026-01-19_11h48.50.532,MST_test,2024.2.0,59.76007524572899,2026-01-19 11h49.07.972694 +0530,
65,0,66,o,1.3205206000129692,None,66,0,65,307.5744859999977,,,,,,,,,,,,,,,,,,,,,,,,,,,,,,,,,,,,,,,,,,,,,,,,,,307.55882490001386,307.5744859999977,308.0597661000211,308.0741354000056,308.09294160001446,308.09294160001446,308.09294160001446,309.4150392000447,Objects\380a.jpg,mid,o,1.3205206000129692,None,,,,,,,,00057,001,2026-01-19_11h48.50.532,MST_test,2024.2.0,59.76007524572899,2026-01-19 11h49.07.972694 +0530,
66,0,67,o,2.9693235000013374,None,67,0,66,309.43098540004576,,,,,,,,,,,,,,,,,,,,,,,,,,,,,,,,,,,,,,,,,,,,,,,,,,309.4151357000228,309.43098540004576,309.9163207000238,309.9291186000337,309.94943929999135,309.94943929999135,309.94943929999135,312.9270668000099,Objects\251a.jpg,pre,o,2.9693235000013374,None,,,,,,,,00057,001,2026-01-19_11h48.50.532,MST_test,2024.2.0,59.76007524572899,2026-01-19 11h49.07.972694 +0530,
67,0,68,s,1.8880026999977417,None,68,0,67,312.9435768999974,,,,,,,,,,,,,,,,,,,,,,,,,,,,,,,,,,,,,,,,,,,,,,,,,,312.9271629000432,312.9435768999974,313.42889099998865,313.4443472000421,313.4620694000041,313.4620694000041,313.4620694000041,315.3528548000031,Objects\376b.jpg,mid,s,1.8880026999977417,None,,,,,,,,00057,001,2026-01-19_11h48.50.532,MST_test,2024.2.0,59.76007524572899,2026-01-19 11h49.07.972694 +0530,
68,0,69,s,2.5360046999994665,None,69,0,68,315.36875990004046,,,,,,,,,,,,,,,,,,,,,,,,,,,,,,,,,,,,,,,,,,,,,,,,,,315.35294730000896,315.36875990004046,315.8534096000367,315.8711445000372,315.8865031999885,315.8865031999885,315.8865031999885,318.43032720003976,Objects\353b.jpg,pre,s,2.5360046999994665,None,,,,,,,,00057,001,2026-01-19_11h48.50.532,MST_test,2024.2.0,59.76007524572899,2026-01-19 11h49.07.972694 +0530,
69,0,70,o,1.1772748999646865,None,70,0,69,318.4463306000107,,,,,,,,,,,,,,,,,,,,,,,,,,,,,,,,,,,,,,,,,,,,,,,,,,318.43042270001024,318.4463306000107,318.9312670000363,318.9480495000025,318.9647848000168,318.9647848000168,318.9647848000168,320.1529828000348,Objects\375a.jpg,pre,o,1.1772748999646865,None,,,,,,,,00057,001,2026-01-19_11h48.50.532,MST_test,2024.2.0,59.76007524572899,2026-01-19 11h49.07.972694 +0530,
70,0,71,o,1.0623421000200324,None,71,0,70,320.1691444000462,,,,,,,,,,,,,,,,,,,,,,,,,,,,,,,,,,,,,,,,,,,,,,,,,,320.1530812000274,320.1691444000462,320.65405250003096,320.67062079999596,320.68748000002233,320.68748000002233,320.68748000002233,321.7587300000014,Objects\290a.jpg,mid,o,1.0623421000200324,None,,,,,,,,00057,001,2026-01-19_11h48.50.532,MST_test,2024.2.0,59.76007524572899,2026-01-19 11h49.07.972694 +0530,
71,0,72,n,4.392565999994986,None,72,0,71,321.77460599999176,,,,,,,,,,,,,,,,,,,,,,,,,,,,,,,,,,,,,,,,,,,,,,,,,,321.7588233000133,321.77460599999176,322.2597216000431,322.2754641000065,322.2930001000059,322.2930001000059,322.2930001000059,326.69246819999535,Objects\041b.jpg,post,n,4.392565999994986,None,,,,,,,,00057,001,2026-01-19_11h48.50.532,MST_test,2024.2.0,59.76007524572899,2026-01-19 11h49.07.972694 +0530,
72,0,73,o,1.3226324999704957,None,73,0,72,326.7086175000295,,,,,,,,,,,,,,,,,,,,,,,,,,,,,,,,,,,,,,,,,,,,,,,,,,326.69256880000466,326.7086175000295,327.19378120003967,327.2028658000054,327.2270557000302,327.2270557000302,327.2270557000302,328.5657167000463,Objects\261b.jpg,mid,o,1.3226324999704957,None,,,,,,,,00057,001,2026-01-19_11h48.50.532,MST_test,2024.2.0,59.76007524572899,2026-01-19 11h49.07.972694 +0530,
73,0,74,s,1.433801000006497,None,74,0,73,328.58180370001355,,,,,,,,,,,,,,,,,,,,,,,,,,,,,,,,,,,,,,,,,,,,,,,,,,328.5658194000134,328.58180370001355,329.06688320002286,329.0767268000054,329.1002878000145,329.1002878000145,329.1002878000145,330.5394754000008,Objects\311b.jpg,mid,s,1.433801000006497,None,,,,,,,,00057,001,2026-01-19_11h48.50.532,MST_test,2024.2.0,59.76007524572899,2026-01-19 11h49.07.972694 +0530,
74,0,75,n,1.507846399967093,None,75,0,74,330.5552772000083,,,,,,,,,,,,,,,,,,,,,,,,,,,,,,,,,,,,,,,,,,,,,,,,,,330.5395800000406,330.5552772000083,331.040468399995,331.04979620000813,331.0737508000457,331.0737508000457,331.0737508000457,332.59648850001395,Foils\097a.jpg,none,n,1.507846399967093,None,,,,,,,,00057,001,2026-01-19_11h48.50.532,MST_test,2024.2.0,59.76007524572899,2026-01-19 11h49.07.972694 +0530,
75,0,76,s,2.40345119999256,None,76,0,75,332.6125817000284,,,,,,,,,,,,,,,,,,,,,,,,,,,,,,,,,,,,,,,,,,,,,,,,,,332.596583000035,332.6125817000284,333.09769309998956,333.10707560001174,333.130954799999,333.130954799999,333.130954799999,335.5401856999961,Foils\113a.jpg,none,s,2.40345119999256,None,,,,,,,,00057,001,2026-01-19_11h48.50.532,MST_test,2024.2.0,59.76007524572899,2026-01-19 11h49.07.972694 +0530,
76,0,77,o,1.2350227999850176,None,77,0,76,335.55621900002006,,,,,,,,,,,,,,,,,,,,,,,,,,,,,,,,,,,,,,,,,,,,,,,,,,335.5402776999981,335.55621900002006,336.0411998000345,336.05059669999173,336.0748329000198,336.0748329000198,336.0748329000198,337.31316449999576,Objects\040b.jpg,mid,o,1.2350227999850176,None,,,,,,,,00057,001,2026-01-19_11h48.50.532,MST_test,2024.2.0,59.76007524572899,2026-01-19 11h49.07.972694 +0530,
77,0,78,n,7.622298799979035,None,78,0,77,337.3290488999919,,,,,,,,,,,,,,,,,,,,,,,,,,,,,,,,,,,,,,,,,,,,,,,,,,337.3132622000412,337.3290488999919,337.81451019999804,337.8236928000115,337.84772880002856,337.84772880002856,337.84772880002856,345.4749899000162,Objects\156a.jpg,mid,n,7.622298799979035,None,,,,,,,,00057,001,2026-01-19_11h48.50.532,MST_test,2024.2.0,59.76007524572899,2026-01-19 11h49.07.972694 +0530,
78,0,79,s,2.892352499999106,None,79,0,78,345.490906800027,,,,,,,,,,,,,,,,,,,,,,,,,,,,,,,,,,,,,,,,,,,,,,,,,,345.4750836000312,345.490906800027,345.9761076000286,345.99088570004096,346.0093687000335,346.0093687000335,346.0093687000335,348.9036863000365,Objects\324b.jpg,post,s,2.892352499999106,None,,,,,,,,00057,001,2026-01-19_11h48.50.532,MST_test,2024.2.0,59.76007524572899,2026-01-19 11h49.07.972694 +0530,
79,0,80,s,2.2410672000260092,None,80,0,79,348.9195785000338,,,,,,,,,,,,,,,,,,,,,,,,,,,,,,,,,,,,,,,,,,,,,,,,,,348.9037792000454,348.9195785000338,349.40486030001193,349.42046920000575,349.4380668000085,349.4380668000085,349.4380668000085,351.6800644000177,Objects\024b.jpg,mid,s,2.2410672000260092,None,,,,,,,,00057,001,2026-01-19_11h48.50.532,MST_test,2024.2.0,59.76007524572899,2026-01-19 11h49.07.972694 +0530,
80,0,81,o,1.2952388999983668,None,81,0,80,351.696202000021,,,,,,,,,,,,,,,,,,,,,,,,,,,,,,,,,,,,,,,,,,,,,,,,,,351.6801659000339,351.696202000021,352.18119650002336,352.1909397999989,352.2145620000083,352.2145620000083,352.2145620000083,353.5197105000261,Objects\099a.jpg,mid,o,1.2952388999983668,None,,,,,,,,00057,001,2026-01-19_11h48.50.532,MST_test,2024.2.0,59.76007524572899,2026-01-19 11h49.07.972694 +0530,
81,0,82,n,2.687797699996736,None,82,0,81,353.5357454000041,,,,,,,,,,,,,,,,,,,,,,,,,,,,,,,,,,,,,,,,,,,,,,,,,,353.51981600001454,353.5357454000041,354.0209449999966,354.0299246000359,354.05420770001365,354.05420770001365,354.05420770001365,356.7482362000155,Foils\050a.jpg,none,n,2.687797699996736,None,,,,,,,,00057,001,2026-01-19_11h48.50.532,MST_test,2024.2.0,59.76007524572899,2026-01-19 11h49.07.972694 +0530,
82,0,83,s,2.5083079999894835,None,83,0,82,356.7637209999957,,,,,,,,,,,,,,,,,,,,,,,,,,,,,,,,,,,,,,,,,,,,,,,,,,356.7483305000351,356.7637209999957,357.24897479999345,357.25845300004585,357.2821983000031,357.2821983000031,357.2821983000031,359.7920482000336,Objects\054b.jpg,pre,s,2.5083079999894835,None,,,,,,,,00057,001,2026-01-19_11h48.50.532,MST_test,2024.2.0,59.76007524572899,2026-01-19 11h49.07.972694 +0530,
83,0,84,o,1.527379999984987,None,84,0,83,359.8078128999914,,,,,,,,,,,,,,,,,,,,,,,,,,,,,,,,,,,,,,,,,,,,,,,,,,359.79214299999876,359.8078128999914,360.29284440004267,360.3080884999945,360.3262924000155,360.3262924000155,360.3262924000155,361.86547409999184,Objects\256a.jpg,post,o,1.527379999984987,None,,,,,,,,00057,001,2026-01-19_11h48.50.532,MST_test,2024.2.0,59.76007524572899,2026-01-19 11h49.07.972694 +0530,
84,0,85,o,5.03003769996576,None,85,0,84,361.8816394000314,,,,,,,,,,,,,,,,,,,,,,,,,,,,,,,,,,,,,,,,,,,,,,,,,,361.8655671000015,361.8816394000314,362.36693509999895,362.3827802000451,362.4001014000387,362.4001014000387,362.4001014000387,367.4354604000109,Objects\234a.jpg,post,o,5.03003769996576,None,,,,,,,,00057,001,2026-01-19_11h48.50.532,MST_test,2024.2.0,59.76007524572899,2026-01-19 11h49.07.972694 +0530,
85,0,86,n,1.6446197000332177,None,86,0,85,367.4513178000343,,,,,,,,,,,,,,,,,,,,,,,,,,,,,,,,,,,,,,,,,,,,,,,,,,367.43555039999774,367.4513178000343,367.9365653000423,367.9459471000009,367.96978330001,367.96978330001,367.96978330001,369.62627880001673,Objects\126b.jpg,post,n,1.6446197000332177,None,,,,,,,,00057,001,2026-01-19_11h48.50.532,MST_test,2024.2.0,59.76007524572899,2026-01-19 11h49.07.972694 +0530,
86,0,87,s,2.6214024999644607,None,87,0,86,369.64229260000866,,,,,,,,,,,,,,,,,,,,,,,,,,,,,,,,,,,,,,,,,,,,,,,,,,369.62637449998874,369.64229260000866,370.1275324000162,370.14242480002576,370.16080890002195,370.16080890002195,370.16080890002195,372.7871417000424,Objects\338b.jpg,mid,s,2.6214024999644607,None,,,,,,,,00057,001,2026-01-19_11h48.50.532,MST_test,2024.2.0,59.76007524572899,2026-01-19 11h49.07.972694 +0530,
87,0,88,o,1.211701099993661,None,88,0,87,372.80321290000575,,,,,,,,,,,,,,,,,,,,,,,,,,,,,,,,,,,,,,,,,,,,,,,,,,372.78726940002525,372.80321290000575,373.28859820001526,373.3029960000422,373.32179900002666,373.32179900002666,373.32179900002666,374.5432833000086,Objects\356a.jpg,post,o,1.211701099993661,None,,,,,,,,00057,001,2026-01-19_11h48.50.532,MST_test,2024.2.0,59.76007524572899,2026-01-19 11h49.07.972694 +0530,
88,0,89,s,3.457059099979233,None,89,0,88,374.5593531000195,,,,,,,,,,,,,,,,,,,,,,,,,,,,,,,,,,,,,,,,,,,,,,,,,,374.5433755000122,374.5593531000195,375.0445618000231,375.0592131000012,375.077831600036,375.077831600036,375.077831600036,378.54068460001145,Objects\263a.jpg,mid,s,3.457059099979233,None,,,,,,,,00057,001,2026-01-19_11h48.50.532,MST_test,2024.2.0,59.76007524572899,2026-01-19 11h49.07.972694 +0530,
89,0,90,s,2.579353299981449,None,90,0,89,378.55638230004115,,,,,,,,,,,,,,,,,,,,,,,,,,,,,,,,,,,,,,,,,,,,,,,,,,378.5407797000371,378.55638230004115,379.04172080004355,379.05789840000216,379.07483800000045,379.07483800000045,379.07483800000045,381.6679872000241,Objects\132b.jpg,mid,s,2.579353299981449,None,,,,,,,,00057,001,2026-01-19_11h48.50.532,MST_test,2024.2.0,59.76007524572899,2026-01-19 11h49.07.972694 +0530,
90,0,91,o,1.3319061999791302,None,91,0,90,381.6840708000236,,,,,,,,,,,,,,,,,,,,,,,,,,,,,,,,,,,,,,,,,,,,,,,,,,381.6680810000398,381.6840708000236,382.1692019000184,382.18390440003714,382.20244780002395,382.20244780002395,382.20244780002395,383.54154360003304,Objects\264a.jpg,pre,o,1.3319061999791302,None,,,,,,,,00057,001,2026-01-19_11h48.50.532,MST_test,2024.2.0,59.76007524572899,2026-01-19 11h49.07.972694 +0530,
91,0,92,s,1.6269094999879599,None,92,0,91,383.55736229999457,,,,,,,,,,,,,,,,,,,,,,,,,,,,,,,,,,,,,,,,,,,,,,,,,,383.5416378999944,383.55736229999457,384.0423418999999,384.0571917000343,384.0758043000242,384.0758043000242,384.0758043000242,385.71551760000875,Objects\183a.jpg,mid,s,1.6269094999879599,None,,,,,,,,00057,001,2026-01-19_11h48.50.532,MST_test,2024.2.0,59.76007524572899,2026-01-19 11h49.07.972694 +0530,
92,0,93,n,1.6116222999989986,None,93,0,92,385.7316408000188,,,,,,,,,,,,,,,,,,,,,,,,,,,,,,,,,,,,,,,,,,,,,,,,,,385.71561180002755,385.7316408000188,386.2167536999914,386.2259830000112,386.2499611999956,386.2499611999956,386.2499611999956,387.8733690000372,Foils\065a.jpg,none,n,1.6116222999989986,None,,,,,,,,00057,001,2026-01-19_11h48.50.532,MST_test,2024.2.0,59.76007524572899,2026-01-19 11h49.07.972694 +0530,
93,0,94,o,1.5025977999903262,None,94,0,93,387.8890770000289,,,,,,,,,,,,,,,,,,,,,,,,,,,,,,,,,,,,,,,,,,,,,,,,,,387.8734642000054,387.8890770000289,388.3743079000269,388.38357170001836,388.4075165000395,388.4075165000395,388.4075165000395,389.91375170001993,Objects\051a.jpg,pre,o,1.5025977999903262,None,,,,,,,,00057,001,2026-01-19_11h48.50.532,MST_test,2024.2.0,59.76007524572899,2026-01-19 11h49.07.972694 +0530,
94,0,95,n,2.6777744999853894,None,95,0,94,389.93005630001426,,,,,,,,,,,,,,,,,,,,,,,,,,,,,,,,,,,,,,,,,,,,,,,,,,389.91384380002273,389.93005630001426,390.4146302000154,390.4238739000284,390.4481207000208,390.4481207000208,390.4481207000208,393.1415984000196,Foils\058a.jpg,none,n,2.6777744999853894,None,,,,,,,,00057,001,2026-01-19_11h48.50.532,MST_test,2024.2.0,59.76007524572899,2026-01-19 11h49.07.972694 +0530,
95,0,96,s,2.8658399000414647,None,96,0,95,393.15763299999526,,,,,,,,,,,,,,,,,,,,,,,,,,,,,,,,,,,,,,,,,,,,,,,,,,393.1416887000087,393.15763299999526,393.6426516000065,393.65697640000144,393.676090700028,393.676090700028,393.676090700028,396.55358210002305,Objects\309b.jpg,pre,s,2.8658399000414647,None,,,,,,,,00057,001,2026-01-19_11h48.50.532,MST_test,2024.2.0,59.76007524572899,2026-01-19 11h49.07.972694 +0530,
96,0,97,o,1.4781408999697305,None,97,0,96,396.5696390999947,,,,,,,,,,,,,,,,,,,,,,,,,,,,,,,,,,,,,,,,,,,,,,,,,,396.5536766000441,396.5696390999947,397.05485270003555,397.0697195000248,397.0880867000087,397.0880867000087,397.0880867000087,398.57722890004516,Objects\005b.jpg,pre,o,1.4781408999697305,None,,,,,,,,00057,001,2026-01-19_11h48.50.532,MST_test,2024.2.0,59.76007524572899,2026-01-19 11h49.07.972694 +0530,
97,0,98,o,1.3739362999913283,None,98,0,97,398.59339340002043,,,,,,,,,,,,,,,,,,,,,,,,,,,,,,,,,,,,,,,,,,,,,,,,,,398.57738309999695,398.59339340002043,399.0785997000057,399.0916184000089,399.11182580003515,399.11182580003515,399.11182580003515,400.5005187999923,Objects\362a.jpg,pre,o,1.3739362999913283,None,,,,,,,,00057,001,2026-01-19_11h48.50.532,MST_test,2024.2.0,59.76007524572899,2026-01-19 11h49.07.972694 +0530,
98,0,99,o,1.2353133000433445,None,99,0,98,400.5167958000093,,,,,,,,,,,,,,,,,,,,,,,,,,,,,,,,,,,,,,,,,,,,,,,,,,400.5006099000457,400.5167958000093,401.0018354000058,401.0157645000145,401.03522780002095,401.03522780002095,401.03522780002095,402.2733922000043,Objects\269a.jpg,mid,o,1.2353133000433445,None,,,,,,,,00057,001,2026-01-19_11h48.50.532,MST_test,2024.2.0,59.76007524572899,2026-01-19 11h49.07.972694 +0530,
99,0,100,s,1.4622001000097953,None,100,0,99,402.28978450002614,,,,,,,,,,,,,,,,,,,,,,,,,,,,,,,,,,,,,,,,,,,,,,,,,,402.27348840003833,402.28978450002614,402.77486940001836,402.7892129000393,402.80829920002725,402.80829920002725,402.80829920002725,404.2804935000022,Objects\184b.jpg,pre,s,1.4622001000097953,None,,,,,,,,00057,001,2026-01-19_11h48.50.532,MST_test,2024.2.0,59.76007524572899,2026-01-19 11h49.07.972694 +0530,
100,0,101,s,1.1823047999641858,None,101,0,100,404.2965167000075,,,,,,,,,,,,,,,,,,,,,,,,,,,,,,,,,,,,,,,,,,,,,,,,,,404.2805854000035,404.2965167000075,404.78185480000684,404.79681720002554,404.8151242000167,404.8151242000167,404.8151242000167,406.0034154999885,Objects\231b.jpg,mid,s,1.1823047999641858,None,,,,,,,,00057,001,2026-01-19_11h48.50.532,MST_test,2024.2.0,59.76007524572899,2026-01-19 11h49.07.972694 +0530,
101,0,102,n,2.0599874000181444,None,102,0,101,406.0192386000417,,,,,,,,,,,,,,,,,,,,,,,,,,,,,,,,,,,,,,,,,,,,,,,,,,406.0035122000263,406.0192386000417,406.5044426000095,406.52044340001885,406.5378541999962,406.5378541999962,406.5378541999962,408.6121462000301,Foils\002a.jpg,none,n,2.0599874000181444,None,,,,,,,,00057,001,2026-01-19_11h48.50.532,MST_test,2024.2.0,59.76007524572899,2026-01-19 11h49.07.972694 +0530,
102,0,103,s,1.563047599978745,None,103,0,102,408.6285896000336,,,,,,,,,,,,,,,,,,,,,,,,,,,,,,,,,,,,,,,,,,,,,,,,,,408.61224290000973,408.6285896000336,409.11357580003096,409.123436200025,409.14693290001014,409.14693290001014,409.14693290001014,410.71974960004445,Objects\033a.jpg,post,s,1.563047599978745,None,,,,,,,,00057,001,2026-01-19_11h48.50.532,MST_test,2024.2.0,59.76007524572899,2026-01-19 11h49.07.972694 +0530,
103,0,104,o,1.6631642000284046,None,104,0,103,410.73575779999373,,,,,,,,,,,,,,,,,,,,,,,,,,,,,,,,,,,,,,,,,,,,,,,,,,410.7198410000419,410.73575779999373,411.22110610001255,411.2305171000189,411.2546884000185,411.2546884000185,411.2546884000185,412.92751120001776,Objects\111b.jpg,pre,o,1.6631642000284046,None,,,,,,,,00057,001,2026-01-19_11h48.50.532,MST_test,2024.2.0,59.76007524572899,2026-01-19 11h49.07.972694 +0530,
104,0,105,s,2.335969000007026,None,105,0,104,412.9436080000014,,,,,,,,,,,,,,,,,,,,,,,,,,,,,,,,,,,,,,,,,,,,,,,,,,412.92760590004036,412.9436080000014,413.42903460003436,413.4387796000228,413.46194180002203,413.46194180002203,413.46194180002203,415.80418440001085,Foils\017a.jpg,none,s,2.335969000007026,None,,,,,,,,00057,001,2026-01-19_11h48.50.532,MST_test,2024.2.0,59.76007524572899,2026-01-19 11h49.07.972694 +0530,
105,0,106,n,2.4828130999812856,None,106,0,105,415.82033880002564,,,,,,,,,,,,,,,,,,,,,,,,,,,,,,,,,,,,,,,,,,,,,,,,,,415.80427760002203,415.82033880002564,416.30546560004586,416.3147641000105,416.3387722999905,416.3387722999905,416.3387722999905,418.8320687999949,Foils\093b.jpg,none,n,2.4828130999812856,None,,,,,,,,00057,001,2026-01-19_11h48.50.532,MST_test,2024.2.0,59.76007524572899,2026-01-19 11h49.07.972694 +0530,
106,0,107,n,1.160764099971857,None,107,0,106,418.8476087000454,,,,,,,,,,,,,,,,,,,,,,,,,,,,,,,,,,,,,,,,,,,,,,,,,,418.83216620003805,418.8476087000454,419.33272609999403,419.3417811000254,419.3660507000168,419.3660507000168,419.3660507000168,420.5383270000457,Foils\010a.jpg,none,n,1.160764099971857,None,,,,,,,,00057,001,2026-01-19_11h48.50.532,MST_test,2024.2.0,59.76007524572899,2026-01-19 11h49.07.972694 +0530,
107,0,108,s,2.0147986999945715,None,108,0,107,420.55353239999386,,,,,,,,,,,,,,,,,,,,,,,,,,,,,,,,,,,,,,,,,,,,,,,,,,420.53841989999637,420.55353239999386,421.03874470002484,421.047881000035,421.07190560002346,421.07190560002346,421.07190560002346,423.0962214000174,Foils\086a.jpg,none,s,2.0147986999945715,None,,,,,,,,00057,001,2026-01-19_11h48.50.532,MST_test,2024.2.0,59.76007524572899,2026-01-19 11h49.07.972694 +0530,
108,0,109,s,1.0386172999860719,None,109,0,108,423.11241130001144,,,,,,,,,,,,,,,,,,,,,,,,,,,,,,,,,,,,,,,,,,,,,,,,,,423.09631520003313,423.11241130001144,423.5978216000367,423.6071438000072,423.63085850002244,423.63085850002244,423.63085850002244,424.6856489999918,Objects\308b.jpg,pre,s,1.0386172999860719,None,,,,,,,,00057,001,2026-01-19_11h48.50.532,MST_test,2024.2.0,59.76007524572899,2026-01-19 11h49.07.972694 +0530,
109,0,110,s,1.2820316000143066,None,110,0,109,424.701321200002,,,,,,,,,,,,,,,,,,,,,,,,,,,,,,,,,,,,,,,,,,,,,,,,,,424.6857403999893,424.701321200002,425.18640730000334,425.20040590001736,425.21987560001435,425.21987560001435,425.21987560001435,426.50834350002697,Objects\291a.jpg,mid,s,1.2820316000143066,None,,,,,,,,00057,001,2026-01-19_11h48.50.532,MST_test,2024.2.0,59.76007524572899,2026-01-19 11h49.07.972694 +0530,
110,0,111,n,1.2428942999686114,None,111,0,110,426.5244871000177,,,,,,,,,,,,,,,,,,,,,,,,,,,,,,,,,,,,,,,,,,,,,,,,,,426.5084399000043,426.5244871000177,427.0098864000174,427.02285710000433,427.04293550003786,427.04293550003786,427.04293550003786,428.2978180000209,Objects\354b.jpg,pre,n,1.2428942999686114,None,,,,,,,,00057,001,2026-01-19_11h48.50.532,MST_test,2024.2.0,59.76007524572899,2026-01-19 11h49.07.972694 +0530,
111,0,112,s,1.9248119000112638,None,112,0,111,428.314197300002,,,,,,,,,,,,,,,,,,,,,,,,,,,,,,,,,,,,,,,,,,,,,,,,,,428.2979099000222,428.314197300002,428.799056000018,428.81343899999047,428.83251780003775,428.83251780003775,428.83251780003775,430.77311549999285,Objects\207a.jpg,mid,s,1.9248119000112638,None,,,,,,,,00057,001,2026-01-19_11h48.50.532,MST_test,2024.2.0,59.76007524572899,2026-01-19 11h49.07.972694 +0530,
112,0,113,o,1.6177622000104748,None,113,0,112,430.78930090001086,,,,,,,,,,,,,,,,,,,,,,,,,,,,,,,,,,,,,,,,,,,,,,,,,,430.7732135000406,430.78930090001086,431.27460599999176,431.29012780002085,431.3079953000415,431.3079953000415,431.3079953000415,432.93091400002595,Objects\220a.jpg,post,o,1.6177622000104748,None,,,,,,,,00057,001,2026-01-19_11h48.50.532,MST_test,2024.2.0,59.76007524572899,2026-01-19 11h49.07.972694 +0530,
113,0,114,s,1.2848315999726765,None,114,0,113,432.9471197000239,,,,,,,,,,,,,,,,,,,,,,,,,,,,,,,,,,,,,,,,,,,,,,,,,,432.9310199000174,432.9471197000239,433.4322124000173,433.4457570000086,433.46544100000756,433.46544100000756,433.46544100000756,434.753880400036,Objects\277b.jpg,post,s,1.2848315999726765,None,,,,,,,,00057,001,2026-01-19_11h48.50.532,MST_test,2024.2.0,59.76007524572899,2026-01-19 11h49.07.972694 +0530,
114,0,115,o,1.5098066999926232,None,115,0,114,434.7699152000132,,,,,,,,,,,,,,,,,,,,,,,,,,,,,,,,,,,,,,,,,,,,,,,,,,434.75397160003195,434.7699152000132,435.2551171000232,435.26964620000217,435.28835170000093,435.28835170000093,435.28835170000093,436.81089090002934,Objects\014b.jpg,post,o,1.5098066999926232,None,,,,,,,,00057,001,2026-01-19_11h48.50.532,MST_test,2024.2.0,59.76007524572899,2026-01-19 11h49.07.972694 +0530,
115,0,116,s,1.0055147999664769,None,116,0,115,436.8273775000125,,,,,,,,,,,,,,,,,,,,,,,,,,,,,,,,,,,,,,,,,,,,,,,,,,436.81098350003595,436.8273775000125,437.3126917000045,437.3219821000239,437.3455585000338,437.3455585000338,437.3455585000338,438.36652859998867,Objects\007b.jpg,mid,s,1.0055147999664769,None,,,,,,,,00057,001,2026-01-19_11h48.50.532,MST_test,2024.2.0,59.76007524572899,2026-01-19 11h49.07.972694 +0530,
116,0,117,n,2.456445000017993,None,117,0,116,438.3826922000153,,,,,,,,,,,,,,,,,,,,,,,,,,,,,,,,,,,,,,,,,,,,,,,,,,438.366631300014,438.3826922000153,438.86775710002985,438.8773760999902,438.90113150002435,438.90113150002435,438.90113150002435,441.36050680000335,Objects\046b.jpg,post,n,2.456445000017993,None,,,,,,,,00057,001,2026-01-19_11h48.50.532,MST_test,2024.2.0,59.76007524572899,2026-01-19 11h49.07.972694 +0530,
117,0,118,o,1.2070120999705978,None,118,0,117,441.37648730003275,,,,,,,,,,,,,,,,,,,,,,,,,,,,,,,,,,,,,,,,,,,,,,,,,,441.3606034000404,441.37648730003275,441.86146149999695,441.87227749999147,441.89501490001567,441.89501490001567,441.89501490001567,443.11634680000134,Objects\049a.jpg,pre,o,1.2070120999705978,None,,,,,,,,00057,001,2026-01-19_11h48.50.532,MST_test,2024.2.0,59.76007524572899,2026-01-19 11h49.07.972694 +0530,
118,0,119,o,1.1309502000221983,None,119,0,118,443.13264010002604,,,,,,,,,,,,,,,,,,,,,,,,,,,,,,,,,,,,,,,,,,,,,,,,,,443.11644150002394,443.13264010002604,443.6177490000264,443.62707410001894,443.6510886999895,443.6510886999895,443.6510886999895,444.78914780000923,Objects\151a.jpg,pre,o,1.1309502000221983,None,,,,,,,,00057,001,2026-01-19_11h48.50.532,MST_test,2024.2.0,59.76007524572899,2026-01-19 11h49.07.972694 +0530,
119,0,120,s,3.8342216999735683,None,120,0,119,444.80504030000884,,,,,,,,,,,,,,,,,,,,,,,,,,,,,,,,,,,,,,,,,,,,,,,,,,444.7892394000082,444.80504030000884,445.2902509000269,445.29975160001777,445.32363370002713,445.32363370002713,445.32363370002713,449.1709671000135,Foils\042a.jpg,none,s,3.8342216999735683,None,,,,,,,,00057,001,2026-01-19_11h48.50.532,MST_test,2024.2.0,59.76007524572899,2026-01-19 11h49.07.972694 +0530,
120,0,121,s,1.4925647999625653,None,121,0,120,449.18730300001334,,,,,,,,,,,,,,,,,,,,,,,,,,,,,,,,,,,,,,,,,,,,,,,,,,449.1710718999966,449.18730300001334,449.67214209999656,449.68219550000504,449.70550540002296,449.70550540002296,449.70550540002296,451.2118223000434,Objects\166a.jpg,post,s,1.4925647999625653,None,,,,,,,,00057,001,2026-01-19_11h48.50.532,MST_test,2024.2.0,59.76007524572899,2026-01-19 11h49.07.972694 +0530,
121,0,122,s,7.02781810000306,None,122,0,121,451.2276700999937,,,,,,,,,,,,,,,,,,,,,,,,,,,,,,,,,,,,,,,,,,,,,,,,,,451.21191670000553,451.2276700999937,451.712797300017,451.722226300044,451.7461105000111,451.7461105000111,451.7461105000111,458.78797860001214,Objects\328b.jpg,post,s,7.02781810000306,None,,,,,,,,00057,001,2026-01-19_11h48.50.532,MST_test,2024.2.0,59.76007524572899,2026-01-19 11h49.07.972694 +0530,
122,0,123,o,1.4433626999962144,None,123,0,122,458.80456840002444,,,,,,,,,,,,,,,,,,,,,,,,,,,,,,,,,,,,,,,,,,,,,,,,,,458.78807579999557,458.80456840002444,459.2893103000242,459.2984790999908,459.3225744999945,459.3225744999945,459.3225744999945,460.7783088000142,Objects\127a.jpg,pre,o,1.4433626999962144,None,,,,,,,,00057,001,2026-01-19_11h48.50.532,MST_test,2024.2.0,59.76007524572899,2026-01-19 11h49.07.972694 +0530,
123,0,124,s,0.9578976999619044,None,124,0,123,460.79446900001494,,,,,,,,,,,,,,,,,,,,,,,,,,,,,,,,,,,,,,,,,,,,,,,,,,460.7784027000307,460.79446900001494,461.27980800002115,461.2892439000425,461.3130470000324,461.3130470000324,461.3130470000324,462.2837175000459,Objects\171b.jpg,mid,s,0.9578976999619044,None,,,,,,,,00057,001,2026-01-19_11h48.50.532,MST_test,2024.2.0,59.76007524572899,2026-01-19 11h49.07.972694 +0530,
124,0,125,n,1.2265163999982178,None,125,0,124,462.29966439999407,,,,,,,,,,,,,,,,,,,,,,,,,,,,,,,,,,,,,,,,,,,,,,,,,,462.2838274000096,462.29966439999407,462.7848321000347,462.7953811000334,462.85155150003266,462.85155150003266,462.85155150003266,464.09034560003784,Objects\383b.jpg,pre,n,1.2265163999982178,None,,,,,,,,00057,001,2026-01-19_11h48.50.532,MST_test,2024.2.0,59.76007524572899,2026-01-19 11h49.07.972694 +0530,
125,0,126,s,2.0056414999999106,None,126,0,125,464.106380000012,,,,,,,,,,,,,,,,,,,,,,,,,,,,,,,,,,,,,,,,,,,,,,,,,,464.0904531000415,464.106380000012,464.59147210000083,464.608006399998,464.6248561000102,464.6248561000102,464.6248561000102,466.6328239000286,Objects\359a.jpg,post,s,2.0056414999999106,None,,,,,,,,00057,001,2026-01-19_11h48.50.532,MST_test,2024.2.0,59.76007524572899,2026-01-19 11h49.07.972694 +0530,
126,0,127,n,2.8537031000014395,None,127,0,126,466.64850280003157,,,,,,,,,,,,,,,,,,,,,,,,,,,,,,,,,,,,,,,,,,,,,,,,,,466.63292599999113,466.64850280003157,467.1340188999893,467.1483029000228,467.1677737000282,467.1677737000282,467.1677737000282,470.0281083000009,Objects\368a.jpg,pre,n,2.8537031000014395,None,,,,,,,,00057,001,2026-01-19_11h48.50.532,MST_test,2024.2.0,59.76007524572899,2026-01-19 11h49.07.972694 +0530,
127,0,128,s,1.3252496999921277,None,128,0,127,470.0437247999944,,,,,,,,,,,,,,,,,,,,,,,,,,,,,,,,,,,,,,,,,,,,,,,,,,470.02821110002697,470.0437247999944,470.5291544999927,470.54565400001593,470.56220980000217,470.56220980000217,470.56220980000217,471.9011696000234,Objects\039b.jpg,post,s,1.3252496999921277,None,,,,,,,,00057,001,2026-01-19_11h48.50.532,MST_test,2024.2.0,59.76007524572899,2026-01-19 11h49.07.972694 +0530,
128,0,129,n,1.0905945000122301,None,129,0,128,471.9170759000117,,,,,,,,,,,,,,,,,,,,,,,,,,,,,,,,,,,,,,,,,,,,,,,,,,471.90126449998934,471.9170759000117,472.402053400001,472.41901720000897,472.4356560000451,472.4356560000451,472.4356560000451,473.5401059000287,Objects\266b.jpg,post,n,1.0905945000122301,None,,,,,,,,00057,001,2026-01-19_11h48.50.532,MST_test,2024.2.0,59.76007524572899,2026-01-19 11h49.07.972694 +0530,
129,0,130,n,1.2591480999835767,None,130,0,129,473.5560247999965,,,,,,,,,,,,,,,,,,,,,,,,,,,,,,,,,,,,,,,,,,,,,,,,,,473.54019770002924,473.5560247999965,474.0412182,474.05734790000133,474.07450500002597,474.07450500002597,474.07450500002597,475.346193400037,Foils\121a.jpg,none,n,1.2591480999835767,None,,,,,,,,00057,001,2026-01-19_11h48.50.532,MST_test,2024.2.0,59.76007524572899,2026-01-19 11h49.07.972694 +0530,
130,0,131,s,5.572642899991479,None,131,0,130,475.3624625999946,,,,,,,,,,,,,,,,,,,,,,,,,,,,,,,,,,,,,,,,,,,,,,,,,,475.3462856000406,475.3624625999946,475.8474439000129,475.85699659999227,475.8809491000138,475.8809491000138,475.8809491000138,481.4677739000181,Objects\313a.jpg,post,s,5.572642899991479,None,,,,,,,,00057,001,2026-01-19_11h48.50.532,MST_test,2024.2.0,59.76007524572899,2026-01-19 11h49.07.972694 +0530,
131,0,132,n,2.3634891999536194,None,132,0,131,481.48389830003725,,,,,,,,,,,,,,,,,,,,,,,,,,,,,,,,,,,,,,,,,,,,,,,,,,481.4678724000114,481.48389830003725,481.96918330003973,481.97887739998987,482.00246160000097,482.00246160000097,482.00246160000097,484.3780185999931,Foils\105a.jpg,none,n,2.3634891999536194,None,,,,,,,,00057,001,2026-01-19_11h48.50.532,MST_test,2024.2.0,59.76007524572899,2026-01-19 11h49.07.972694 +0530,
132,0,133,s,1.3896790000144392,None,133,0,132,484.39416630001506,,,,,,,,,,,,,,,,,,,,,,,,,,,,,,,,,,,,,,,,,,,,,,,,,,484.3781151000294,484.39416630001506,484.8793418999994,484.89323049999075,484.912589900021,484.912589900021,484.912589900021,486.31799630000023,Objects\194b.jpg,post,s,1.3896790000144392,None,,,,,,,,00057,001,2026-01-19_11h48.50.532,MST_test,2024.2.0,59.76007524572899,2026-01-19 11h49.07.972694 +0530,
133,0,134,s,1.4811420000041835,None,134,0,133,486.3344040000229,,,,,,,,,,,,,,,,,,,,,,,,,,,,,,,,,,,,,,,,,,,,,,,,,,486.31809020001674,486.3344040000229,486.8193307000329,486.835529700038,486.8527095000027,486.8527095000027,486.8527095000027,488.3417061000364,Objects\002b.jpg,mid,s,1.4811420000041835,None,,,,,,,,00057,001,2026-01-19_11h48.50.532,MST_test,2024.2.0,59.76007524572899,2026-01-19 11h49.07.972694 +0530,
134,0,135,s,1.89743420004379,None,135,0,134,488.357965400035,,,,,,,,,,,,,,,,,,,,,,,,,,,,,,,,,,,,,,,,,,,,,,,,,,488.3418046000297,488.357965400035,488.8429397,488.85248030000366,488.87657449999824,488.87657449999824,488.87657449999824,490.78410160000203,Objects\106b.jpg,post,s,1.89743420004379,None,,,,,,,,00057,001,2026-01-19_11h48.50.532,MST_test,2024.2.0,59.76007524572899,2026-01-19 11h49.07.972694 +0530,
135,0,136,s,1.5431566999759525,None,136,0,135,490.8003800000297,,,,,,,,,,,,,,,,,,,,,,,,,,,,,,,,,,,,,,,,,,,,,,,,,,490.78419440001016,490.8003800000297,491.28513179998845,491.29893590003485,491.3183946000063,491.3183946000063,491.3183946000063,492.8743235000293,Objects\325b.jpg,pre,s,1.5431566999759525,None,,,,,,,,00057,001,2026-01-19_11h48.50.532,MST_test,2024.2.0,59.76007524572899,2026-01-19 11h49.07.972694 +0530,
136,0,137,s,1.9089512000209652,None,137,0,136,492.89063370000804,,,,,,,,,,,,,,,,,,,,,,,,,,,,,,,,,,,,,,,,,,,,,,,,,,492.87441540003056,492.89063370000804,493.37612200004514,493.39323460002197,493.4088676000247,493.4088676000247,493.4088676000247,495.3331414000131,Objects\259a.jpg,post,s,1.9089512000209652,None,,,,,,,,00057,001,2026-01-19_11h48.50.532,MST_test,2024.2.0,59.76007524572899,2026-01-19 11h49.07.972694 +0530,
137,0,138,n,3.18635610002093,None,138,0,137,495.34899920003954,,,,,,,,,,,,,,,,,,,,,,,,,,,,,,,,,,,,,,,,,,,,,,,,,,495.3332403000095,495.34899920003954,495.8343052000273,495.8500148000312,495.8674729000195,495.8674729000195,495.8674729000195,499.0628095000284,Objects\015a.jpg,pre,n,3.18635610002093,None,,,,,,,,00057,001,2026-01-19_11h48.50.532,MST_test,2024.2.0,59.76007524572899,2026-01-19 11h49.07.972694 +0530,
138,0,139,o,1.368506199971307,None,139,0,138,499.0788671000046,,,,,,,,,,,,,,,,,,,,,,,,,,,,,,,,,,,,,,,,,,,,,,,,,,499.0629045999958,499.0788671000046,499.56393400003435,499.5783098000102,499.59739770001033,499.59739770001033,499.59739770001033,500.9690595000284,Objects\372a.jpg,mid,o,1.368506199971307,None,,,,,,,,00057,001,2026-01-19_11h48.50.532,MST_test,2024.2.0,59.76007524572899,2026-01-19 11h49.07.972694 +0530,
139,0,140,s,1.4234809000045061,None,140,0,139,500.9853837999981,,,,,,,,,,,,,,,,,,,,,,,,,,,,,,,,,,,,,,,,,,,,,,,,,,500.9691658000229,500.9853837999981,501.47020209999755,501.4863219000399,501.50366940000094,501.50366940000094,501.50366940000094,502.9425671999925,Objects\243b.jpg,mid,s,1.4234809000045061,None,,,,,,,,00057,001,2026-01-19_11h48.50.532,MST_test,2024.2.0,59.76007524572899,2026-01-19 11h49.07.972694 +0530,
140,0,141,n,1.616649299976416,None,141,0,140,502.9586891999934,,,,,,,,,,,,,,,,,,,,,,,,,,,,,,,,,,,,,,,,,,,,,,,,,,502.9426618000143,502.9586891999934,503.444058699999,503.4586023000302,503.47713670000667,503.47713670000667,503.47713670000667,505.1004680999904,Foils\f6.jpg,none,n,1.616649299976416,None,,,,,,,,00057,001,2026-01-19_11h48.50.532,MST_test,2024.2.0,59.76007524572899,2026-01-19 11h49.07.972694 +0530,
141,0,142,s,1.2193659000331536,None,142,0,141,505.1162519000354,,,,,,,,,,,,,,,,,,,,,,,,,,,,,,,,,,,,,,,,,,,,,,,,,,505.10056059999624,505.1162519000354,505.6017780000111,505.6181223000167,505.63469199999236,505.63469199999236,505.63469199999236,506.85634440003196,Objects\026a.jpg,mid,s,1.2193659000331536,None,,,,,,,,00057,001,2026-01-19_11h48.50.532,MST_test,2024.2.0,59.76007524572899,2026-01-19 11h49.07.972694 +0530,
142,0,143,n,4.247347399999853,None,143,0,142,506.87250830000266,,,,,,,,,,,,,,,,,,,,,,,,,,,,,,,,,,,,,,,,,,,,,,,,,,506.8564415000146,506.87250830000266,507.3575931999949,507.3732296000235,507.39083809999283,507.39083809999283,507.39083809999283,511.6396698000026,Objects\316b.jpg,pre,n,4.247347399999853,None,,,,,,,,00057,001,2026-01-19_11h48.50.532,MST_test,2024.2.0,59.76007524572899,2026-01-19 11h49.07.972694 +0530,
143,0,144,n,4.0326081000384875,None,144,0,143,511.6559261000366,,,,,,,,,,,,,,,,,,,,,,,,,,,,,,,,,,,,,,,,,,,,,,,,,,511.6397621000069,511.6559261000366,512.1409868000192,512.1554236999946,512.1743671000004,512.1743671000004,512.1743671000004,516.2225963000092,Foils\082a.jpg,none,n,4.0326081000384875,None,,,,,,,,00057,001,2026-01-19_11h48.50.532,MST_test,2024.2.0,59.76007524572899,2026-01-19 11h49.07.972694 +0530,
144,0,145,s,1.7372758999699727,None,145,0,144,516.2385353000136,,,,,,,,,,,,,,,,,,,,,,,,,,,,,,,,,,,,,,,,,,,,,,,,,,516.2227082999889,516.2385353000136,516.7237385000335,516.7378283000435,516.7570453000371,516.7570453000371,516.7570453000371,518.4972149000387,Objects\235a.jpg,pre,s,1.7372758999699727,None,,,,,,,,00057,001,2026-01-19_11h48.50.532,MST_test,2024.2.0,59.76007524572899,2026-01-19 11h49.07.972694 +0530,
145,0,146,s,2.5664956999826245,None,146,0,145,518.5134459999972,,,,,,,,,,,,,,,,,,,,,,,,,,,,,,,,,,,,,,,,,,,,,,,,,,518.4973378000432,518.5134459999972,518.99825840001,519.0131264000083,519.0317181000137,519.0317181000137,519.0317181000137,521.6081553000258,Foils\066a.jpg,none,s,2.5664956999826245,None,,,,,,,,00057,001,2026-01-19_11h48.50.532,MST_test,2024.2.0,59.76007524572899,2026-01-19 11h49.07.972694 +0530,
146,0,147,o,1.2228389999945648,None,147,0,146,521.6240413000342,,,,,,,,,,,,,,,,,,,,,,,,,,,,,,,,,,,,,,,,,,,,,,,,,,521.6082557000336,521.6240413000342,522.1095392000279,522.1187636000104,522.1424927000189,522.1424927000189,522.1424927000189,523.3812258000253,Objects\125a.jpg,mid,o,1.2228389999945648,None,,,,,,,,00057,001,2026-01-19_11h48.50.532,MST_test,2024.2.0,59.76007524572899,2026-01-19 11h49.07.972694 +0530,
147,0,148,s,1.04304509999929,None,148,0,147,523.3971752999933,,,,,,,,,,,,,,,,,,,,,,,,,,,,,,,,,,,,,,,,,,,,,,,,,,523.381329900003,523.3971752999933,523.8820459000417,523.8991404999979,523.9154941000161,523.9154941000161,523.9154941000161,524.9696398000233,Objects\212a.jpg,pre,s,1.04304509999929,None,,,,,,,,00057,001,2026-01-19_11h48.50.532,MST_test,2024.2.0,59.76007524572899,2026-01-19 11h49.07.972694 +0530,
148,0,149,s,1.5734896999783814,None,149,0,148,524.9859333999921,,,,,,,,,,,,,,,,,,,,,,,,,,,,,,,,,,,,,,,,,,,,,,,,,,524.9697352999938,524.9859333999921,525.4709119999898,525.4849723000079,525.5045205000206,525.5045205000206,525.5045205000206,527.0939065000275,Foils\073a.jpg,none,s,1.5734896999783814,None,,,,,,,,00057,001,2026-01-19_11h48.50.532,MST_test,2024.2.0,59.76007524572899,2026-01-19 11h49.07.972694 +0530,
149,0,150,n,1.2811559999827296,None,150,0,149,527.1100445000338,,,,,,,,,,,,,,,,,,,,,,,,,,,,,,,,,,,,,,,,,,,,,,,,,,527.094000000041,527.1100445000338,527.5950029999949,527.6078735000337,527.6284895000281,527.6284895000281,527.6284895000281,528.9169361999957,Foils\f5.jpg,none,n,1.2811559999827296,None,,,,,,,,00057,001,2026-01-19_11h48.50.532,MST_test,2024.2.0,59.76007524572899,2026-01-19 11h49.07.972694 +0530,
,,,,,,,,,,,,,,,,,,,,,,,,,,,,,,,,,,,,,,,,,,,,,,,,,,,,,,,,,,,,,,,,,,,,,,,,528.9169981000014,528.9331060000113,528.9331060000113,531.3089576000348,space,2.368480200006161,None,00057,001,2026-01-19_11h48.50.532,MST_test,2024.2.0,59.76007524572899,2026-01-19 11h49.07.972694 +0530,
