Sl_no,image_path,thisN,thisTrialN,thisRepN,key_resp_5.keys,key_resp_7.keys,key_resp_7.rt,key_resp_7.duration,key_resp_5.rt,key_resp_5.duration,key_resp_9.keys,key_resp_9.rt,key_resp_9.duration,key_resp_8.keys,key_resp_8.rt,key_resp_8.duration,practice.thisRepN,practice.thisTrialN,practice.thisN,trials.thisRepN,trials.thisTrialN,trials.thisN,thisRow.t,notes,welcome_page.started,text.started,key_resp.started,welcome_page.stopped,key_resp.keys,key_resp.rt,key_resp.duration,instructions.started,ins.started,key_resp_2.started,instructions.stopped,key_resp_2.keys,key_resp_2.rt,key_resp_2.duration,objects_only_instruction.started,text_3.started,key_resp_3.started,objects_only_instruction.stopped,key_resp_3.keys,key_resp_3.rt,key_resp_3.duration,ISI.started,text_4.started,ISI.stopped,practice_block.started,image.started,key_resp_5.started,text_5.started,practice_block.stopped,practice.key_resp_5.keys,indoor_outdoor.started,text_7.started,key_resp_7.started,indoor_outdoor.stopped,practice.key_resp_7.keys,practice.key_resp_7.rt,practice.key_resp_7.duration,text_4.stopped,practice.key_resp_5.rt,practice.key_resp_5.duration,practice_to_main.started,text_2.started,key_resp_4.started,practice_to_main.stopped,key_resp_4.keys,key_resp_4.rt,key_resp_4.duration,objects.started,image_2.started,text_9.started,key_resp_9.started,objects.stopped,category,trials.key_resp_9.keys,trials.key_resp_9.rt,trials.key_resp_9.duration,encoding_task.started,encoding_task.stopped,trials.key_resp_8.keys,text_8.started,key_resp_8.started,trials.key_resp_8.rt,trials.key_resp_8.duration,end_experiment.started,text_6.started,key_resp_6.started,end_experiment.stopped,key_resp_6.keys,key_resp_6.rt,key_resp_6.duration,list_of_stimuli,encoding_task_accuracy,participant,session,date,expName,psychopyVersion,frameRate,expStart,
,,,,,,,,,,,,,,,,,,,,,,,,,0.001345600001513958,0.003223399995476939,0.003223399995476939,64.72211950000201,space,64.71479389999877,None,,,,,,,,,,,,,,,,,,,,,,,,,,,,,,,,,,,,,,,,,,,,,,,,,,,,,,,,,,,,,,,,,,00058,001,2026-01-19_15h01.44.304,MST_task,2024.2.0,60.02757666556457,2026-01-19 15h02.22.297298 +0530,
,,,,,,,,,,,,,,,,,,,,,,,,,,,,,,,,64.72222129999136,64.7402538999886,64.7402538999886,89.44044869999925,space,24.697747600002913,None,,,,,,,,,,,,,,,,,,,,,,,,,,,,,,,,,,,,,,,,,,,,,,,,,,,,,,,,,,,00058,001,2026-01-19_15h01.44.304,MST_task,2024.2.0,60.02757666556457,2026-01-19 15h02.22.297298 +0530,
,,,,,,,,,,,,,,,,,,,,,,,,,,,,,,,,,,,,,,,89.44059559999732,89.46216039999854,89.46216039999854,116.15553609999188,space,26.687395200002356,None,,,,,,,,,,,,,,,,,,,,,,,,,,,,,,,,,,,,,,,,,,,,,,,,,,,,00058,001,2026-01-19_15h01.44.304,MST_task,2024.2.0,60.02757666556457,2026-01-19 15h02.22.297298 +0530,
2,practice_images/031a.jpg,0,0,1,None,f,0.4693651999987196,None,,,,,,,,,1,0,0,,,,116.18907860000036,,,,,,,,,,,,,,,,,,,,,,,116.18552459999046,116.18907860000036,116.67105299999821,116.69725430000108,116.72920079999312,116.72920079999312,116.72920079999312,119.67105959999026,None,119.67466039999272,119.68730839999625,119.68730839999625,120.1722613999882,f,0.4693651999987196,None,,,,,,,,,,,,,,,,,,,,,,,,,,,,,,,,,,,,00058,001,2026-01-19_15h01.44.304,MST_task,2024.2.0,60.02757666556457,2026-01-19 15h02.22.297298 +0530,
3,practice_images/037a.jpg,1,1,1,f,None,,,2.2289952999999514,0.14308860000164714,,,,,,,1,1,1,,,,120.1874078999972,,,,,,,,,,,,,,,,,,,,,,,120.17246649999288,120.1874078999972,120.67180119999102,120.68618219999189,120.68921479998971,120.68921479998971,120.68921479998971,123.68781339999987,f,123.68795359999058,,,123.68800919999194,None,,,120.68921479998971,2.2289952999999514,0.14308860000164714,,,,,,,,,,,,,,,,,,,,,,,,,,,,,,,,,00058,001,2026-01-19_15h01.44.304,MST_task,2024.2.0,60.02757666556457,2026-01-19 15h02.22.297298 +0530,
6,practice_images/158a.jpg,2,2,1,j,None,,,2.5016965999966487,0.16692700001294725,,,,,,,1,2,2,,,,123.70399389999511,,,,,,,,,,,,,,,,,,,,,,,123.68823509999493,123.70399389999511,124.18840559999808,124.20477869999013,124.20800899999449,124.20800899999449,124.20800899999449,127.20448970000143,j,127.20458599999256,,,127.2046299999929,None,,,124.20800899999449,2.5016965999966487,0.16692700001294725,,,,,,,,,,,,,,,,,,,,,,,,,,,,,,,,,00058,001,2026-01-19_15h01.44.304,MST_task,2024.2.0,60.02757666556457,2026-01-19 15h02.22.297298 +0530,
4,practice_images/002b.jpg,3,3,1,f,None,,,1.4352183999872068,0.1912958000029903,,,,,,,1,3,3,,,,127.22061639999447,,,,,,,,,,,,,,,,,,,,,,,127.20483570000215,127.22061639999447,127.70506539999042,127.71950239999569,127.72207299999718,127.72207299999718,127.72207299999718,130.72187649999978,f,130.72202849999303,,,130.72208229999524,None,,,127.72207299999718,1.4352183999872068,0.1912958000029903,,,,,,,,,,,,,,,,,,,,,,,,,,,,,,,,,00058,001,2026-01-19_15h01.44.304,MST_task,2024.2.0,60.02757666556457,2026-01-19 15h02.22.297298 +0530,
9,practice_images/180a.jpg,4,4,1,f,None,,,1.5384677999973064,0.14445700000214856,,,,,,,1,4,4,,,,130.73751049999555,,,,,,,,,,,,,,,,,,,,,,,130.72230739999213,130.73751049999555,131.22222279998823,131.23943529999815,131.24268819999998,131.24268819999998,131.24268819999998,134.23765029999777,f,134.2377650999988,,,134.23781209999288,None,,,131.24268819999998,1.5384677999973064,0.14445700000214856,,,,,,,,,,,,,,,,,,,,,,,,,,,,,,,,,00058,001,2026-01-19_15h01.44.304,MST_task,2024.2.0,60.02757666556457,2026-01-19 15h02.22.297298 +0530,
8,practice_images/178a.jpg,5,5,1,f,None,,,1.9204718999972101,0.1691480000008596,,,,,,,1,5,5,,,,134.25401720000082,,,,,,,,,,,,,,,,,,,,,,,134.23800979999942,134.25401720000082,134.73834739999438,134.76174729999912,134.76411409999127,134.76411409999127,134.76411409999127,137.73799969999527,f,137.74212509999052,,,137.7421600999951,None,,,134.76411409999127,1.9204718999972101,0.1691480000008596,,,,,,,,,,,,,,,,,,,,,,,,,,,,,,,,,00058,001,2026-01-19_15h01.44.304,MST_task,2024.2.0,60.02757666556457,2026-01-19 15h02.22.297298 +0530,
1,practice_images/013a.jpg,6,6,1,None,j,1.4781984000001103,None,,,,,,,,,1,6,6,,,,137.75411979999626,,,,,,,,,,,,,,,,,,,,,,,137.74230089999037,137.75411979999626,138.23881229999824,138.2535906999983,138.25620979999076,138.25620979999076,138.25620979999076,141.2545756999898,None,141.25471090000065,141.2706765999901,141.2706765999901,142.7560528999893,j,1.4781984000001103,None,138.25620979999076,,,,,,,,,,,,,,,,,,,,,,,,,,,,,,,,,,,00058,001,2026-01-19_15h01.44.304,MST_task,2024.2.0,60.02757666556457,2026-01-19 15h02.22.297298 +0530,
7,practice_images/166a.jpg,7,7,1,None,j,0.35046269999293145,None,,,,,,,,,1,7,7,,,,142.77078849999816,,,,,,,,,,,,,,,,,,,,,,,142.7563947000017,142.77078849999816,143.2552682999958,143.28666449998855,143.29010359999666,143.29010359999666,143.29010359999666,146.27112759999,None,146.2712804999901,146.2874671999889,146.2874671999889,146.64043319999473,j,0.35046269999293145,None,143.29010359999666,,,,,,,,,,,,,,,,,,,,,,,,,,,,,,,,,,,00058,001,2026-01-19_15h01.44.304,MST_task,2024.2.0,60.02757666556457,2026-01-19 15h02.22.297298 +0530,
10,practice_images/182a.jpg,8,8,1,f,None,,,1.0298330999939935,0.1919482999946922,,,,,,,1,8,8,,,,146.65492770000128,,,,,,,,,,,,,,,,,,,,,,,146.64078829999198,146.65492770000128,147.13826300000073,147.15578669999377,147.15887249998923,147.15887249998923,147.15887249998923,150.1543534999946,f,150.15450939998846,,,150.15458069999295,None,,,147.15887249998923,1.0298330999939935,0.1919482999946922,,,,,,,,,,,,,,,,,,,,,,,,,,,,,,,,,00058,001,2026-01-19_15h01.44.304,MST_task,2024.2.0,60.02757666556457,2026-01-19 15h02.22.297298 +0530,
5,practice_images/139a.jpg,9,9,1,j,None,,,1.5953963000065414,0.19260520000534598,,,,,,,1,9,9,,,,150.17057740000018,,,,,,,,,,,,,,,,,,,,,,,150.15488229999028,150.17057740000018,150.65498839999782,150.67113170000084,150.67405609998968,150.67405609998968,150.67405609998968,153.65565509999578,j,153.65580979999504,,,153.65588079999725,None,,,150.67405609998968,1.5953963000065414,0.19260520000534598,,,,,,,,,,,,,,,,,,,,,,,,,,,,,,,,,00058,001,2026-01-19_15h01.44.304,MST_task,2024.2.0,60.02757666556457,2026-01-19 15h02.22.297298 +0530,
,,,,,,,,,,,,,,,,,,,,,,,,,,,,,,,,,,,,,,,,,,,,,,,,,,,,,,,,,,,,,,,,,153.656086899995,153.67076449999877,153.67076449999877,167.58926799999608,space,13.902220200005104,None,,,,,,,,,,,,,,,,,,,,,,,,,,00058,001,2026-01-19_15h01.44.304,MST_task,2024.2.0,60.02757666556457,2026-01-19 15h02.22.297298 +0530,
,Objects\339a.jpg,0,0,1,,,,,,,j,2.757932399996207,0.11993640000582673,None,,,,,,1,0,0,167.60398809998878,,,,,,,,,,,,,,,,,,,,,,,167.591786399993,167.60398809998878,168.08860069999355,,,,,,,,,,,,,,168.11176580000028,,,,,,,,,,168.10798200000136,168.11176580000028,168.11176580000028,168.11176580000028,171.10438669999712,indoor,j,2.757932399996207,0.11993640000582673,171.1091713999922,171.10919479999575,None,,,,,,,,,,,,,,00058,001,2026-01-19_15h01.44.304,MST_task,2024.2.0,60.02757666556457,2026-01-19 15h02.22.297298 +0530,
,Objects\289a.jpg,1,0,2,,,,,,,None,,,f,0.5596502999978838,None,,,,2,0,1,171.120746399989,,,,,,,,,,,,,,,,,,,,,,,171.10929500000202,171.120746399989,171.60530009999638,,,,,,,,,,,,,,171.6554868999956,,,,,,,,,,171.65271689998917,171.6554868999956,171.6554868999956,171.6554868999956,174.62103729999217,indoor,None,,,174.62119409999286,175.20579589999397,f,174.63763969999854,174.63763969999854,0.5596502999978838,None,,,,,,,,,,00058,001,2026-01-19_15h01.44.304,MST_task,2024.2.0,60.02757666556457,2026-01-19 15h02.22.297298 +0530,
,Objects\214a.jpg,2,0,3,,,,,,,f,1.2722041999950306,0.1840381000074558,None,,,,,,3,0,2,175.2208324999956,,,,,,,,,,,,,,,,,,,,,,,175.20619119999174,175.2208324999956,175.70513849999406,,,,,,,,,,,,,,175.78150599999935,,,,,,,,,,175.77781980000145,175.78150599999935,175.78150599999935,175.78150599999935,178.7216780999879,indoor,f,1.2722041999950306,0.1840381000074558,178.72189459999208,178.72197009999945,None,,,,,,,,,,,,,,00058,001,2026-01-19_15h01.44.304,MST_task,2024.2.0,60.02757666556457,2026-01-19 15h02.22.297298 +0530,
,Objects\019a.jpg,3,0,4,,,,,,,f,2.288124799990328,0.15176269999938086,None,,,,,,4,0,3,178.73745339999732,,,,,,,,,,,,,,,,,,,,,,,178.72226640000008,178.73745339999732,179.22171420000086,,,,,,,,,,,,,,179.26883439999074,,,,,,,,,,179.26491899999382,179.26883439999074,179.26883439999074,179.26883439999074,182.2380017999967,indoor,f,2.288124799990328,0.15176269999938086,182.23816100000113,182.23820129998785,None,,,,,,,,,,,,,,00058,001,2026-01-19_15h01.44.304,MST_task,2024.2.0,60.02757666556457,2026-01-19 15h02.22.297298 +0530,
,Objects\059a.jpg,4,0,5,,,,,,,f,2.088790199995856,0.14387500000884756,None,,,,,,5,0,4,182.2541685999895,,,,,,,,,,,,,,,,,,,,,,,182.23838260000048,182.2541685999895,182.73799249999865,,,,,,,,,,,,,,182.75626699998975,,,,,,,,,,182.7531428999937,182.75626699998975,182.75626699998975,182.75626699998975,185.754494599998,indoor,f,2.088790199995856,0.14387500000884756,185.75467090000166,185.75475919999008,None,,,,,,,,,,,,,,00058,001,2026-01-19_15h01.44.304,MST_task,2024.2.0,60.02757666556457,2026-01-19 15h02.22.297298 +0530,
,Objects\100a.jpg,5,0,6,,,,,,,j,1.7212623999948846,0.19262159999925643,None,,,,,,6,0,5,185.77057889998832,,,,,,,,,,,,,,,,,,,,,,,185.75506669998867,185.77057889998832,186.25495370000135,,,,,,,,,,,,,,186.29957499999728,,,,,,,,,,186.29620079998858,186.29957499999728,186.29957499999728,186.29957499999728,189.2549738999951,indoor,j,1.7212623999948846,0.19262159999925643,189.25517279999622,189.25524459998996,None,,,,,,,,,,,,,,00058,001,2026-01-19_15h01.44.304,MST_task,2024.2.0,60.02757666556457,2026-01-19 15h02.22.297298 +0530,
,Objects\275a.jpg,6,0,7,,,,,,,j,1.8573883000062779,0.19045719999121502,None,,,,,,7,0,6,189.2706887999957,,,,,,,,,,,,,,,,,,,,,,,189.25556089999736,189.2706887999957,189.75494569999864,,,,,,,,,,,,,,189.81280400000105,,,,,,,,,,189.80951939999068,189.81280400000105,189.81280400000105,189.81280400000105,192.77137149999908,indoor,j,1.8573883000062779,0.19045719999121502,192.7715332999942,192.77157749999606,None,,,,,,,,,,,,,,00058,001,2026-01-19_15h01.44.304,MST_task,2024.2.0,60.02757666556457,2026-01-19 15h02.22.297298 +0530,
,Objects\099a.jpg,7,0,8,,,,,,,j,2.460725700002513,0.1764684999943711,None,,,,,,8,0,7,192.7874116999883,,,,,,,,,,,,,,,,,,,,,,,192.77177110000048,192.7874116999883,193.2719184999878,,,,,,,,,,,,,,193.36801679999917,,,,,,,,,,193.36547169998812,193.36801679999917,193.36801679999917,193.36801679999917,196.28779000000213,shoe,j,2.460725700002513,0.1764684999943711,196.2935676999914,196.2936069999996,None,,,,,,,,,,,,,,00058,001,2026-01-19_15h01.44.304,MST_task,2024.2.0,60.02757666556457,2026-01-19 15h02.22.297298 +0530,
,Objects\024a.jpg,8,0,9,,,,,,,f,2.0030697000038344,0.14322929999616463,None,,,,,,9,0,8,196.3040750999935,,,,,,,,,,,,,,,,,,,,,,,196.29375699999218,196.3040750999935,196.78854979999596,,,,,,,,,,,,,,196.8267721000011,,,,,,,,,,196.823536099997,196.8267721000011,196.8267721000011,196.8267721000011,199.80432559999463,shoe,f,2.0030697000038344,0.14322929999616463,199.8044688999944,199.80452739998873,None,,,,,,,,,,,,,,00058,001,2026-01-19_15h01.44.304,MST_task,2024.2.0,60.02757666556457,2026-01-19 15h02.22.297298 +0530,
,Objects\179a.jpg,9,0,10,,,,,,,f,1.5915788999991491,0.143751900002826,None,,,,,,10,0,9,199.82064479999826,,,,,,,,,,,,,,,,,,,,,,,199.80486949998885,199.82064479999826,200.3051645999949,,,,,,,,,,,,,,200.38133249999373,,,,,,,,,,200.37844989998848,200.38133249999373,200.38133249999373,200.38133249999373,203.32139259998803,shoe,f,1.5915788999991491,0.143751900002826,203.32152040000074,203.32157099999313,None,,,,,,,,,,,,,,00058,001,2026-01-19_15h01.44.304,MST_task,2024.2.0,60.02757666556457,2026-01-19 15h02.22.297298 +0530,
,Objects\168a.jpg,10,0,11,,,,,,,f,1.7189483999973163,0.14327770000090823,None,,,,,,11,0,10,203.33747259998927,,,,,,,,,,,,,,,,,,,,,,,203.32188209999003,203.33747259998927,203.82257969999046,,,,,,,,,,,,,,203.85514099999273,,,,,,,,,,203.85184879999724,203.85514099999273,203.85514099999273,203.85514099999273,206.8377066999965,shoe,f,1.7189483999973163,0.14327770000090823,206.837815699997,206.8378617999988,None,,,,,,,,,,,,,,00058,001,2026-01-19_15h01.44.304,MST_task,2024.2.0,60.02757666556457,2026-01-19 15h02.22.297298 +0530,
,Objects\098a.jpg,11,0,12,,,,,,,f,2.127730200008955,0.14464800000132527,None,,,,,,12,0,11,206.85400110000046,,,,,,,,,,,,,,,,,,,,,,,206.83813039999222,206.85400110000046,207.33843269999488,,,,,,,,,,,,,,207.38104429999657,,,,,,,,,,207.37728469999274,207.38104429999657,207.38104429999657,207.38104429999657,210.35453469998902,shoe,f,2.127730200008955,0.14464800000132527,210.3547269999981,210.35480570000072,None,,,,,,,,,,,,,,00058,001,2026-01-19_15h01.44.304,MST_task,2024.2.0,60.02757666556457,2026-01-19 15h02.22.297298 +0530,
,Objects\259a.jpg,12,0,13,,,,,,,j,1.3496610000001965,0.19194340000103693,None,,,,,,13,0,12,210.37098229999538,,,,,,,,,,,,,,,,,,,,,,,210.35521979999612,210.37098229999538,210.85499880000134,,,,,,,,,,,,,,210.9038137999887,,,,,,,,,,210.90027439998812,210.9038137999887,210.9038137999887,210.9038137999887,213.871201499991,shoe,j,1.3496610000001965,0.19194340000103693,213.87137169999187,213.87141999999585,None,,,,,,,,,,,,,,00058,001,2026-01-19_15h01.44.304,MST_task,2024.2.0,60.02757666556457,2026-01-19 15h02.22.297298 +0530,
,Objects\373a.jpg,13,0,14,,,,,,,j,1.220705400002771,0.14357259999087546,None,,,,,,14,0,13,213.88738999998895,,,,,,,,,,,,,,,,,,,,,,,213.8716301999957,213.88738999998895,214.37221190000128,,,,,,,,,,,,,,214.39235769999505,,,,,,,,,,214.38929759999155,214.39235769999505,214.39235769999505,214.39235769999505,217.38811069999065,shoe,j,1.220705400002771,0.14357259999087546,217.38828809998813,217.3883596999949,None,,,,,,,,,,,,,,00058,001,2026-01-19_15h01.44.304,MST_task,2024.2.0,60.02757666556457,2026-01-19 15h02.22.297298 +0530,
,Objects\122a.jpg,14,0,15,,,,,,,None,,,f,1.4282974999950966,None,,,,15,0,14,217.40391339999042,,,,,,,,,,,,,,,,,,,,,,,217.38872279999487,217.40391339999042,217.88842379998823,,,,,,,,,,,,,,217.91458529999363,,,,,,,,,,217.91118260000076,217.91458529999363,217.91458529999363,217.91458529999363,220.90536219999194,indoor,None,,,220.91029609998805,222.3561100999941,f,220.92073249998793,220.92073249998793,1.4282974999950966,None,,,,,,,,,,00058,001,2026-01-19_15h01.44.304,MST_task,2024.2.0,60.02757666556457,2026-01-19 15h02.22.297298 +0530,
,Objects\068a.jpg,15,0,16,,,,,,,j,1.2615399999922374,0.14478230000531767,None,,,,,,16,0,15,222.3707444999891,,,,,,,,,,,,,,,,,,,,,,,222.35649159998866,222.3707444999891,222.85457139999198,,,,,,,,,,,,,,222.88742040000216,,,,,,,,,,222.8843760000018,222.88742040000216,222.88742040000216,222.88742040000216,225.87093379998987,indoor,j,1.2615399999922374,0.14478230000531767,225.87109169999894,225.87114389998897,None,,,,,,,,,,,,,,00058,001,2026-01-19_15h01.44.304,MST_task,2024.2.0,60.02757666556457,2026-01-19 15h02.22.297298 +0530,
,Objects\028a.jpg,16,0,17,,,,,,,None,,,f,0.34490710000682157,None,,,,17,0,16,225.88726940000197,,,,,,,,,,,,,,,,,,,,,,,225.87136229999305,225.88726940000197,226.3712877999933,,,,,,,,,,,,,,,,,,,,,,,,226.48813659998996,226.49147249999805,226.49147249999805,226.49147249999805,229.38819050000166,indoor,None,,,229.38836959999753,229.7556942999945,f,229.40439419999893,229.40439419999893,0.34490710000682157,None,,,,,,,,,,00058,001,2026-01-19_15h01.44.304,MST_task,2024.2.0,60.02757666556457,2026-01-19 15h02.22.297298 +0530,
,Objects\215a.jpg,17,0,18,,,,,,,None,,,f,0.15019800000300165,None,,,,18,0,17,229.77070539999113,,,,,,,,,,,,,,,,,,,,,,,229.75607709999895,229.77070539999113,230.255799999999,,,,,,,,,,,,,,230.2746693999943,,,,,,,,,,230.27197249999153,230.2746693999943,230.2746693999943,230.2746693999943,233.2711827999883,indoor,None,,,233.27127549999568,233.4395322999917,f,233.2874262999976,233.2874262999976,0.15019800000300165,None,,,,,,,,,,00058,001,2026-01-19_15h01.44.304,MST_task,2024.2.0,60.02757666556457,2026-01-19 15h02.22.297298 +0530,
,Objects\030a.jpg,18,0,19,,,,,,,None,,,j,2.0423181999940425,None,,,,19,0,18,233.45424869999988,,,,,,,,,,,,,,,,,,,,,,,233.4398566000018,233.45424869999988,233.9383175999974,,,,,,,,,,,,,,234.04377099999692,,,,,,,,,,234.04073309998785,234.04377099999692,234.04377099999692,234.04377099999692,236.95451909999247,indoor,None,,,236.9546291000006,239.02296479999495,j,236.9706889999943,236.9706889999943,2.0423181999940425,None,,,,,,,,,,00058,001,2026-01-19_15h01.44.304,MST_task,2024.2.0,60.02757666556457,2026-01-19 15h02.22.297298 +0530,
,Objects\329a.jpg,19,0,20,,,,,,,None,,,j,0.8758442999969702,None,,,,20,0,19,239.03750169998966,,,,,,,,,,,,,,,,,,,,,,,239.02324979999685,239.03750169998966,239.52152919999207,,,,,,,,,,,,,,239.5555508999969,,,,,,,,,,239.55270739999833,239.5555508999969,239.5555508999969,239.5555508999969,242.53772619999654,indoor,None,,,242.53788439999335,243.4391287999897,j,242.55378489999566,242.55378489999566,0.8758442999969702,None,,,,,,,,,,00058,001,2026-01-19_15h01.44.304,MST_task,2024.2.0,60.02757666556457,2026-01-19 15h02.22.297298 +0530,
,Objects\075a.jpg,20,0,21,,,,,,,j,2.4375186000106623,0.13466159999370575,None,,,,,,21,0,20,243.45374209999864,,,,,,,,,,,,,,,,,,,,,,,243.43944469999406,243.45374209999864,243.93875899999694,,,,,,,,,,,,,,243.96821409999393,,,,,,,,,,243.96519129999797,243.96821409999393,243.96821409999393,243.96821409999393,246.95455929999298,indoor,j,2.4375186000106623,0.13466159999370575,246.95466479999595,246.95470809999097,None,,,,,,,,,,,,,,00058,001,2026-01-19_15h01.44.304,MST_task,2024.2.0,60.02757666556457,2026-01-19 15h02.22.297298 +0530,
,Objects\253a.jpg,21,0,22,,,,,,,f,1.2354537999926833,0.11963780000223778,None,,,,,,22,0,21,246.97090139999636,,,,,,,,,,,,,,,,,,,,,,,246.9548877999914,246.97090139999636,247.45493639999768,,,,,,,,,,,,,,247.48991889999888,,,,,,,,,,247.4870368999982,247.48991889999888,247.48991889999888,247.48991889999888,250.47130079999624,shoe,f,1.2354537999926833,0.11963780000223778,250.4771544999967,250.4771960999933,None,,,,,,,,,,,,,,00058,001,2026-01-19_15h01.44.304,MST_task,2024.2.0,60.02757666556457,2026-01-19 15h02.22.297298 +0530,
,Objects\276a.jpg,22,0,23,,,,,,,f,2.838020900002448,0.12101620000612456,None,,,,,,23,0,22,250.48736179999833,,,,,,,,,,,,,,,,,,,,,,,250.47742840000137,250.48736179999833,250.9718145999941,,,,,,,,,,,,,,250.99103789999208,,,,,,,,,,250.98815289999766,250.99103789999208,250.99103789999208,250.99103789999208,253.9880689999991,shoe,f,2.838020900002448,0.12101620000612456,253.98824039999454,253.98831289999362,None,,,,,,,,,,,,,,00058,001,2026-01-19_15h01.44.304,MST_task,2024.2.0,60.02757666556457,2026-01-19 15h02.22.297298 +0530,
,Objects\110a.jpg,23,0,24,,,,,,,j,1.1747628999873996,0.14432490000035614,None,,,,,,24,0,23,254.0039328999992,,,,,,,,,,,,,,,,,,,,,,,253.98858379999,254.0039328999992,254.48834209999768,,,,,,,,,,,,,,254.53380059999472,,,,,,,,,,254.53051810000034,254.53380059999472,254.53380059999472,254.53380059999472,257.50434790000145,shoe,j,1.1747628999873996,0.14432490000035614,257.50446169999486,257.504500199997,None,,,,,,,,,,,,,,00058,001,2026-01-19_15h01.44.304,MST_task,2024.2.0,60.02757666556457,2026-01-19 15h02.22.297298 +0530,
,Objects\249a.jpg,24,0,25,,,,,,,None,,,f,0.3120368999952916,None,,,,25,0,24,257.52062229999865,,,,,,,,,,,,,,,,,,,,,,,257.50467349999235,257.52062229999865,258.00503699999535,,,,,,,,,,,,,,258.05825019998883,,,,,,,,,,258.0551148999948,258.05825019998883,258.05825019998883,258.05825019998883,261.0210114999936,shoe,None,,,261.0211125999922,261.35596819999046,f,261.03770010000153,261.03770010000153,0.3120368999952916,None,,,,,,,,,,00058,001,2026-01-19_15h01.44.304,MST_task,2024.2.0,60.02757666556457,2026-01-19 15h02.22.297298 +0530,
,Objects\130a.jpg,25,0,26,,,,,,,j,1.0037950999976601,0.16164910000225063,None,,,,,,26,0,25,261.3705547999998,,,,,,,,,,,,,,,,,,,,,,,261.3564956999908,261.3705547999998,261.85521470000094,,,,,,,,,,,,,,261.90450319999945,,,,,,,,,,261.90119029999187,261.90450319999945,261.90450319999945,261.90450319999945,264.87113410000165,shoe,j,1.0037950999976601,0.16164910000225063,264.8712528999895,264.8712983000005,None,,,,,,,,,,,,,,00058,001,2026-01-19_15h01.44.304,MST_task,2024.2.0,60.02757666556457,2026-01-19 15h02.22.297298 +0530,
,Objects\064a.jpg,26,0,27,,,,,,,f,1.057888900002581,0.14450399999623187,None,,,,,,27,0,26,264.88739079999505,,,,,,,,,,,,,,,,,,,,,,,264.87149469999713,264.88739079999505,265.3718235999986,,,,,,,,,,,,,,265.39584099999047,,,,,,,,,,265.39260579999245,265.39584099999047,265.39584099999047,265.39584099999047,268.38751919999777,shoe,f,1.057888900002581,0.14450399999623187,268.38768109999364,268.387748299996,None,,,,,,,,,,,,,,00058,001,2026-01-19_15h01.44.304,MST_task,2024.2.0,60.02757666556457,2026-01-19 15h02.22.297298 +0530,
,Objects\182a.jpg,27,0,28,,,,,,,None,,,j,3.140238899999531,None,,,,28,0,27,268.4042516999907,,,,,,,,,,,,,,,,,,,,,,,268.38791199999105,268.4042516999907,268.8884989999933,,,,,,,,,,,,,,268.9337717999879,,,,,,,,,,268.9302362999879,268.9337717999879,268.9337717999879,268.9337717999879,271.9045991000021,shoe,None,,,271.90474969999923,275.07284470000013,j,271.92068799999834,271.92068799999834,3.140238899999531,None,,,,,,,,,,00058,001,2026-01-19_15h01.44.304,MST_task,2024.2.0,60.02757666556457,2026-01-19 15h02.22.297298 +0530,
,Objects\141a.jpg,28,0,29,,,,,,,j,1.994704600001569,0.19237199999042787,None,,,,,,29,0,28,275.0872224999912,,,,,,,,,,,,,,,,,,,,,,,275.07317350000085,275.0872224999912,275.5719289999979,,,,,,,,,,,,,,275.6666753999889,,,,,,,,,,275.6630482999899,275.6666753999889,275.6666753999889,275.6666753999889,278.5875193999964,indoor,j,1.994704600001569,0.19237199999042787,278.5926249999902,278.59269089999725,None,,,,,,,,,,,,,,00058,001,2026-01-19_15h01.44.304,MST_task,2024.2.0,60.02757666556457,2026-01-19 15h02.22.297298 +0530,
,Objects\153a.jpg,29,0,30,,,,,,,f,1.097073700002511,0.13534120000258554,None,,,,,,30,0,29,278.60395979999157,,,,,,,,,,,,,,,,,,,,,,,278.59296349999204,278.60395979999157,279.0886044999934,,,,,,,,,,,,,,279.1080854999891,,,,,,,,,,279.1052520999947,279.1080854999891,279.1080854999891,279.1080854999891,282.10452039999655,indoor,f,1.097073700002511,0.13534120000258554,282.1046937999927,282.1047655000002,None,,,,,,,,,,,,,,00058,001,2026-01-19_15h01.44.304,MST_task,2024.2.0,60.02757666556457,2026-01-19 15h02.22.297298 +0530,
,Objects\347a.jpg,30,0,31,,,,,,,f,1.4827412999875378,0.16851990000577644,None,,,,,,31,0,30,282.1206768999982,,,,,,,,,,,,,,,,,,,,,,,282.1049717999995,282.1206768999982,282.60517679998884,,,,,,,,,,,,,,282.62564949999796,,,,,,,,,,282.62244289999944,282.62564949999796,282.62564949999796,282.62564949999796,285.6210645999963,indoor,f,1.4827412999875378,0.16851990000577644,285.621238599997,285.62130980000074,None,,,,,,,,,,,,,,00058,001,2026-01-19_15h01.44.304,MST_task,2024.2.0,60.02757666556457,2026-01-19 15h02.22.297298 +0530,
,Objects\143a.jpg,31,0,32,,,,,,,None,,,j,0.5313038999884157,None,,,,32,0,31,285.6373326999892,,,,,,,,,,,,,,,,,,,,,,,285.6216294999904,285.6373326999892,286.1219143999915,,,,,,,,,,,,,,286.14253309999185,,,,,,,,,,286.13963910000166,286.14253309999185,286.14253309999185,286.14253309999185,289.1375815999927,indoor,None,,,289.13773149999906,289.68878729999415,j,289.15422399999807,289.15422399999807,0.5313038999884157,None,,,,,,,,,,00058,001,2026-01-19_15h01.44.304,MST_task,2024.2.0,60.02757666556457,2026-01-19 15h02.22.297298 +0530,
,Objects\190a.jpg,32,0,33,,,,,,,None,,,j,1.9206640999909723,None,,,,33,0,32,289.70435049998923,,,,,,,,,,,,,,,,,,,,,,,289.6890369999892,289.70435049998923,290.188419699989,,,,,,,,,,,,,,290.22951599999215,,,,,,,,,,290.22604569999385,290.22951599999215,290.22951599999215,290.22951599999215,293.20441339998797,indoor,None,,,293.20456009999907,295.1557743000012,j,293.2207362999907,293.2207362999907,1.9206640999909723,None,,,,,,,,,,00058,001,2026-01-19_15h01.44.304,MST_task,2024.2.0,60.02757666556457,2026-01-19 15h02.22.297298 +0530,
,Objects\306a.jpg,33,0,34,,,,,,,f,1.4917489000072237,0.19141970000055153,None,,,,,,34,0,33,295.17069909999555,,,,,,,,,,,,,,,,,,,,,,,295.15601310000056,295.17069909999555,295.65517199999886,,,,,,,,,,,,,,295.6731412999943,,,,,,,,,,295.67042460000084,295.6731412999943,295.6731412999943,295.6731412999943,298.6709681999928,indoor,f,1.4917489000072237,0.19141970000055153,298.6711103999987,298.6711685999908,None,,,,,,,,,,,,,,00058,001,2026-01-19_15h01.44.304,MST_task,2024.2.0,60.02757666556457,2026-01-19 15h02.22.297298 +0530,
,Objects\211a.jpg,34,0,35,,,,,,,None,,,j,1.2424520999920787,None,,,,35,0,34,298.6872580999916,,,,,,,,,,,,,,,,,,,,,,,298.67141709999123,298.6872580999916,299.1713125999959,,,,,,,,,,,,,,299.18769690000045,,,,,,,,,,299.18341349999537,299.18769690000045,299.18769690000045,299.18769690000045,302.17144149998785,indoor,None,,,302.1716152000008,303.43953069999407,j,302.18713029999344,302.18713029999344,1.2424520999920787,None,,,,,,,,,,00058,001,2026-01-19_15h01.44.304,MST_task,2024.2.0,60.02757666556457,2026-01-19 15h02.22.297298 +0530,
,Objects\016a.jpg,35,0,36,,,,,,,f,1.579341699994984,0.1767944000021089,None,,,,,,36,0,35,303.45441569999093,,,,,,,,,,,,,,,,,,,,,,,303.4398297000007,303.45441569999093,303.9382595999923,,,,,,,,,,,,,,303.97737439999764,,,,,,,,,,303.9743197999924,303.97737439999764,303.97737439999764,303.97737439999764,306.95449499999813,shoe,f,1.579341699994984,0.1767944000021089,306.95850249999785,306.95853639999405,None,,,,,,,,,,,,,,00058,001,2026-01-19_15h01.44.304,MST_task,2024.2.0,60.02757666556457,2026-01-19 15h02.22.297298 +0530,
,Objects\036a.jpg,36,0,37,,,,,,,j,1.7941314000054263,0.14402130000235047,None,,,,,,37,0,36,306.97075429999677,,,,,,,,,,,,,,,,,,,,,,,306.95872179999424,306.97075429999677,307.4552638000023,,,,,,,,,,,,,,307.53021479999006,,,,,,,,,,307.5262522999983,307.53021479999006,307.53021479999006,307.53021479999006,310.47171199999866,shoe,j,1.7941314000054263,0.14402130000235047,310.4718804000004,310.4719522999949,None,,,,,,,,,,,,,,00058,001,2026-01-19_15h01.44.304,MST_task,2024.2.0,60.02757666556457,2026-01-19 15h02.22.297298 +0530,
,Objects\175a.jpg,37,0,38,,,,,,,f,1.6800699999876088,0.16778390000399668,None,,,,,,38,0,37,310.48730069999874,,,,,,,,,,,,,,,,,,,,,,,310.47226039999805,310.48730069999874,310.9720798999915,,,,,,,,,,,,,,311.0291681999952,,,,,,,,,,311.02623139999923,311.0291681999952,311.0291681999952,311.0291681999952,313.98748049999995,shoe,f,1.6800699999876088,0.16778390000399668,313.9875996999908,313.98764669999946,None,,,,,,,,,,,,,,00058,001,2026-01-19_15h01.44.304,MST_task,2024.2.0,60.02757666556457,2026-01-19 15h02.22.297298 +0530,
,Objects\078a.jpg,38,0,39,,,,,,,j,1.0876883000019006,0.1684662999905413,None,,,,,,39,0,38,314.00423759999103,,,,,,,,,,,,,,,,,,,,,,,313.9878524999949,314.00423759999103,314.4886824999994,,,,,,,,,,,,,,314.50951749998785,,,,,,,,,,314.5068593999895,314.50951749998785,314.50951749998785,314.50951749998785,317.48789389999,shoe,j,1.0876883000019006,0.1684662999905413,317.4880678999907,317.4881335999962,None,,,,,,,,,,,,,,00058,001,2026-01-19_15h01.44.304,MST_task,2024.2.0,60.02757666556457,2026-01-19 15h02.22.297298 +0530,
,Objects\112a.jpg,39,0,40,,,,,,,f,2.6933709000004455,0.15934540001035202,None,,,,,,40,0,39,317.50400689999515,,,,,,,,,,,,,,,,,,,,,,,317.4884209000011,317.50400689999515,317.98806369998783,,,,,,,,,,,,,,318.03175829999964,,,,,,,,,,318.02852659999917,318.03175829999964,318.03175829999964,318.03175829999964,321.00528729999496,shoe,f,2.6933709000004455,0.15934540001035202,321.0054659000016,321.0055097000004,None,,,,,,,,,,,,,,00058,001,2026-01-19_15h01.44.304,MST_task,2024.2.0,60.02757666556457,2026-01-19 15h02.22.297298 +0530,
,Objects\370a.jpg,40,0,41,,,,,,,f,1.1765661000099499,0.16772219999984372,None,,,,,,41,0,40,321.0208736999921,,,,,,,,,,,,,,,,,,,,,,,321.0057203999895,321.0208736999921,321.5049345000007,,,,,,,,,,,,,,321.5323972999904,,,,,,,,,,321.5283116999926,321.5323972999904,321.5323972999904,321.5323972999904,324.52103749998787,shoe,f,1.1765661000099499,0.16772219999984372,324.5211430999916,324.5211852999928,None,,,,,,,,,,,,,,00058,001,2026-01-19_15h01.44.304,MST_task,2024.2.0,60.02757666556457,2026-01-19 15h02.22.297298 +0530,
,Objects\121a.jpg,41,0,42,,,,,,,None,,,f,0.10274659999413416,None,,,,42,0,41,324.5372784999927,,,,,,,,,,,,,,,,,,,,,,,324.5213698000007,324.5372784999927,325.0216669999936,,,,,,,,,,,,,,325.0425050999911,,,,,,,,,,325.03972950000025,325.0425050999911,325.0425050999911,325.0425050999911,328.037777199992,shoe,None,,,328.0379280999914,328.1724205999926,f,328.05438269999286,328.05438269999286,0.10274659999413416,None,,,,,,,,,,00058,001,2026-01-19_15h01.44.304,MST_task,2024.2.0,60.02757666556457,2026-01-19 15h02.22.297298 +0530,
,Objects\135a.jpg,42,0,43,,,,,,,j,2.7516155000048457,0.1428742999996757,None,,,,,,43,0,42,328.187422899995,,,,,,,,,,,,,,,,,,,,,,,328.17265269999916,328.187422899995,328.6717098999943,,,,,,,,,,,,,,328.6941952999914,,,,,,,,,,328.69154159999744,328.6941952999914,328.6941952999914,328.6941952999914,331.6877526999888,indoor,j,2.7516155000048457,0.1428742999996757,331.69326739999815,331.6933080999879,None,,,,,,,,,,,,,,00058,001,2026-01-19_15h01.44.304,MST_task,2024.2.0,60.02757666556457,2026-01-19 15h02.22.297298 +0530,
,Objects\355a.jpg,43,0,44,,,,,,,j,1.0650190000014845,0.1529848999925889,None,,,,,,44,0,43,331.7041037000017,,,,,,,,,,,,,,,,,,,,,,,331.69345729998895,331.7041037000017,332.1884607999964,,,,,,,,,,,,,,332.22737549999147,,,,,,,,,,332.224206400002,332.22737549999147,332.22737549999147,332.22737549999147,335.20431099999405,indoor,j,1.0650190000014845,0.1529848999925889,335.2045158999972,335.2045889000001,None,,,,,,,,,,,,,,00058,001,2026-01-19_15h01.44.304,MST_task,2024.2.0,60.02757666556457,2026-01-19 15h02.22.297298 +0530,
,Objects\376a.jpg,44,0,45,,,,,,,j,0.9577907999919262,0.13664820000121836,None,,,,,,45,0,44,335.2206359999982,,,,,,,,,,,,,,,,,,,,,,,335.2049060999998,335.2206359999982,335.70509949998814,,,,,,,,,,,,,,335.7269252999977,,,,,,,,,,335.724021099988,335.7269252999977,335.7269252999977,335.7269252999977,338.72098159999587,indoor,j,0.9577907999919262,0.13664820000121836,338.72115620000113,338.72122589999344,None,,,,,,,,,,,,,,00058,001,2026-01-19_15h01.44.304,MST_task,2024.2.0,60.02757666556457,2026-01-19 15h02.22.297298 +0530,
,Objects\186a.jpg,45,0,46,,,,,,,f,1.8821854999987409,0.12012780000804923,None,,,,,,46,0,45,338.73756989999674,,,,,,,,,,,,,,,,,,,,,,,338.72149309999077,338.73756989999674,339.2218636999896,,,,,,,,,,,,,,339.25895219999074,,,,,,,,,,339.25602859999344,339.25895219999074,339.25895219999074,339.25895219999074,342.237707399996,indoor,f,1.8821854999987409,0.12012780000804923,342.23787009999796,342.23792169999797,None,,,,,,,,,,,,,,00058,001,2026-01-19_15h01.44.304,MST_task,2024.2.0,60.02757666556457,2026-01-19 15h02.22.297298 +0530,
,Objects\167a.jpg,46,0,47,,,,,,,j,2.153440399997635,0.1527182999998331,None,,,,,,47,0,46,342.2541874000017,,,,,,,,,,,,,,,,,,,,,,,342.2381575999898,342.2541874000017,342.7377575999999,,,,,,,,,,,,,,342.7793387999991,,,,,,,,,,342.7762458999932,342.7793387999991,342.7793387999991,342.7793387999991,345.7543234999903,indoor,j,2.153440399997635,0.1527182999998331,345.75449929999013,345.75457189998997,None,,,,,,,,,,,,,,00058,001,2026-01-19_15h01.44.304,MST_task,2024.2.0,60.02757666556457,2026-01-19 15h02.22.297298 +0530,
,Objects\119a.jpg,47,0,48,,,,,,,j,2.681976299994858,0.1841227999975672,None,,,,,,48,0,47,345.7706458999892,,,,,,,,,,,,,,,,,,,,,,,345.75487879999855,345.7706458999892,346.2554786999972,,,,,,,,,,,,,,346.31499859999167,,,,,,,,,,346.31190010000137,346.31499859999167,346.31499859999167,346.31499859999167,349.2710909999878,indoor,j,2.681976299994858,0.1841227999975672,349.2712252999918,349.27127869999094,None,,,,,,,,,,,,,,00058,001,2026-01-19_15h01.44.304,MST_task,2024.2.0,60.02757666556457,2026-01-19 15h02.22.297298 +0530,
,Objects\224a.jpg,48,0,49,,,,,,,f,1.986660499998834,0.14308989999699406,None,,,,,,49,0,48,349.28736289999506,,,,,,,,,,,,,,,,,,,,,,,349.27150899999833,349.28736289999506,349.77182929999253,,,,,,,,,,,,,,349.79475299999467,,,,,,,,,,349.7909275999991,349.79475299999467,349.79475299999467,349.79475299999467,352.7877034999983,indoor,f,1.986660499998834,0.14308989999699406,352.7878813999996,352.7879532999941,None,,,,,,,,,,,,,,00058,001,2026-01-19_15h01.44.304,MST_task,2024.2.0,60.02757666556457,2026-01-19 15h02.22.297298 +0530,
,Objects\015a.jpg,49,0,50,,,,,,,f,1.3908722999913152,0.14446950001001824,None,,,,,,50,0,49,352.8047496999934,,,,,,,,,,,,,,,,,,,,,,,352.788263999988,352.8047496999934,353.28839529999823,,,,,,,,,,,,,,353.3582838000002,,,,,,,,,,353.3547946999897,353.3582838000002,353.3582838000002,353.3582838000002,356.3045463999879,shoe,f,1.3908722999913152,0.14446950001001824,356.3103834999929,356.31043409999984,None,,,,,,,,,,,,,,00058,001,2026-01-19_15h01.44.304,MST_task,2024.2.0,60.02757666556457,2026-01-19 15h02.22.297298 +0530,
,Objects\281a.jpg,50,0,51,,,,,,,f,2.9426229000091553,None,None,,,,,,51,0,50,356.3206391999993,,,,,,,,,,,,,,,,,,,,,,,356.3107045999932,356.3206391999993,356.80532729999686,,,,,,,,,,,,,,356.8547935999959,,,,,,,,,,356.851513799993,356.8547935999959,356.8547935999959,356.8547935999959,359.82097039998916,shoe,f,2.9426229000091553,None,359.821165699992,359.8212363999919,None,,,,,,,,,,,,,,00058,001,2026-01-19_15h01.44.304,MST_task,2024.2.0,60.02757666556457,2026-01-19 15h02.22.297298 +0530,
,Objects\202a.jpg,51,0,52,,,,,,,f,1.3177051999955438,0.15154520000214688,None,,,,,,52,0,51,359.83759869998903,,,,,,,,,,,,,,,,,,,,,,,359.8215443999943,359.83759869998903,360.32177499998943,,,,,,,,,,,,,,360.36789059999865,,,,,,,,,,360.3637733999931,360.36789059999865,360.36789059999865,360.36789059999865,363.33778039999015,shoe,f,1.3177051999955438,0.15154520000214688,363.3378909999883,363.33793499998865,None,,,,,,,,,,,,,,00058,001,2026-01-19_15h01.44.304,MST_task,2024.2.0,60.02757666556457,2026-01-19 15h02.22.297298 +0530,
,Objects\220a.jpg,52,0,53,,,,,,,f,1.2106732999964152,0.1275316999963252,None,,,,,,53,0,52,363.35392819999834,,,,,,,,,,,,,,,,,,,,,,,363.33812770000077,363.35392819999834,363.8386776999978,,,,,,,,,,,,,,363.858923199994,,,,,,,,,,363.8558192999917,363.858923199994,363.858923199994,363.858923199994,366.85464249999495,shoe,f,1.2106732999964152,0.1275316999963252,366.8548155999888,366.8548987999966,None,,,,,,,,,,,,,,00058,001,2026-01-19_15h01.44.304,MST_task,2024.2.0,60.02757666556457,2026-01-19 15h02.22.297298 +0530,
,Objects\242a.jpg,53,0,54,,,,,,,f,1.6212503999995533,0.11961059999885038,None,,,,,,54,0,53,366.87082579999696,,,,,,,,,,,,,,,,,,,,,,,366.85509230000025,366.87082579999696,367.3552342999901,,,,,,,,,,,,,,367.41594089999853,,,,,,,,,,367.4120172999974,367.41594089999853,367.41594089999853,367.41594089999853,370.37109339999733,shoe,f,1.6212503999995533,0.11961059999885038,370.3712840999942,370.3713570999971,None,,,,,,,,,,,,,,00058,001,2026-01-19_15h01.44.304,MST_task,2024.2.0,60.02757666556457,2026-01-19 15h02.22.297298 +0530,
,Objects\199a.jpg,54,0,55,,,,,,,f,1.137535999994725,0.1277369000017643,None,,,,,,55,0,54,370.3875454999943,,,,,,,,,,,,,,,,,,,,,,,370.3716742999968,370.3875454999943,370.87170550000155,,,,,,,,,,,,,,370.9075894999987,,,,,,,,,,370.9042114999902,370.9075894999987,370.9075894999987,370.9075894999987,373.8878165999922,shoe,f,1.137535999994725,0.1277369000017643,373.88794770000095,373.8880016999901,None,,,,,,,,,,,,,,00058,001,2026-01-19_15h01.44.304,MST_task,2024.2.0,60.02757666556457,2026-01-19 15h02.22.297298 +0530,
,Objects\086a.jpg,55,0,56,,,,,,,j,1.7429533999966225,0.14345540000067558,None,,,,,,56,0,55,373.9040734000009,,,,,,,,,,,,,,,,,,,,,,,373.88821669999743,373.9040734000009,374.3886724999902,,,,,,,,,,,,,,,,,,,,,,,,374.41011250000156,374.4144530999911,374.4144530999911,374.4144530999911,377.4052126999886,shoe,j,1.7429533999966225,0.14345540000067558,377.40540599999076,377.4054766999907,None,,,,,,,,,,,,,,00058,001,2026-01-19_15h01.44.304,MST_task,2024.2.0,60.02757666556457,2026-01-19 15h02.22.297298 +0530,
,Objects\332a.jpg,56,0,57,,,,,,,j,2.4028784000111045,0.14478149999922607,None,,,,,,57,0,56,377.4206766999996,,,,,,,,,,,,,,,,,,,,,,,377.4059336999926,377.4206766999996,377.90493720000086,,,,,,,,,,,,,,377.9299406999926,,,,,,,,,,377.927079999994,377.9299406999926,377.9299406999926,377.9299406999926,380.92116610000085,indoor,j,2.4028784000111045,0.14478149999922607,380.9255962999887,380.92565540000214,None,,,,,,,,,,,,,,00058,001,2026-01-19_15h01.44.304,MST_task,2024.2.0,60.02757666556457,2026-01-19 15h02.22.297298 +0530,
,Objects\160a.jpg,57,0,58,,,,,,,j,1.602957900002366,0.14479649999702815,None,,,,,,58,0,57,380.9383833999891,,,,,,,,,,,,,,,,,,,,,,,380.9258722999948,380.9383833999891,381.43756669999857,,,,,,,,,,,,,,,,,,,,,,,,381.48675879999064,381.49019689999113,381.49019689999113,381.49019689999113,384.43796919999295,indoor,j,1.602957900002366,0.14479649999702815,384.43810629998916,384.4381561999908,None,,,,,,,,,,,,,,00058,001,2026-01-19_15h01.44.304,MST_task,2024.2.0,60.02757666556457,2026-01-19 15h02.22.297298 +0530,
,Objects\209a.jpg,58,0,59,,,,,,,f,2.0206743000017013,0.1427101000008406,None,,,,,,59,0,58,384.45398379999097,,,,,,,,,,,,,,,,,,,,,,,384.43839840000146,384.45398379999097,384.938671099997,,,,,,,,,,,,,,384.9769479999959,,,,,,,,,,384.9726429000002,384.9769479999959,384.9769479999959,384.9769479999959,387.9544426999928,indoor,f,2.0206743000017013,0.1427101000008406,387.9545722999901,387.95462629999383,None,,,,,,,,,,,,,,00058,001,2026-01-19_15h01.44.304,MST_task,2024.2.0,60.02757666556457,2026-01-19 15h02.22.297298 +0530,
,Objects\266a.jpg,59,0,60,,,,,,,None,,,f,0.3013433000014629,None,,,,60,0,59,387.9712595000019,,,,,,,,,,,,,,,,,,,,,,,387.9548596999957,387.9712595000019,388.4549027999892,,,,,,,,,,,,,,388.5098088999948,,,,,,,,,,388.50649780000094,388.5098088999948,388.5098088999948,388.5098088999948,391.47113959999115,indoor,None,,,391.4712715999922,391.80561899999157,f,391.48731959999714,391.48731959999714,0.3013433000014629,None,,,,,,,,,,00058,001,2026-01-19_15h01.44.304,MST_task,2024.2.0,60.02757666556457,2026-01-19 15h02.22.297298 +0530,
,Objects\367a.jpg,60,0,61,,,,,,,j,2.4552537999989,0.12004320000414737,None,,,,,,61,0,60,391.821300399999,,,,,,,,,,,,,,,,,,,,,,,391.8060018999968,391.821300399999,392.3049863999913,,,,,,,,,,,,,,392.3423072000005,,,,,,,,,,392.33920529999887,392.3423072000005,392.3423072000005,392.3423072000005,395.3211924999923,indoor,j,2.4552537999989,0.12004320000414737,395.3213673999999,395.3214418999996,None,,,,,,,,,,,,,,00058,001,2026-01-19_15h01.44.304,MST_task,2024.2.0,60.02757666556457,2026-01-19 15h02.22.297298 +0530,
,Objects\109a.jpg,61,0,62,,,,,,,j,1.449834800005192,0.10402709999470972,None,,,,,,62,0,61,395.33738269998867,,,,,,,,,,,,,,,,,,,,,,,395.3217516000004,395.33738269998867,395.8212088,,,,,,,,,,,,,,395.88311959999555,,,,,,,,,,395.87992959999247,395.88311959999555,395.88311959999555,395.88311959999555,398.8380291999929,indoor,j,1.449834800005192,0.10402709999470972,398.83821489999536,398.83829010000045,None,,,,,,,,,,,,,,00058,001,2026-01-19_15h01.44.304,MST_task,2024.2.0,60.02757666556457,2026-01-19 15h02.22.297298 +0530,
,Objects\356a.jpg,62,0,63,,,,,,,j,2.805408300002455,None,None,,,,,,63,0,62,398.85408129999996,,,,,,,,,,,,,,,,,,,,,,,398.83859899999516,398.85408129999996,399.3389102999936,,,,,,,,,,,,,,399.3919217999937,,,,,,,,,,399.3879734999937,399.3919217999937,399.3919217999937,399.3919217999937,402.3543677999987,indoor,j,2.805408300002455,None,402.3544721999933,402.35450929999934,None,,,,,,,,,,,,,,00058,001,2026-01-19_15h01.44.304,MST_task,2024.2.0,60.02757666556457,2026-01-19 15h02.22.297298 +0530,
,Objects\106a.jpg,63,0,64,,,,,,,f,2.0696377999993274,0.11167739999655169,None,,,,,,64,0,63,402.3707260999945,,,,,,,,,,,,,,,,,,,,,,,402.3546881999937,402.3707260999945,402.8551344000007,,,,,,,,,,,,,,402.91964809999627,,,,,,,,,,402.916604500002,402.91964809999627,402.91964809999627,402.91964809999627,405.8710041000013,shoe,f,2.0696377999993274,0.11167739999655169,405.8746816999919,405.8747186999972,None,,,,,,,,,,,,,,00058,001,2026-01-19_15h01.44.304,MST_task,2024.2.0,60.02757666556457,2026-01-19 15h02.22.297298 +0530,
,Objects\327a.jpg,64,0,65,,,,,,,f,0.9304618000023765,0.14502409999840893,None,,,,,,65,0,64,405.8875299999927,,,,,,,,,,,,,,,,,,,,,,,405.87492999999085,405.8875299999927,406.3717118999921,,,,,,,,,,,,,,406.4260854000022,,,,,,,,,,406.4228851999942,406.4260854000022,406.4260854000022,406.4260854000022,409.38788679998834,shoe,f,0.9304618000023765,0.14502409999840893,409.3880572999915,409.38809290000063,None,,,,,,,,,,,,,,00058,001,2026-01-19_15h01.44.304,MST_task,2024.2.0,60.02757666556457,2026-01-19 15h02.22.297298 +0530,
,Objects\302a.jpg,65,0,66,,,,,,,f,1.4515691999986302,0.14429419999942183,None,,,,,,66,0,65,409.404031099999,,,,,,,,,,,,,,,,,,,,,,,409.3882425999909,409.404031099999,409.888243399997,,,,,,,,,,,,,,409.93697299998894,,,,,,,,,,409.9334399999934,409.93697299998894,409.93697299998894,409.93697299998894,412.9044009999925,shoe,f,1.4515691999986302,0.14429419999942183,412.90459789999295,412.90467029999127,None,,,,,,,,,,,,,,00058,001,2026-01-19_15h01.44.304,MST_task,2024.2.0,60.02757666556457,2026-01-19 15h02.22.297298 +0530,
,Objects\161a.jpg,66,0,67,,,,,,,f,1.0304382000031183,0.12949249999655876,None,,,,,,67,0,66,412.9213674999919,,,,,,,,,,,,,,,,,,,,,,,412.90494729999045,412.9213674999919,413.40500689999317,,,,,,,,,,,,,,413.4537464999885,,,,,,,,,,413.45023519999813,413.4537464999885,413.4537464999885,413.4537464999885,416.42107539999415,shoe,f,1.0304382000031183,0.12949249999655876,416.42120579999755,416.4212564999907,None,,,,,,,,,,,,,,00058,001,2026-01-19_15h01.44.304,MST_task,2024.2.0,60.02757666556457,2026-01-19 15h02.22.297298 +0530,
,Objects\374a.jpg,67,0,68,,,,,,,f,0.9564383999968413,0.1205816000001505,None,,,,,,68,0,67,416.4380947999889,,,,,,,,,,,,,,,,,,,,,,,416.42147159999877,416.4380947999889,416.92177449999144,,,,,,,,,,,,,,416.9441802999936,,,,,,,,,,416.94070629999624,416.9441802999936,416.9441802999936,416.9441802999936,419.9218589999946,shoe,f,0.9564383999968413,0.1205816000001505,419.92195869999705,419.92199839999375,None,,,,,,,,,,,,,,00058,001,2026-01-19_15h01.44.304,MST_task,2024.2.0,60.02757666556457,2026-01-19 15h02.22.297298 +0530,
,Objects\263a.jpg,68,0,69,,,,,,,j,1.2980580000003101,0.16759250000177417,None,,,,,,69,0,68,419.9374455999932,,,,,,,,,,,,,,,,,,,,,,,419.92225839999446,419.9374455999932,420.421746299995,,,,,,,,,,,,,,420.45861010000226,,,,,,,,,,420.45528199999535,420.45861010000226,420.45861010000226,420.45861010000226,423.43772079999326,shoe,j,1.2980580000003101,0.16759250000177417,423.43789780000225,423.43796969999676,None,,,,,,,,,,,,,,00058,001,2026-01-19_15h01.44.304,MST_task,2024.2.0,60.02757666556457,2026-01-19 15h02.22.297298 +0530,
,Objects\371a.jpg,69,0,70,,,,,,,j,1.2533868000027724,0.1511422999901697,None,,,,,,70,0,69,423.4540593999991,,,,,,,,,,,,,,,,,,,,,,,423.4384083999903,423.4540593999991,423.93875729999854,,,,,,,,,,,,,,423.9762836000009,,,,,,,,,,423.9734866999934,423.9762836000009,423.9762836000009,423.9762836000009,426.95441999999457,shoe,j,1.2533868000027724,0.1511422999901697,426.954588099994,426.9546607999946,None,,,,,,,,,,,,,,00058,001,2026-01-19_15h01.44.304,MST_task,2024.2.0,60.02757666556457,2026-01-19 15h02.22.297298 +0530,
,Objects\219a.jpg,70,0,71,,,,,,,j,1.997998099992401,0.1602978000009898,None,,,,,,71,0,70,426.97075239999685,,,,,,,,,,,,,,,,,,,,,,,426.954982700001,426.97075239999685,427.45559529999446,,,,,,,,,,,,,,427.5102590999886,,,,,,,,,,427.50662960000045,427.5102590999886,427.5102590999886,427.5102590999886,430.4710950000008,indoor,j,1.997998099992401,0.1602978000009898,430.47600019999663,430.4760207999934,None,,,,,,,,,,,,,,00058,001,2026-01-19_15h01.44.304,MST_task,2024.2.0,60.02757666556457,2026-01-19 15h02.22.297298 +0530,
,Objects\237a.jpg,71,0,72,,,,,,,j,1.510387600006652,0.16058369999518618,None,,,,,,72,0,71,430.48722519999137,,,,,,,,,,,,,,,,,,,,,,,430.476107999988,430.48722519999137,430.9717518999969,,,,,,,,,,,,,,431.0219567999884,,,,,,,,,,431.01866619999055,431.0219567999884,431.0219567999884,431.0219567999884,433.987982199993,indoor,j,1.510387600006652,0.16058369999518618,433.98815069999546,433.9882230999938,None,,,,,,,,,,,,,,00058,001,2026-01-19_15h01.44.304,MST_task,2024.2.0,60.02757666556457,2026-01-19 15h02.22.297298 +0530,
,Objects\184a.jpg,72,0,73,,,,,,,None,,,j,0.020610699997632764,None,,,,73,0,72,434.0039453999925,,,,,,,,,,,,,,,,,,,,,,,433.9885282999894,434.0039453999925,434.4883781999961,,,,,,,,,,,,,,434.5157760000002,,,,,,,,,,434.5115119999973,434.5157760000002,434.5157760000002,434.5157760000002,437.5045565999899,indoor,None,,,437.5047384999925,437.5558650000021,j,437.5206286999892,437.5206286999892,0.020610699997632764,None,,,,,,,,,,00058,001,2026-01-19_15h01.44.304,MST_task,2024.2.0,60.02757666556457,2026-01-19 15h02.22.297298 +0530,
,Objects\154a.jpg,73,0,74,,,,,,,f,1.8565660000022035,0.09703939998871647,None,,,,,,74,0,73,437.5708147999976,,,,,,,,,,,,,,,,,,,,,,,437.55625059999875,437.5708147999976,438.05506919999607,,,,,,,,,,,,,,438.08391079999274,,,,,,,,,,438.08118660000036,438.08391079999274,438.08391079999274,438.08391079999274,441.0710955999966,indoor,f,1.8565660000022035,0.09703939998871647,441.07122230000095,441.07127289999335,None,,,,,,,,,,,,,,00058,001,2026-01-19_15h01.44.304,MST_task,2024.2.0,60.02757666556457,2026-01-19 15h02.22.297298 +0530,
,Objects\093a.jpg,74,0,75,,,,,,,j,1.5469758999970509,0.16739130001224112,None,,,,,,75,0,74,441.0880946999969,,,,,,,,,,,,,,,,,,,,,,,441.071494799995,441.0880946999969,441.57193469999766,,,,,,,,,,,,,,441.5941206999996,,,,,,,,,,441.590949999998,441.5941206999996,441.5941206999996,441.5941206999996,444.58776059999946,indoor,j,1.5469758999970509,0.16739130001224112,444.5879281999951,444.5879983999912,None,,,,,,,,,,,,,,00058,001,2026-01-19_15h01.44.304,MST_task,2024.2.0,60.02757666556457,2026-01-19 15h02.22.297298 +0530,
,Objects\140a.jpg,75,0,76,,,,,,,None,,,j,0.04487960001279134,None,,,,76,0,75,444.60424069999135,,,,,,,,,,,,,,,,,,,,,,,444.58831019999343,444.60424069999135,445.0888879999984,,,,,,,,,,,,,,445.1093017999956,,,,,,,,,,445.1060479000007,445.1093017999956,445.1093017999956,445.1093017999956,448.10417510000116,indoor,None,,,448.1042926999944,448.1724144999898,j,448.1205428999965,448.1205428999965,0.04487960001279134,None,,,,,,,,,,00058,001,2026-01-19_15h01.44.304,MST_task,2024.2.0,60.02757666556457,2026-01-19 15h02.22.297298 +0530,
,Objects\299a.jpg,76,0,77,,,,,,,j,2.2817720000020927,0.14295660000061616,None,,,,,,77,0,76,448.1874076999957,,,,,,,,,,,,,,,,,,,,,,,448.1727302999934,448.1874076999957,448.6717720000015,,,,,,,,,,,,,,448.7235051999887,,,,,,,,,,448.7200679999951,448.7235051999887,448.7235051999887,448.7235051999887,451.68790340000123,indoor,j,2.2817720000020927,0.14295660000061616,451.688078399995,451.68815170000016,None,,,,,,,,,,,,,,00058,001,2026-01-19_15h01.44.304,MST_task,2024.2.0,60.02757666556457,2026-01-19 15h02.22.297298 +0530,
,Objects\252a.jpg,77,0,78,,,,,,,f,1.0621929000044474,0.15102139998634811,None,,,,,,78,0,77,451.7041688999889,,,,,,,,,,,,,,,,,,,,,,,451.68848679999064,451.7041688999889,452.18828659999417,,,,,,,,,,,,,,452.23905849999574,,,,,,,,,,452.2358638000005,452.23905849999574,452.23905849999574,452.23905849999574,455.2045223000023,shoe,f,1.0621929000044474,0.15102139998634811,455.20821389999765,455.2082459999947,None,,,,,,,,,,,,,,00058,001,2026-01-19_15h01.44.304,MST_task,2024.2.0,60.02757666556457,2026-01-19 15h02.22.297298 +0530,
,Objects\150a.jpg,78,0,79,,,,,,,j,2.7514072000049055,0.17606670000532176,None,,,,,,79,0,78,455.2208748999983,,,,,,,,,,,,,,,,,,,,,,,455.20836540000164,455.2208748999983,455.70528029999696,,,,,,,,,,,,,,455.74942239999655,,,,,,,,,,455.7464839000022,455.74942239999655,455.74942239999655,455.74942239999655,458.72122690000106,shoe,j,2.7514072000049055,0.17606670000532176,458.7213461999927,458.72139259999676,None,,,,,,,,,,,,,,00058,001,2026-01-19_15h01.44.304,MST_task,2024.2.0,60.02757666556457,2026-01-19 15h02.22.297298 +0530,
,Objects\241a.jpg,79,0,80,,,,,,,f,2.7147426000010455,0.143868700004532,None,,,,,,80,0,79,458.7374528999935,,,,,,,,,,,,,,,,,,,,,,,458.7215969999961,458.7374528999935,459.2218640999927,,,,,,,,,,,,,,459.2416893999907,,,,,,,,,,459.2386523999885,459.2416893999907,459.2416893999907,459.2416893999907,462.23800779999874,shoe,f,2.7147426000010455,0.143868700004532,462.23818590000155,462.23823309999716,None,,,,,,,,,,,,,,00058,001,2026-01-19_15h01.44.304,MST_task,2024.2.0,60.02757666556457,2026-01-19 15h02.22.297298 +0530,
,Objects\352a.jpg,80,0,81,,,,,,,f,1.5357700000022305,0.12009799999941606,None,,,,,,81,0,80,462.2541801999905,,,,,,,,,,,,,,,,,,,,,,,462.23843349999515,462.2541801999905,462.73840760000166,,,,,,,,,,,,,,462.78157869999995,,,,,,,,,,462.7779879000009,462.78157869999995,462.78157869999995,462.78157869999995,465.75525459999335,shoe,f,1.5357700000022305,0.12009799999941606,465.7554090999911,465.7554635999986,None,,,,,,,,,,,,,,00058,001,2026-01-19_15h01.44.304,MST_task,2024.2.0,60.02757666556457,2026-01-19 15h02.22.297298 +0530,
,Objects\246a.jpg,81,0,82,,,,,,,f,2.2579873999929987,0.1103657000057865,None,,,,,,82,0,81,465.7710611999937,,,,,,,,,,,,,,,,,,,,,,,465.75569639999594,465.7710611999937,466.25506609999866,,,,,,,,,,,,,,466.2761909999972,,,,,,,,,,466.2728952999896,466.2761909999972,466.2761909999972,466.2761909999972,469.271465599988,shoe,f,2.2579873999929987,0.1103657000057865,469.2716356000019,469.271708100001,None,,,,,,,,,,,,,,00058,001,2026-01-19_15h01.44.304,MST_task,2024.2.0,60.02757666556457,2026-01-19 15h02.22.297298 +0530,
,Objects\038a.jpg,82,0,83,,,,,,,f,1.0199392999929842,0.14327919999777805,None,,,,,,83,0,82,469.2873060999991,,,,,,,,,,,,,,,,,,,,,,,469.2719680000009,469.2873060999991,469.7715754999954,,,,,,,,,,,,,,469.8089690999914,,,,,,,,,,469.80533899999864,469.8089690999914,469.8089690999914,469.8089690999914,472.7876995999977,shoe,f,1.0199392999929842,0.14327919999777805,472.78787299999385,472.7879466000013,None,,,,,,,,,,,,,,00058,001,2026-01-19_15h01.44.304,MST_task,2024.2.0,60.02757666556457,2026-01-19 15h02.22.297298 +0530,
,Objects\014a.jpg,83,0,84,,,,,,,f,1.0765376000053948,0.08730959999957122,None,,,,,,84,0,83,472.8040074999881,,,,,,,,,,,,,,,,,,,,,,,472.78828729999077,472.8040074999881,473.2886388999905,,,,,,,,,,,,,,473.3368813999987,,,,,,,,,,473.33386499999324,473.3368813999987,473.3368813999987,473.3368813999987,476.30437489999167,shoe,f,1.0765376000053948,0.08730959999957122,476.3045679999923,476.3046458999888,None,,,,,,,,,,,,,,00058,001,2026-01-19_15h01.44.304,MST_task,2024.2.0,60.02757666556457,2026-01-19 15h02.22.297298 +0530,
,Objects\094a.jpg,84,0,85,,,,,,,f,2.1567855999892345,0.12763270000868943,None,,,,,,85,0,84,476.3211086999945,,,,,,,,,,,,,,,,,,,,,,,476.30501809999987,476.3211086999945,476.80501129999175,,,,,,,,,,,,,,476.85664119999274,,,,,,,,,,476.8538148999942,476.85664119999274,476.85664119999274,476.85664119999274,479.8210170999955,indoor,f,2.1567855999892345,0.12763270000868943,479.8265900999977,479.8266658999928,None,,,,,,,,,,,,,,00058,001,2026-01-19_15h01.44.304,MST_task,2024.2.0,60.02757666556457,2026-01-19 15h02.22.297298 +0530,
,Objects\378a.jpg,85,0,86,,,,,,,j,2.403636999995797,0.1268356000073254,None,,,,,,86,0,85,479.8376935999986,,,,,,,,,,,,,,,,,,,,,,,479.8269003000023,479.8376935999986,480.32181209999544,,,,,,,,,,,,,,480.36978889998863,,,,,,,,,,480.36680689999775,480.36978889998863,480.36978889998863,480.36978889998863,483.3376594000001,indoor,j,2.403636999995797,0.1268356000073254,483.337827299998,483.3378800999926,None,,,,,,,,,,,,,,00058,001,2026-01-19_15h01.44.304,MST_task,2024.2.0,60.02757666556457,2026-01-19 15h02.22.297298 +0530,
,Objects\040a.jpg,86,0,87,,,,,,,f,2.8817066000046907,None,None,,,,,,87,0,86,483.35396089999995,,,,,,,,,,,,,,,,,,,,,,,483.33811149999383,483.35396089999995,483.83818320000137,,,,,,,,,,,,,,,,,,,,,,,,483.87248839999666,483.8754535999906,483.8754535999906,483.8754535999906,486.854296599995,indoor,f,2.8817066000046907,None,486.8543994999927,486.854448099999,None,,,,,,,,,,,,,,00058,001,2026-01-19_15h01.44.304,MST_task,2024.2.0,60.02757666556457,2026-01-19 15h02.22.297298 +0530,
,Objects\172a.jpg,87,0,88,,,,,,,j,1.9292895999969915,0.14337000000523403,None,,,,,,88,0,87,486.87062269999296,,,,,,,,,,,,,,,,,,,,,,,486.8546234999958,486.87062269999296,487.3550041999988,,,,,,,,,,,,,,487.3959344999894,,,,,,,,,,487.3926313999982,487.3959344999894,487.3959344999894,487.3959344999894,490.37131069999305,indoor,j,1.9292895999969915,0.14337000000523403,490.3714956999902,490.37154159999045,None,,,,,,,,,,,,,,00058,001,2026-01-19_15h01.44.304,MST_task,2024.2.0,60.02757666556457,2026-01-19 15h02.22.297298 +0530,
,Objects\092a.jpg,88,0,89,,,,,,,j,2.7785097000014503,0.1289764999964973,None,,,,,,89,0,88,490.38759579999896,,,,,,,,,,,,,,,,,,,,,,,490.37173359999724,490.38759579999896,490.87179319999996,,,,,,,,,,,,,,490.8896994999959,,,,,,,,,,490.88708499999484,490.8896994999959,490.8896994999959,490.8896994999959,493.8877089999878,indoor,j,2.7785097000014503,0.1289764999964973,493.8878771000018,493.88795439999376,None,,,,,,,,,,,,,,00058,001,2026-01-19_15h01.44.304,MST_task,2024.2.0,60.02757666556457,2026-01-19 15h02.22.297298 +0530,
,Objects\342a.jpg,89,0,90,,,,,,,f,2.7748763999989023,None,None,,,,,,90,0,89,493.90394350000133,,,,,,,,,,,,,,,,,,,,,,,493.8882598999917,493.90394350000133,494.3888392999943,,,,,,,,,,,,,,494.4225454999978,,,,,,,,,,494.4191482999886,494.4225454999978,494.4225454999978,494.4225454999978,497.4043179,indoor,f,2.7748763999989023,None,497.4044298999943,497.4044750999892,None,,,,,,,,,,,,,,00058,001,2026-01-19_15h01.44.304,MST_task,2024.2.0,60.02757666556457,2026-01-19 15h02.22.297298 +0530,
,Objects\325a.jpg,90,0,91,,,,,,,None,,,f,0.3716867000039201,None,,,,91,0,90,497.42083750000165,,,,,,,,,,,,,,,,,,,,,,,497.4047326,497.42083750000165,497.90518599998904,,,,,,,,,,,,,,497.94439749998855,,,,,,,,,,497.94156739999016,497.94439749998855,497.94439749998855,497.94439749998855,500.9211126000009,indoor,None,,,500.9212178999878,501.32256689999485,f,500.93739919998916,500.93739919998916,0.3716867000039201,None,,,,,,,,,,00058,001,2026-01-19_15h01.44.304,MST_task,2024.2.0,60.02757666556457,2026-01-19 15h02.22.297298 +0530,
,Objects\257a.jpg,91,0,92,,,,,,,f,2.3157322999904864,0.16766080001252703,None,,,,,,92,0,91,501.3372418999934,,,,,,,,,,,,,,,,,,,,,,,501.32292239999515,501.3372418999934,501.82219079999777,,,,,,,,,,,,,,501.8659833999991,,,,,,,,,,501.86213899998984,501.8659833999991,501.8659833999991,501.8659833999991,504.83768240000063,shoe,f,2.3157322999904864,0.16766080001252703,504.8411238999979,504.8411575999926,None,,,,,,,,,,,,,,00058,001,2026-01-19_15h01.44.304,MST_task,2024.2.0,60.02757666556457,2026-01-19 15h02.22.297298 +0530,
,Objects\303a.jpg,92,0,93,,,,,,,j,2.609188599992194,0.167694500007201,None,,,,,,93,0,92,504.8541255000018,,,,,,,,,,,,,,,,,,,,,,,504.84128389999387,504.8541255000018,505.3384875999909,,,,,,,,,,,,,,505.363714799998,,,,,,,,,,505.3609634000022,505.363714799998,505.363714799998,505.363714799998,508.35451629999443,shoe,j,2.609188599992194,0.167694500007201,508.3546859999915,508.35475629998837,None,,,,,,,,,,,,,,00058,001,2026-01-19_15h01.44.304,MST_task,2024.2.0,60.02757666556457,2026-01-19 15h02.22.297298 +0530,
,Objects\346a.jpg,93,0,94,,,,,,,j,1.8094636000023456,0.095941399995354,None,,,,,,94,0,93,508.37122319999617,,,,,,,,,,,,,,,,,,,,,,,508.3552270999935,508.37122319999617,508.85509679999086,,,,,,,,,,,,,,508.8987213999935,,,,,,,,,,508.89545019999787,508.8987213999935,508.8987213999935,508.8987213999935,511.8710917999997,shoe,j,1.8094636000023456,0.095941399995354,511.87125099998957,511.8712935999938,None,,,,,,,,,,,,,,00058,001,2026-01-19_15h01.44.304,MST_task,2024.2.0,60.02757666556457,2026-01-19 15h02.22.297298 +0530,
,Objects\083a.jpg,94,0,95,,,,,,,f,1.509705300006317,0.12872419999621343,None,,,,,,95,0,94,511.8872329000005,,,,,,,,,,,,,,,,,,,,,,,511.8715501999977,511.8872329000005,512.3716153999994,,,,,,,,,,,,,,,,,,,,,,,,512.4278535999911,512.4307770000014,512.4307770000014,512.4307770000014,515.3717691999918,shoe,f,1.509705300006317,0.12872419999621343,515.3719393999927,515.3720086999965,None,,,,,,,,,,,,,,00058,001,2026-01-19_15h01.44.304,MST_task,2024.2.0,60.02757666556457,2026-01-19 15h02.22.297298 +0530,
,Objects\148a.jpg,95,0,96,,,,,,,j,2.6552344000083394,0.16798889999336097,None,,,,,,96,0,95,515.3874426999973,,,,,,,,,,,,,,,,,,,,,,,515.3723251999909,515.3874426999973,515.8716519000009,,,,,,,,,,,,,,515.926154899993,,,,,,,,,,515.922916999989,515.926154899993,515.926154899993,515.926154899993,518.8879040999891,shoe,j,2.6552344000083394,0.16798889999336097,518.8880387999961,518.8880915999907,None,,,,,,,,,,,,,,00058,001,2026-01-19_15h01.44.304,MST_task,2024.2.0,60.02757666556457,2026-01-19 15h02.22.297298 +0530,
,Objects\282a.jpg,96,0,97,,,,,,,j,1.4514373999991221,0.13655360000848304,None,,,,,,97,0,96,518.9040979999991,,,,,,,,,,,,,,,,,,,,,,,518.8883223000012,518.9040979999991,519.3890510999918,,,,,,,,,,,,,,519.4094077999907,,,,,,,,,,519.406276099995,519.4094077999907,519.4094077999907,519.4094077999907,522.4047405999881,shoe,j,1.4514373999991221,0.13655360000848304,522.4048643999995,522.4049129999912,None,,,,,,,,,,,,,,00058,001,2026-01-19_15h01.44.304,MST_task,2024.2.0,60.02757666556457,2026-01-19 15h02.22.297298 +0530,
,Objects\272a.jpg,97,0,98,,,,,,,f,1.3983311000047252,0.145532299997285,None,,,,,,98,0,97,522.4206706999976,,,,,,,,,,,,,,,,,,,,,,,522.405127799997,522.4206706999976,522.9049735000008,,,,,,,,,,,,,,522.9417583999893,,,,,,,,,,522.9374778999918,522.9417583999893,522.9417583999893,522.9417583999893,525.9208879999933,shoe,f,1.3983311000047252,0.145532299997285,525.9209996999998,525.9210439999879,None,,,,,,,,,,,,,,00058,001,2026-01-19_15h01.44.304,MST_task,2024.2.0,60.02757666556457,2026-01-19 15h02.22.297298 +0530,
,Objects\089a.jpg,98,0,99,,,,,,,j,2.325129699995159,0.15192380000371486,None,,,,,,99,0,98,525.9372907999932,,,,,,,,,,,,,,,,,,,,,,,525.9214216999972,525.9372907999932,526.4219444999908,,,,,,,,,,,,,,526.4722445999942,,,,,,,,,,526.468865399991,526.4722445999942,526.4722445999942,526.4722445999942,529.4213238999946,indoor,j,2.325129699995159,0.15192380000371486,529.4262618999928,529.4263231999939,None,,,,,,,,,,,,,,00058,001,2026-01-19_15h01.44.304,MST_task,2024.2.0,60.02757666556457,2026-01-19 15h02.22.297298 +0530,
,Objects\187a.jpg,99,0,100,,,,,,,f,2.601261300005717,0.1452294000046095,None,,,,,,100,0,99,529.4375106999942,,,,,,,,,,,,,,,,,,,,,,,529.4265585999965,529.4375106999942,529.9226129000017,,,,,,,,,,,,,,529.9708459999965,,,,,,,,,,529.9676720999996,529.9708459999965,529.9708459999965,529.9708459999965,532.9376813999988,indoor,f,2.601261300005717,0.1452294000046095,532.9378394999949,532.9379039999912,None,,,,,,,,,,,,,,00058,001,2026-01-19_15h01.44.304,MST_task,2024.2.0,60.02757666556457,2026-01-19 15h02.22.297298 +0530,
,Objects\192a.jpg,100,0,101,,,,,,,j,1.6578893999976572,0.207728200010024,None,,,,,,101,0,100,532.9540601999906,,,,,,,,,,,,,,,,,,,,,,,532.938198399992,532.9540601999906,533.4386062999984,,,,,,,,,,,,,,533.4587351999944,,,,,,,,,,533.4557900999935,533.4587351999944,533.4587351999944,533.4587351999944,536.4380845999985,indoor,j,1.6578893999976572,0.207728200010024,536.4382558999932,536.4383278999885,None,,,,,,,,,,,,,,00058,001,2026-01-19_15h01.44.304,MST_task,2024.2.0,60.02757666556457,2026-01-19 15h02.22.297298 +0530,
,Objects\270a.jpg,101,0,102,,,,,,,j,1.1812618999974802,0.1280248999973992,None,,,,,,102,0,101,536.4539353,,,,,,,,,,,,,,,,,,,,,,,536.4386079999967,536.4539353,536.9384203999944,,,,,,,,,,,,,,536.9755576999887,,,,,,,,,,536.9726200000005,536.9755576999887,536.9755576999887,536.9755576999887,539.9543907999905,indoor,j,1.1812618999974802,0.1280248999973992,539.9545717000001,539.95464299999,None,,,,,,,,,,,,,,00058,001,2026-01-19_15h01.44.304,MST_task,2024.2.0,60.02757666556457,2026-01-19 15h02.22.297298 +0530,
,Objects\082a.jpg,102,0,103,,,,,,,j,1.5530740999965928,0.13640850000956561,None,,,,,,103,0,102,539.9707176999946,,,,,,,,,,,,,,,,,,,,,,,539.9549246999959,539.9707176999946,540.4549441999989,,,,,,,,,,,,,,540.5241793000023,,,,,,,,,,540.5198405999981,540.5241793000023,540.5241793000023,540.5241793000023,543.471209299998,indoor,j,1.5530740999965928,0.13640850000956561,543.4713482999941,543.4714080999984,None,,,,,,,,,,,,,,00058,001,2026-01-19_15h01.44.304,MST_task,2024.2.0,60.02757666556457,2026-01-19 15h02.22.297298 +0530,
,Objects\005a.jpg,103,0,104,,,,,,,j,2.0112278000015067,0.15238910001062322,None,,,,,,104,0,103,543.4872688999894,,,,,,,,,,,,,,,,,,,,,,,543.4716841999907,543.4872688999894,543.9723364999954,,,,,,,,,,,,,,,,,,,,,,,,544.0149586999905,544.0180589999945,544.0180589999945,544.0180589999945,546.9877610999974,indoor,j,2.0112278000015067,0.15238910001062322,546.987930999996,546.9879990999907,None,,,,,,,,,,,,,,00058,001,2026-01-19_15h01.44.304,MST_task,2024.2.0,60.02757666556457,2026-01-19 15h02.22.297298 +0530,
,Objects\210a.jpg,104,0,105,,,,,,,j,1.7007555999880424,0.12091660000442062,None,,,,,,105,0,104,547.0040492999979,,,,,,,,,,,,,,,,,,,,,,,546.988320599994,547.0040492999979,547.4884258999955,,,,,,,,,,,,,,547.5277881999937,,,,,,,,,,547.5233523999923,547.5277881999937,547.5277881999937,547.5277881999937,550.5044358000014,indoor,j,1.7007555999880424,0.12091660000442062,550.5045993999956,550.5046574000007,None,,,,,,,,,,,,,,00058,001,2026-01-19_15h01.44.304,MST_task,2024.2.0,60.02757666556457,2026-01-19 15h02.22.297298 +0530,
,Objects\191a.jpg,105,0,106,,,,,,,f,2.4737205999990692,0.16852629999630153,None,,,,,,106,0,105,550.521122399994,,,,,,,,,,,,,,,,,,,,,,,550.504904299989,550.521122399994,551.005253700001,,,,,,,,,,,,,,551.0431449999887,,,,,,,,,,551.0402615999919,551.0431449999887,551.0431449999887,551.0431449999887,554.0210268999945,shoe,f,2.4737205999990692,0.16852629999630153,554.0270113000006,554.0270571000001,None,,,,,,,,,,,,,,00058,001,2026-01-19_15h01.44.304,MST_task,2024.2.0,60.02757666556457,2026-01-19 15h02.22.297298 +0530,
,Objects\029a.jpg,106,0,107,,,,,,,f,1.6111808999994537,0.14409359999990556,None,,,,,,107,0,106,554.0372534999915,,,,,,,,,,,,,,,,,,,,,,,554.0273278999957,554.0372534999915,554.5216723999911,,,,,,,,,,,,,,554.5535935999942,,,,,,,,,,554.5498129999905,554.5535935999942,554.5535935999942,554.5535935999942,557.5378981999966,shoe,f,1.6111808999994537,0.14409359999990556,557.5380789999908,557.5381523999968,None,,,,,,,,,,,,,,00058,001,2026-01-19_15h01.44.304,MST_task,2024.2.0,60.02757666556457,2026-01-19 15h02.22.297298 +0530,
,Objects\041a.jpg,107,0,108,,,,,,,j,1.2922832999902312,0.11273849999997765,None,,,,,,108,0,107,557.5540079999919,,,,,,,,,,,,,,,,,,,,,,,557.5385238000017,557.5540079999919,558.0384300000005,,,,,,,,,,,,,,558.0643183999928,,,,,,,,,,558.0615516999969,558.0643183999928,558.0643183999928,558.0643183999928,561.0545679999923,shoe,j,1.2922832999902312,0.11273849999997765,561.0547129999904,561.0547611999937,None,,,,,,,,,,,,,,00058,001,2026-01-19_15h01.44.304,MST_task,2024.2.0,60.02757666556457,2026-01-19 15h02.22.297298 +0530,
,Objects\049a.jpg,108,0,109,,,,,,,j,1.8775431000103708,0.13596420000249054,None,,,,,,109,0,108,561.0706339999888,,,,,,,,,,,,,,,,,,,,,,,561.0550613999949,561.0706339999888,561.5553556999948,,,,,,,,,,,,,,561.5752318000013,,,,,,,,,,561.5719742999936,561.5752318000013,561.5752318000013,561.5752318000013,564.5710653999995,shoe,j,1.8775431000103708,0.13596420000249054,564.5711680999957,564.5712091000023,None,,,,,,,,,,,,,,00058,001,2026-01-19_15h01.44.304,MST_task,2024.2.0,60.02757666556457,2026-01-19 15h02.22.297298 +0530,
,Objects\217a.jpg,109,0,110,,,,,,,j,2.0218291000055615,0.103017399989767,None,,,,,,110,0,109,564.5873007999908,,,,,,,,,,,,,,,,,,,,,,,564.5713927999896,564.5873007999908,565.0716845999996,,,,,,,,,,,,,,,,,,,,,,,,565.0920496999897,565.095968900001,565.095968900001,565.095968900001,568.0879330999887,shoe,j,2.0218291000055615,0.103017399989767,568.0880969999998,568.0881448,None,,,,,,,,,,,,,,00058,001,2026-01-19_15h01.44.304,MST_task,2024.2.0,60.02757666556457,2026-01-19 15h02.22.297298 +0530,
,Objects\251a.jpg,110,0,111,,,,,,,f,1.5418398000037996,0.1361179999948945,None,,,,,,111,0,110,568.1040556999942,,,,,,,,,,,,,,,,,,,,,,,568.0883810999949,568.1040556999942,568.5884657999995,,,,,,,,,,,,,,568.6071251999965,,,,,,,,,,568.6038565999916,568.6071251999965,568.6071251999965,568.6071251999965,571.6047343999962,shoe,f,1.5418398000037996,0.1361179999948945,571.6048644999973,571.6049128000013,None,,,,,,,,,,,,,,00058,001,2026-01-19_15h01.44.304,MST_task,2024.2.0,60.02757666556457,2026-01-19 15h02.22.297298 +0530,
,Objects\308a.jpg,111,0,112,,,,,,,f,1.9033417999889934,0.16004610000527464,None,,,,,,112,0,111,571.6205440999911,,,,,,,,,,,,,,,,,,,,,,,571.6051125999948,571.6205440999911,572.1052125999995,,,,,,,,,,,,,,572.1569504999934,,,,,,,,,,572.1540516999958,572.1569504999934,572.1569504999934,572.1569504999934,575.1212135999958,shoe,f,1.9033417999889934,0.16004610000527464,575.121396699993,575.1214820999885,None,,,,,,,,,,,,,,00058,001,2026-01-19_15h01.44.304,MST_task,2024.2.0,60.02757666556457,2026-01-19 15h02.22.297298 +0530,
,Objects\180a.jpg,112,0,113,,,,,,,f,2.736354599997867,0.18514129999675788,None,,,,,,113,0,112,575.1377446999977,,,,,,,,,,,,,,,,,,,,,,,575.1217002999911,575.1377446999977,575.6218336999882,,,,,,,,,,,,,,575.667690599992,,,,,,,,,,575.6646976999909,575.667690599992,575.667690599992,575.667690599992,578.6380562999984,indoor,f,2.736354599997867,0.18514129999675788,578.6433247999958,578.6434145999956,None,,,,,,,,,,,,,,00058,001,2026-01-19_15h01.44.304,MST_task,2024.2.0,60.02757666556457,2026-01-19 15h02.22.297298 +0530,
,Objects\080a.jpg,113,0,114,,,,,,,f,2.042783299999428,0.15149920000112616,None,,,,,,114,0,113,578.6539841999911,,,,,,,,,,,,,,,,,,,,,,,578.6435752999969,578.6539841999911,579.138532699988,,,,,,,,,,,,,,579.1864568000019,,,,,,,,,,579.1832783999998,579.1864568000019,579.1864568000019,579.1864568000019,582.1543065000005,indoor,f,2.042783299999428,0.15149920000112616,582.1544302999973,582.1544804000005,None,,,,,,,,,,,,,,00058,001,2026-01-19_15h01.44.304,MST_task,2024.2.0,60.02757666556457,2026-01-19 15h02.22.297298 +0530,
,Objects\348a.jpg,114,0,115,,,,,,,j,1.0602066999999806,0.1832781000121031,None,,,,,,115,0,114,582.1705744999927,,,,,,,,,,,,,,,,,,,,,,,582.1546980999992,582.1705744999927,582.6551571000018,,,,,,,,,,,,,,582.6731984999933,,,,,,,,,,582.6695635999931,582.6731984999933,582.6731984999933,582.6731984999933,585.6709770000016,indoor,j,1.0602066999999806,0.1832781000121031,585.6711476999917,585.6712192999985,None,,,,,,,,,,,,,,00058,001,2026-01-19_15h01.44.304,MST_task,2024.2.0,60.02757666556457,2026-01-19 15h02.22.297298 +0530,
,Objects\345a.jpg,115,0,116,,,,,,,f,0.8887783000100171,0.16772159999527503,None,,,,,,116,0,115,585.6880952999927,,,,,,,,,,,,,,,,,,,,,,,585.6715175999998,585.6880952999927,586.1717280000012,,,,,,,,,,,,,,586.2045686999918,,,,,,,,,,586.2015093999944,586.2045686999918,586.2045686999918,586.2045686999918,589.1878013999958,indoor,f,0.8887783000100171,0.16772159999527503,589.1879115999909,589.1879558999935,None,,,,,,,,,,,,,,00058,001,2026-01-19_15h01.44.304,MST_task,2024.2.0,60.02757666556457,2026-01-19 15h02.22.297298 +0530,
,Objects\369a.jpg,116,0,117,,,,,,,None,,,f,1.1805269999895245,None,,,,117,0,116,589.2040680999926,,,,,,,,,,,,,,,,,,,,,,,589.1881474999973,589.2040680999926,589.6884695999906,,,,,,,,,,,,,,589.7246214999905,,,,,,,,,,589.7219328999927,589.7246214999905,589.7246214999905,589.7246214999905,592.7044879000023,indoor,None,,,592.704647599996,593.9060507999966,f,592.7207721000013,592.7207721000013,1.1805269999895245,None,,,,,,,,,,00058,001,2026-01-19_15h01.44.304,MST_task,2024.2.0,60.02757666556457,2026-01-19 15h02.22.297298 +0530,
,Objects\285a.jpg,117,0,118,,,,,,,f,1.7255408000055468,0.16115010000066832,None,,,,,,118,0,117,593.9206735999906,,,,,,,,,,,,,,,,,,,,,,,593.9064175999956,593.9206735999906,594.4054707999894,,,,,,,,,,,,,,594.4629557000007,,,,,,,,,,594.4597824999946,594.4629557000007,594.4629557000007,594.4629557000007,597.4216559999913,indoor,f,1.7255408000055468,0.16115010000066832,597.4217819999903,597.4218352999887,None,,,,,,,,,,,,,,00058,001,2026-01-19_15h01.44.304,MST_task,2024.2.0,60.02757666556457,2026-01-19 15h02.22.297298 +0530,
,Objects\363a.jpg,118,0,119,,,,,,,f,1.3388541000022087,0.1436723999941023,None,,,,,,119,0,118,597.4374053999927,,,,,,,,,,,,,,,,,,,,,,,597.4220518999937,597.4374053999927,597.921869999991,,,,,,,,,,,,,,597.9697873999976,,,,,,,,,,597.9659050999908,597.9697873999976,597.9697873999976,597.9697873999976,600.9386464999989,indoor,f,1.3388541000022087,0.1436723999941023,600.9388230999903,600.9388947999978,None,,,,,,,,,,,,,,00058,001,2026-01-19_15h01.44.304,MST_task,2024.2.0,60.02757666556457,2026-01-19 15h02.22.297298 +0530,
,Objects\245a.jpg,119,0,120,,,,,,,f,1.3741409000067506,0.11937919999763835,None,,,,,,120,0,119,600.9539571999921,,,,,,,,,,,,,,,,,,,,,,,600.9392058999947,600.9539571999921,601.4386401999946,,,,,,,,,,,,,,601.4624852999987,,,,,,,,,,601.4593810999941,601.4624852999987,601.4624852999987,601.4624852999987,604.4543947999919,shoe,f,1.3741409000067506,0.11937919999763835,604.4594758000021,604.4595301999943,None,,,,,,,,,,,,,,00058,001,2026-01-19_15h01.44.304,MST_task,2024.2.0,60.02757666556457,2026-01-19 15h02.22.297298 +0530,
,Objects\120a.jpg,120,0,121,,,,,,,j,1.0541998999979114,0.11949329999333713,None,,,,,,121,0,120,604.4710308999929,,,,,,,,,,,,,,,,,,,,,,,604.4597360999906,604.4710308999929,604.9550774999952,,,,,,,,,,,,,,604.9750533999904,,,,,,,,,,604.9721737999935,604.9750533999904,604.9750533999904,604.9750533999904,607.9711928999895,shoe,j,1.0541998999979114,0.11949329999333713,607.9713540999946,607.971398499998,None,,,,,,,,,,,,,,00058,001,2026-01-19_15h01.44.304,MST_task,2024.2.0,60.02757666556457,2026-01-19 15h02.22.297298 +0530,
,Objects\087a.jpg,121,0,122,,,,,,,j,1.755468599993037,0.12725330000102986,None,,,,,,122,0,121,607.9873246999923,,,,,,,,,,,,,,,,,,,,,,,607.9715891999949,607.9873246999923,608.4717673999985,,,,,,,,,,,,,,608.5141017999995,,,,,,,,,,608.5107119000022,608.5141017999995,608.5141017999995,608.5141017999995,611.4877432999929,shoe,j,1.755468599993037,0.12725330000102986,611.4879224999895,611.4879952999909,None,,,,,,,,,,,,,,00058,001,2026-01-19_15h01.44.304,MST_task,2024.2.0,60.02757666556457,2026-01-19 15h02.22.297298 +0530,
,Objects\280a.jpg,122,0,123,,,,,,,j,2.8616544999968028,None,None,,,,,,123,0,122,611.5039046999882,,,,,,,,,,,,,,,,,,,,,,,611.488336999988,611.5039046999882,611.9885534999921,,,,,,,,,,,,,,612.0320626999892,,,,,,,,,,612.0288733999914,612.0320626999892,612.0320626999892,612.0320626999892,615.0043192000012,shoe,j,2.8616544999968028,None,615.0044767999934,615.0045241999906,None,,,,,,,,,,,,,,00058,001,2026-01-19_15h01.44.304,MST_task,2024.2.0,60.02757666556457,2026-01-19 15h02.22.297298 +0530,
,Objects\173a.jpg,123,0,124,,,,,,,f,1.076799899994512,0.14317599999776576,None,,,,,,124,0,123,615.0206681999989,,,,,,,,,,,,,,,,,,,,,,,615.0047267999907,615.0206681999989,615.5048366999981,,,,,,,,,,,,,,615.5523748999985,,,,,,,,,,615.5492175999971,615.5523748999985,615.5523748999985,615.5523748999985,618.5212119999924,shoe,f,1.076799899994512,0.14317599999776576,618.5213165000023,618.5213578999974,None,,,,,,,,,,,,,,00058,001,2026-01-19_15h01.44.304,MST_task,2024.2.0,60.02757666556457,2026-01-19 15h02.22.297298 +0530,
,Objects\151a.jpg,124,0,125,,,,,,,f,1.1985997000010684,0.152674199998728,None,,,,,,125,0,124,618.5374253999908,,,,,,,,,,,,,,,,,,,,,,,618.5216078999947,618.5374253999908,619.0216714999988,,,,,,,,,,,,,,619.0696951999998,,,,,,,,,,619.0665923999914,619.0696951999998,619.0696951999998,619.0696951999998,622.037798099991,shoe,f,1.1985997000010684,0.152674199998728,622.0379061999993,622.037951499995,None,,,,,,,,,,,,,,00058,001,2026-01-19_15h01.44.304,MST_task,2024.2.0,60.02757666556457,2026-01-19 15h02.22.297298 +0530,
,Objects\229a.jpg,125,0,126,,,,,,,f,2.8561396000004606,None,None,,,,,,126,0,125,622.0540517999907,,,,,,,,,,,,,,,,,,,,,,,622.0381407999957,622.0540517999907,622.5384178999957,,,,,,,,,,,,,,622.6278300999984,,,,,,,,,,622.6245799999888,622.6278300999984,622.6278300999984,622.6278300999984,625.5544670999952,shoe,f,2.8561396000004606,None,625.5546465999942,625.554716300001,None,,,,,,,,,,,,,,00058,001,2026-01-19_15h01.44.304,MST_task,2024.2.0,60.02757666556457,2026-01-19 15h02.22.297298 +0530,
,Objects\101a.jpg,126,0,127,,,,,,,j,2.1684783000091556,0.18407529999967664,None,,,,,,127,0,126,625.5705531999993,,,,,,,,,,,,,,,,,,,,,,,625.5550303999917,625.5705531999993,626.0552735999954,,,,,,,,,,,,,,626.1008125999942,,,,,,,,,,626.097812299995,626.1008125999942,626.1008125999942,626.1008125999942,629.0716052999924,indoor,j,2.1684783000091556,0.18407529999967664,629.0753722999943,629.0754143999948,None,,,,,,,,,,,,,,00058,001,2026-01-19_15h01.44.304,MST_task,2024.2.0,60.02757666556457,2026-01-19 15h02.22.297298 +0530,
,Objects\335a.jpg,127,0,128,,,,,,,None,,,j,1.9444855000037933,None,,,,128,0,127,629.0874036000023,,,,,,,,,,,,,,,,,,,,,,,629.0755843999941,629.0874036000023,629.5719890999899,,,,,,,,,,,,,,629.5958919999975,,,,,,,,,,629.5915157999989,629.5958919999975,629.5958919999975,629.5958919999975,632.587692599991,indoor,None,,,632.5878308999963,634.5562194999948,j,632.6048282999982,632.6048282999982,1.9444855000037933,None,,,,,,,,,,00058,001,2026-01-19_15h01.44.304,MST_task,2024.2.0,60.02757666556457,2026-01-19 15h02.22.297298 +0530,
,Objects\255a.jpg,128,0,129,,,,,,,f,2.4735089000023436,0.2079589000059059,None,,,,,,129,0,128,634.5706248999923,,,,,,,,,,,,,,,,,,,,,,,634.5565559999959,634.5706248999923,635.0550647999917,,,,,,,,,,,,,,635.1072100000019,,,,,,,,,,635.1039407999924,635.1072100000019,635.1072100000019,635.1072100000019,638.0712615999946,indoor,f,2.4735089000023436,0.2079589000059059,638.0714306000009,638.0715031,None,,,,,,,,,,,,,,00058,001,2026-01-19_15h01.44.304,MST_task,2024.2.0,60.02757666556457,2026-01-19 15h02.22.297298 +0530,
,Objects\125a.jpg,129,0,130,,,,,,,j,1.0274312000110513,0.2160433999961242,None,,,,,,130,0,129,638.0880743000016,,,,,,,,,,,,,,,,,,,,,,,638.0718130999885,638.0880743000016,638.5718458999909,,,,,,,,,,,,,,638.5927933999919,,,,,,,,,,638.5897330000007,638.5927933999919,638.5927933999919,638.5927933999919,641.5876351999905,indoor,j,1.0274312000110513,0.2160433999961242,641.5878033999907,641.5878744999936,None,,,,,,,,,,,,,,00058,001,2026-01-19_15h01.44.304,MST_task,2024.2.0,60.02757666556457,2026-01-19 15h02.22.297298 +0530,
,Objects\026a.jpg,130,0,131,,,,,,,j,1.377663000006578,0.15029180000419728,None,,,,,,131,0,130,641.6039096999884,,,,,,,,,,,,,,,,,,,,,,,641.5881839999929,641.6039096999884,642.0882841999992,,,,,,,,,,,,,,642.1241677999933,,,,,,,,,,642.1206415999914,642.1241677999933,642.1241677999933,642.1241677999933,645.1046055999905,indoor,j,1.377663000006578,0.15029180000419728,645.1047858999955,645.1048574000015,None,,,,,,,,,,,,,,00058,001,2026-01-19_15h01.44.304,MST_task,2024.2.0,60.02757666556457,2026-01-19 15h02.22.297298 +0530,
,Objects\023a.jpg,131,0,132,,,,,,,f,1.7042224000033457,0.21616729999368545,None,,,,,,132,0,131,645.1206164999894,,,,,,,,,,,,,,,,,,,,,,,645.1051232999889,645.1206164999894,645.605192899995,,,,,,,,,,,,,,645.6683564999985,,,,,,,,,,645.6653808999981,645.6683564999985,645.6683564999985,645.6683564999985,648.6210349999892,indoor,f,1.7042224000033457,0.21616729999368545,648.6211965999973,648.6212545999879,None,,,,,,,,,,,,,,00058,001,2026-01-19_15h01.44.304,MST_task,2024.2.0,60.02757666556457,2026-01-19 15h02.22.297298 +0530,
,Objects\067a.jpg,132,0,133,,,,,,,j,2.874260799988406,None,None,,,,,,133,0,132,648.6373224999988,,,,,,,,,,,,,,,,,,,,,,,648.6214998999931,648.6373224999988,649.1219693999883,,,,,,,,,,,,,,649.1544293999905,,,,,,,,,,649.1515681999881,649.1544293999905,649.1544293999905,649.1544293999905,652.1377529999882,indoor,j,2.874260799988406,None,652.1378764999972,652.1379266000004,None,,,,,,,,,,,,,,00058,001,2026-01-19_15h01.44.304,MST_task,2024.2.0,60.02757666556457,2026-01-19 15h02.22.297298 +0530,
,Objects\034a.jpg,133,0,134,,,,,,,f,1.7232481999963056,0.21493860000919085,None,,,,,,134,0,133,652.1540349999996,,,,,,,,,,,,,,,,,,,,,,,652.1381451999914,652.1540349999996,652.6385249000014,,,,,,,,,,,,,,652.6738668999897,,,,,,,,,,652.670913599999,652.6738668999897,652.6738668999897,652.6738668999897,655.6541769999894,shoe,f,1.7232481999963056,0.21493860000919085,655.6594751999946,655.6595262999908,None,,,,,,,,,,,,,,00058,001,2026-01-19_15h01.44.304,MST_task,2024.2.0,60.02757666556457,2026-01-19 15h02.22.297298 +0530,
,Objects\057a.jpg,134,0,135,,,,,,,f,1.4927397999999812,0.14353439999104012,None,,,,,,135,0,134,655.6706563999905,,,,,,,,,,,,,,,,,,,,,,,655.6598090999905,655.6706563999905,656.155188699995,,,,,,,,,,,,,,656.1925369999954,,,,,,,,,,656.1884628999978,656.1925369999954,656.1925369999954,656.1925369999954,659.1712461999996,shoe,f,1.4927397999999812,0.14353439999104012,659.1713635999913,659.1714098999946,None,,,,,,,,,,,,,,00058,001,2026-01-19_15h01.44.304,MST_task,2024.2.0,60.02757666556457,2026-01-19 15h02.22.297298 +0530,
,Objects\126a.jpg,135,0,136,,,,,,,j,1.1691326000000117,0.14437339999130927,None,,,,,,136,0,135,659.1875756999943,,,,,,,,,,,,,,,,,,,,,,,659.1716153999878,659.1875756999943,659.6715889999905,,,,,,,,,,,,,,659.7154439000005,,,,,,,,,,659.7123312999902,659.7154439000005,659.7154439000005,659.7154439000005,662.6880736999883,shoe,j,1.1691326000000117,0.14437339999130927,662.688206699997,662.6882599999954,None,,,,,,,,,,,,,,00058,001,2026-01-19_15h01.44.304,MST_task,2024.2.0,60.02757666556457,2026-01-19 15h02.22.297298 +0530,
,Objects\254a.jpg,136,0,137,,,,,,,j,1.3295091000036336,0.2002729000087129,None,,,,,,137,0,136,662.7038403999904,,,,,,,,,,,,,,,,,,,,,,,662.6884926999919,662.7038403999904,663.1876435000013,,,,,,,,,,,,,,663.2427120999928,,,,,,,,,,663.2397883999947,663.2427120999928,663.2427120999928,663.2427120999928,666.2045111999905,shoe,j,1.3295091000036336,0.2002729000087129,666.2046278999915,666.2046746999986,None,,,,,,,,,,,,,,00058,001,2026-01-19_15h01.44.304,MST_task,2024.2.0,60.02757666556457,2026-01-19 15h02.22.297298 +0530,
,Objects\131a.jpg,137,0,138,,,,,,,j,1.3723064999940107,0.10368450000532903,None,,,,,,138,0,137,666.2204921999946,,,,,,,,,,,,,,,,,,,,,,,666.2049539,666.2204921999946,666.705149299989,,,,,,,,,,,,,,666.7288314999896,,,,,,,,,,666.7245382999972,666.7288314999896,666.7288314999896,666.7288314999896,669.7215041000018,shoe,j,1.3723064999940107,0.10368450000532903,669.7216122999962,669.7216579999949,None,,,,,,,,,,,,,,00058,001,2026-01-19_15h01.44.304,MST_task,2024.2.0,60.02757666556457,2026-01-19 15h02.22.297298 +0530,
,Objects\124a.jpg,138,0,139,,,,,,,j,1.9952718999993522,0.13702939999348018,None,,,,,,139,0,138,669.73787669999,,,,,,,,,,,,,,,,,,,,,,,669.7218716999923,669.73787669999,670.2216629999893,,,,,,,,,,,,,,670.2650283999974,,,,,,,,,,670.2617689999897,670.2650283999974,670.2650283999974,670.2650283999974,673.2378159999935,shoe,j,1.9952718999993522,0.13702939999348018,673.2380217999889,673.2380955999979,None,,,,,,,,,,,,,,00058,001,2026-01-19_15h01.44.304,MST_task,2024.2.0,60.02757666556457,2026-01-19 15h02.22.297298 +0530,
,Objects\194a.jpg,139,0,140,,,,,,,f,0.9055116999952588,0.1843246999924304,None,,,,,,140,0,139,673.2539985999902,,,,,,,,,,,,,,,,,,,,,,,673.238460099994,673.2539985999902,673.7388615999953,,,,,,,,,,,,,,673.7788128999964,,,,,,,,,,673.7746484999952,673.7788128999964,673.7788128999964,673.7788128999964,676.7543669000006,shoe,f,0.9055116999952588,0.1843246999924304,676.7544932999881,676.7545479999972,None,,,,,,,,,,,,,,00058,001,2026-01-19_15h01.44.304,MST_task,2024.2.0,60.02757666556457,2026-01-19 15h02.22.297298 +0530,
,Objects\298a.jpg,140,0,141,,,,,,,j,1.9291931000043405,0.1433965000032913,None,,,,,,141,0,140,676.7707206999912,,,,,,,,,,,,,,,,,,,,,,,676.7547593999916,676.7707206999912,677.25505349999,,,,,,,,,,,,,,677.2838542999962,,,,,,,,,,677.2807911999989,677.2838542999962,677.2838542999962,677.2838542999962,680.2709744000022,indoor,j,1.9291931000043405,0.1433965000032913,680.2764767999906,680.2765460999944,None,,,,,,,,,,,,,,00058,001,2026-01-19_15h01.44.304,MST_task,2024.2.0,60.02757666556457,2026-01-19 15h02.22.297298 +0530,
,Objects\365a.jpg,141,0,142,,,,,,,j,1.5103796999901533,0.1281456000142498,None,,,,,,142,0,141,680.2873347999994,,,,,,,,,,,,,,,,,,,,,,,680.2768132999918,680.2873347999994,680.7715427999938,,,,,,,,,,,,,,680.814530299991,,,,,,,,,,680.8112064000015,680.814530299991,680.814530299991,680.814530299991,683.7879265999945,indoor,j,1.5103796999901533,0.1281456000142498,683.7880416999978,683.7880875999981,None,,,,,,,,,,,,,,00058,001,2026-01-19_15h01.44.304,MST_task,2024.2.0,60.02757666556457,2026-01-19 15h02.22.297298 +0530,
,Objects\313a.jpg,142,0,143,,,,,,,j,2.2277991000009933,0.1588398000021698,None,,,,,,143,0,142,683.8039864999882,,,,,,,,,,,,,,,,,,,,,,,683.788289499993,683.8039864999882,684.2881692999945,,,,,,,,,,,,,,684.3053320999898,,,,,,,,,,684.3025059999927,684.3053320999898,684.3053320999898,684.3053320999898,687.304418899992,indoor,j,2.2277991000009933,0.1588398000021698,687.3045689999999,687.3046351999947,None,,,,,,,,,,,,,,00058,001,2026-01-19_15h01.44.304,MST_task,2024.2.0,60.02757666556457,2026-01-19 15h02.22.297298 +0530,
,Objects\171a.jpg,143,0,144,,,,,,,f,2.249929700003122,0.16880030000174884,None,,,,,,144,0,143,687.3206512999895,,,,,,,,,,,,,,,,,,,,,,,687.3049228000018,687.3206512999895,687.8054132999969,,,,,,,,,,,,,,687.8507422999974,,,,,,,,,,687.8473147999903,687.8507422999974,687.8507422999974,687.8507422999974,690.8210532999947,indoor,f,2.249929700003122,0.16880030000174884,690.8212244999886,690.8212996999937,None,,,,,,,,,,,,,,00058,001,2026-01-19_15h01.44.304,MST_task,2024.2.0,60.02757666556457,2026-01-19 15h02.22.297298 +0530,
,Objects\297a.jpg,144,0,145,,,,,,,f,2.2221983000054024,0.1679901999887079,None,,,,,,145,0,144,690.8376634000015,,,,,,,,,,,,,,,,,,,,,,,690.8215016999893,690.8376634000015,691.3215530000016,,,,,,,,,,,,,,691.3662781999883,,,,,,,,,,691.3628201999963,691.3662781999883,691.3662781999883,691.3662781999883,694.3377069999988,indoor,f,2.2221983000054024,0.1679901999887079,694.3378997999971,694.3379723999969,None,,,,,,,,,,,,,,00058,001,2026-01-19_15h01.44.304,MST_task,2024.2.0,60.02757666556457,2026-01-19 15h02.22.297298 +0530,
,Objects\095a.jpg,145,0,146,,,,,,,f,1.96811840000737,0.15947129999403842,None,,,,,,146,0,145,694.354194399988,,,,,,,,,,,,,,,,,,,,,,,694.3382930999942,694.354194399988,694.8386613999901,,,,,,,,,,,,,,694.8608325999958,,,,,,,,,,694.8576093000011,694.8608325999958,694.8608325999958,694.8608325999958,697.8550642999908,indoor,f,1.96811840000737,0.15947129999403842,697.8552273999958,697.8552875999885,None,,,,,,,,,,,,,,00058,001,2026-01-19_15h01.44.304,MST_task,2024.2.0,60.02757666556457,2026-01-19 15h02.22.297298 +0530,
,Objects\035a.jpg,146,0,147,,,,,,,f,1.6773822000104701,0.14400519999617245,None,,,,,,147,0,146,697.8709340999922,,,,,,,,,,,,,,,,,,,,,,,697.8554750999901,697.8709340999922,698.355178999991,,,,,,,,,,,,,,698.3754989000008,,,,,,,,,,698.3721401999937,698.3754989000008,698.3754989000008,698.3754989000008,701.3711020999908,indoor,f,1.6773822000104701,0.14400519999617245,701.3712683999911,701.3713406999887,None,,,,,,,,,,,,,,00058,001,2026-01-19_15h01.44.304,MST_task,2024.2.0,60.02757666556457,2026-01-19 15h02.22.297298 +0530,
,Objects\031a.jpg,147,0,148,,,,,,,None,,,j,0.14173409999057185,None,,,,148,0,147,701.3882237999933,,,,,,,,,,,,,,,,,,,,,,,701.3716473999957,701.3882237999933,701.8717565999978,,,,,,,,,,,,,,701.9224376999919,,,,,,,,,,701.9187707999954,701.9224376999919,701.9224376999919,701.9224376999919,704.8718168999912,shoe,None,,,704.8757430999976,705.0390834999998,j,704.8873865999922,704.8873865999922,0.14173409999057185,None,,,,,,,,,,00058,001,2026-01-19_15h01.44.304,MST_task,2024.2.0,60.02757666556457,2026-01-19 15h02.22.297298 +0530,
,Objects\129a.jpg,148,0,149,,,,,,,f,1.1223495000012917,0.1688094999990426,None,,,,,,149,0,148,705.0548520000011,,,,,,,,,,,,,,,,,,,,,,,705.0394188999926,705.0548520000011,705.5383232000022,,,,,,,,,,,,,,705.5777636999992,,,,,,,,,,705.5729726999998,705.5777636999992,705.5777636999992,705.5777636999992,708.5543302000005,shoe,f,1.1223495000012917,0.1688094999990426,708.554510499991,708.5545812999917,None,,,,,,,,,,,,,,00058,001,2026-01-19_15h01.44.304,MST_task,2024.2.0,60.02757666556457,2026-01-19 15h02.22.297298 +0530,
,Objects\134a.jpg,149,0,150,,,,,,,j,1.9741573999926914,0.1196440000057919,None,,,,,,150,0,149,708.5706715999986,,,,,,,,,,,,,,,,,,,,,,,708.5549325999891,708.5706715999986,709.0550432000018,,,,,,,,,,,,,,709.119028199988,,,,,,,,,,709.1157136999973,709.119028199988,709.119028199988,709.119028199988,712.0709025999968,shoe,j,1.9741573999926914,0.1196440000057919,712.0709713999968,712.0709970999887,None,,,,,,,,,,,,,,00058,001,2026-01-19_15h01.44.304,MST_task,2024.2.0,60.02757666556457,2026-01-19 15h02.22.297298 +0530,
,Objects\260a.jpg,150,0,151,,,,,,,f,1.6106494999985443,0.15219079999951646,None,,,,,,151,0,150,712.0877051999996,,,,,,,,,,,,,,,,,,,,,,,712.0711640999943,712.0877051999996,712.571733299992,,,,,,,,,,,,,,712.6179066999903,,,,,,,,,,712.6144021999935,712.6179066999903,712.6179066999903,712.6179066999903,715.5712589999894,shoe,f,1.6106494999985443,0.15219079999951646,715.5714307000017,715.5714797999972,None,,,,,,,,,,,,,,00058,001,2026-01-19_15h01.44.304,MST_task,2024.2.0,60.02757666556457,2026-01-19 15h02.22.297298 +0530,
,Objects\227a.jpg,151,0,152,,,,,,,f,0.7033458999940194,0.15946460000122897,None,,,,,,152,0,151,715.587707499988,,,,,,,,,,,,,,,,,,,,,,,715.5716815999913,715.587707499988,716.0716421999969,,,,,,,,,,,,,,716.149811899988,,,,,,,,,,716.1470502000011,716.149811899988,716.149811899988,716.149811899988,719.0717452999961,shoe,f,0.7033458999940194,0.15946460000122897,719.071836099989,719.0718734999973,None,,,,,,,,,,,,,,00058,001,2026-01-19_15h01.44.304,MST_task,2024.2.0,60.02757666556457,2026-01-19 15h02.22.297298 +0530,
,Objects\010a.jpg,152,0,153,,,,,,,j,1.5351552999927662,0.15215540000644978,None,,,,,,153,0,152,719.0872348999983,,,,,,,,,,,,,,,,,,,,,,,719.0720349999901,719.0872348999983,719.5717919999879,,,,,,,,,,,,,,719.6053086999891,,,,,,,,,,719.6024850999966,719.6053086999891,719.6053086999891,719.6053086999891,722.5880028999964,shoe,j,1.5351552999927662,0.15215540000644978,722.5881725999934,722.5882149999961,None,,,,,,,,,,,,,,00058,001,2026-01-19_15h01.44.304,MST_task,2024.2.0,60.02757666556457,2026-01-19 15h02.22.297298 +0530,
,Objects\239a.jpg,153,0,154,,,,,,,j,1.4418048999941675,0.14548760000616312,None,,,,,,154,0,153,722.6039612000022,,,,,,,,,,,,,,,,,,,,,,,722.5883945999958,722.6039612000022,723.0883676999947,,,,,,,,,,,,,,723.1302091999969,,,,,,,,,,723.1264840999938,723.1302091999969,723.1302091999969,723.1302091999969,726.1044975999976,shoe,j,1.4418048999941675,0.14548760000616312,726.1046825999947,726.1047300999926,None,,,,,,,,,,,,,,00058,001,2026-01-19_15h01.44.304,MST_task,2024.2.0,60.02757666556457,2026-01-19 15h02.22.297298 +0530,
,Objects\108a.jpg,154,0,155,,,,,,,j,1.5027778000076069,0.1607201000006171,None,,,,,,155,0,154,726.1205723999883,,,,,,,,,,,,,,,,,,,,,,,726.1049354999996,726.1205723999883,726.605140899992,,,,,,,,,,,,,,726.645125199997,,,,,,,,,,726.6421402999986,726.645125199997,726.645125199997,726.645125199997,729.6211101999943,indoor,j,1.5027778000076069,0.1607201000006171,729.6246616999997,729.6246932999929,None,,,,,,,,,,,,,,00058,001,2026-01-19_15h01.44.304,MST_task,2024.2.0,60.02757666556457,2026-01-19 15h02.22.297298 +0530,
,Objects\128a.jpg,155,0,156,,,,,,,j,2.4904437999939546,0.1184233999956632,None,,,,,,156,0,155,729.6371976999944,,,,,,,,,,,,,,,,,,,,,,,729.6248120999953,729.6371976999944,730.1216765999998,,,,,,,,,,,,,,730.1631801999902,,,,,,,,,,730.1599196999887,730.1631801999902,730.1631801999902,730.1631801999902,733.137690699994,indoor,j,2.4904437999939546,0.1184233999956632,733.1378701999929,733.1379427999927,None,,,,,,,,,,,,,,00058,001,2026-01-19_15h01.44.304,MST_task,2024.2.0,60.02757666556457,2026-01-19 15h02.22.297298 +0530,
,Objects\189a.jpg,156,0,157,,,,,,,None,,,f,0.5417422999889823,None,,,,157,0,156,733.1539341999887,,,,,,,,,,,,,,,,,,,,,,,733.138168599995,733.1539341999887,733.6384049999906,,,,,,,,,,,,,,733.6896532999963,,,,,,,,,,733.6859229999973,733.6896532999963,733.6896532999963,733.6896532999963,736.6544999999896,indoor,None,,,736.6546380999935,737.2227990999963,f,736.6709178000019,736.6709178000019,0.5417422999889823,None,,,,,,,,,,00058,001,2026-01-19_15h01.44.304,MST_task,2024.2.0,60.02757666556457,2026-01-19 15h02.22.297298 +0530,
,Objects\362a.jpg,157,0,158,,,,,,,j,2.536694399997941,0.15914210000482854,None,,,,,,158,0,157,737.2373523999995,,,,,,,,,,,,,,,,,,,,,,,737.2231511999998,737.2373523999995,737.7225622999977,,,,,,,,,,,,,,737.7484913999942,,,,,,,,,,737.7439154999884,737.7484913999942,737.7484913999942,737.7484913999942,740.7377205999946,indoor,j,2.536694399997941,0.15914210000482854,740.7378246000007,740.737867399992,None,,,,,,,,,,,,,,00058,001,2026-01-19_15h01.44.304,MST_task,2024.2.0,60.02757666556457,2026-01-19 15h02.22.297298 +0530,
,Objects\382a.jpg,158,0,159,,,,,,,j,2.0404718999925535,0.12730020000890363,None,,,,,,159,0,158,740.7539909999905,,,,,,,,,,,,,,,,,,,,,,,740.7380478999985,740.7539909999905,741.2382268999936,,,,,,,,,,,,,,,,,,,,,,,,741.2579217999883,741.2608119999932,741.2608119999932,741.2608119999932,744.2545154999971,indoor,j,2.0404718999925535,0.12730020000890363,744.2546447999921,744.2546939000022,None,,,,,,,,,,,,,,00058,001,2026-01-19_15h01.44.304,MST_task,2024.2.0,60.02757666556457,2026-01-19 15h02.22.297298 +0530,
,Objects\136a.jpg,159,0,160,,,,,,,None,,,f,0.15349460000288673,None,,,,160,0,159,744.2706464999937,,,,,,,,,,,,,,,,,,,,,,,744.2549883999891,744.2706464999937,744.7552966999938,,,,,,,,,,,,,,744.7963750999916,,,,,,,,,,744.7919447000022,744.7963750999916,744.7963750999916,744.7963750999916,747.770949599988,indoor,None,,,747.7710716000001,747.9557667999907,f,747.7872789999965,747.7872789999965,0.15349460000288673,None,,,,,,,,,,00058,001,2026-01-19_15h01.44.304,MST_task,2024.2.0,60.02757666556457,2026-01-19 15h02.22.297298 +0530,
,Objects\235a.jpg,160,0,161,,,,,,,f,1.0773910000134492,0.16733459998795297,None,,,,,,161,0,160,747.9707417999889,,,,,,,,,,,,,,,,,,,,,,,747.955985099994,747.9707417999889,748.4550720999978,,,,,,,,,,,,,,748.4955096999911,,,,,,,,,,748.4912341000017,748.4955096999911,748.4955096999911,748.4955096999911,751.4712085999927,indoor,f,1.0773910000134492,0.16733459998795297,751.4713927999983,751.4714651999966,None,,,,,,,,,,,,,,00058,001,2026-01-19_15h01.44.304,MST_task,2024.2.0,60.02757666556457,2026-01-19 15h02.22.297298 +0530,
,Objects\267a.jpg,161,0,162,,,,,,,j,0.9847888000076637,0.15119649999542162,None,,,,,,162,0,161,751.487421999991,,,,,,,,,,,,,,,,,,,,,,,751.471775500002,751.487421999991,751.9717025999998,,,,,,,,,,,,,,,,,,,,,,,,752.0253284999926,752.0281915999949,752.0281915999949,752.0281915999949,754.9878985999967,shoe,j,0.9847888000076637,0.15119649999542162,754.9930744000012,754.993095999991,None,,,,,,,,,,,,,,00058,001,2026-01-19_15h01.44.304,MST_task,2024.2.0,60.02757666556457,2026-01-19 15h02.22.297298 +0530,
,Objects\366a.jpg,162,0,163,,,,,,,f,1.470164999991539,0.13612340000690892,None,,,,,,163,0,162,755.0042248999962,,,,,,,,,,,,,,,,,,,,,,,754.9932359999948,755.0042248999962,755.488654899993,,,,,,,,,,,,,,755.5340660999937,,,,,,,,,,755.5306606999948,755.5340660999937,755.5340660999937,755.5340660999937,758.5042614999984,shoe,f,1.470164999991539,0.13612340000690892,758.50438079999,758.5044289999933,None,,,,,,,,,,,,,,00058,001,2026-01-19_15h01.44.304,MST_task,2024.2.0,60.02757666556457,2026-01-19 15h02.22.297298 +0530,
,Objects\011a.jpg,163,0,164,,,,,,,f,2.0026225999899907,0.20790429999760818,None,,,,,,164,0,163,758.520724099988,,,,,,,,,,,,,,,,,,,,,,,758.5046409999923,758.520724099988,759.0050495999894,,,,,,,,,,,,,,759.0263639999903,,,,,,,,,,759.0234139999957,759.0263639999903,759.0263639999903,759.0263639999903,762.005531399991,shoe,f,2.0026225999899907,0.20790429999760818,762.0056611999898,762.005736799998,None,,,,,,,,,,,,,,00058,001,2026-01-19_15h01.44.304,MST_task,2024.2.0,60.02757666556457,2026-01-19 15h02.22.297298 +0530,
,Objects\054a.jpg,164,0,165,,,,,,,j,1.59262189999572,0.18334580000373535,None,,,,,,165,0,164,762.0207159999991,,,,,,,,,,,,,,,,,,,,,,,762.006043699992,762.0207159999991,762.5051412999892,,,,,,,,,,,,,,762.5560360999953,,,,,,,,,,762.5531150999886,762.5560360999953,762.5560360999953,762.5560360999953,765.5211123999907,shoe,j,1.59262189999572,0.18334580000373535,765.5212972000008,765.5213687999931,None,,,,,,,,,,,,,,00058,001,2026-01-19_15h01.44.304,MST_task,2024.2.0,60.02757666556457,2026-01-19 15h02.22.297298 +0530,
,Objects\197a.jpg,165,0,166,,,,,,,j,2.417054999998072,0.17632310000772122,None,,,,,,166,0,165,765.5374148999981,,,,,,,,,,,,,,,,,,,,,,,765.5217871999921,765.5374148999981,766.0221596999909,,,,,,,,,,,,,,766.0672077999916,,,,,,,,,,766.0639721999905,766.0672077999916,766.0672077999916,766.0672077999916,769.0220097999991,shoe,j,2.417054999998072,0.17632310000772122,769.0221770999924,769.022249799993,None,,,,,,,,,,,,,,00058,001,2026-01-19_15h01.44.304,MST_task,2024.2.0,60.02757666556457,2026-01-19 15h02.22.297298 +0530,
,Objects\022a.jpg,166,0,167,,,,,,,j,2.888296699995408,None,None,,,,,,167,0,166,769.0372853000008,,,,,,,,,,,,,,,,,,,,,,,769.0226168999943,769.0372853000008,769.5218467999948,,,,,,,,,,,,,,769.5568721000018,,,,,,,,,,769.5536564999929,769.5568721000018,769.5568721000018,769.5568721000018,772.5377823999879,shoe,j,2.888296699995408,None,772.5379469999898,772.538017599989,None,,,,,,,,,,,,,,00058,001,2026-01-19_15h01.44.304,MST_task,2024.2.0,60.02757666556457,2026-01-19 15h02.22.297298 +0530,
,Objects\065a.jpg,167,0,168,,,,,,,j,2.438017200009199,0.16802379999717232,None,,,,,,168,0,167,772.5545083999896,,,,,,,,,,,,,,,,,,,,,,,772.5383237999922,772.5545083999896,773.0383375999954,,,,,,,,,,,,,,773.0709561999975,,,,,,,,,,773.0677205999964,773.0709561999975,773.0709561999975,773.0709561999975,776.0544802999939,shoe,j,2.438017200009199,0.16802379999717232,776.0546863999916,776.0547648999927,None,,,,,,,,,,,,,,00058,001,2026-01-19_15h01.44.304,MST_task,2024.2.0,60.02757666556457,2026-01-19 15h02.22.297298 +0530,
,Objects\269a.jpg,168,0,169,,,,,,,None,,,j,1.8412949000048684,None,,,,169,0,168,776.0706499999942,,,,,,,,,,,,,,,,,,,,,,,776.0552117999905,776.0706499999942,776.5551366,,,,,,,,,,,,,,776.5960860999912,,,,,,,,,,776.5926456999878,776.5960860999912,776.5960860999912,776.5960860999912,779.5715706999908,indoor,None,,,779.5766953999992,781.4394363999891,j,779.587600400002,779.587600400002,1.8412949000048684,None,,,,,,,,,,00058,001,2026-01-19_15h01.44.304,MST_task,2024.2.0,60.02757666556457,2026-01-19 15h02.22.297298 +0530,
,Objects\018a.jpg,169,0,170,,,,,,,j,1.396861799992621,0.2157017999998061,None,,,,,,170,0,169,781.4540865999879,,,,,,,,,,,,,,,,,,,,,,,781.4398355000012,781.4540865999879,781.9386434999906,,,,,,,,,,,,,,781.9592445000017,,,,,,,,,,781.9557632999931,781.9592445000017,781.9592445000017,781.9592445000017,784.9544287999888,indoor,j,1.396861799992621,0.2157017999998061,784.9545979999966,784.9546799999953,None,,,,,,,,,,,,,,00058,001,2026-01-19_15h01.44.304,MST_task,2024.2.0,60.02757666556457,2026-01-19 15h02.22.297298 +0530,
,Objects\196a.jpg,170,0,171,,,,,,,None,,,f,1.1256731000030413,None,,,,171,0,170,784.9706095000001,,,,,,,,,,,,,,,,,,,,,,,784.955000899994,784.9706095000001,785.4551947,,,,,,,,,,,,,,785.5183945999888,,,,,,,,,,785.5153680999938,785.5183945999888,785.5183945999888,785.5183945999888,788.4711593999964,indoor,None,,,788.4713050999999,789.6220467999956,f,788.487395499993,788.487395499993,1.1256731000030413,None,,,,,,,,,,00058,001,2026-01-19_15h01.44.304,MST_task,2024.2.0,60.02757666556457,2026-01-19 15h02.22.297298 +0530,
,Objects\152a.jpg,171,0,172,,,,,,,f,1.6069267999992007,0.20697679999284446,None,,,,,,172,0,171,789.6373110999994,,,,,,,,,,,,,,,,,,,,,,,789.6223351999943,789.6373110999994,790.1218204999896,,,,,,,,,,,,,,790.1418623999925,,,,,,,,,,790.1391665999981,790.1418623999925,790.1418623999925,790.1418623999925,793.138386599996,indoor,f,1.6069267999992007,0.20697679999284446,793.138580400002,793.1386507999996,None,,,,,,,,,,,,,,00058,001,2026-01-19_15h01.44.304,MST_task,2024.2.0,60.02757666556457,2026-01-19 15h02.22.297298 +0530,
,Objects\333a.jpg,172,0,173,,,,,,,f,1.5142286000045715,0.18427519999386277,None,,,,,,173,0,172,793.1538193000015,,,,,,,,,,,,,,,,,,,,,,,793.1388832999946,793.1538193000015,793.6376669000019,,,,,,,,,,,,,,793.657810699995,,,,,,,,,,793.6548232999921,793.657810699995,793.657810699995,793.657810699995,796.6539616999944,indoor,f,1.5142286000045715,0.18427519999386277,796.6540875999926,796.6541423000017,None,,,,,,,,,,,,,,00058,001,2026-01-19_15h01.44.304,MST_task,2024.2.0,60.02757666556457,2026-01-19 15h02.22.297298 +0530,
,Objects\321a.jpg,173,0,174,,,,,,,j,1.2334216000017477,0.1685760999971535,None,,,,,,174,0,173,796.6703349000018,,,,,,,,,,,,,,,,,,,,,,,796.6543770999997,796.6703349000018,797.1546885999996,,,,,,,,,,,,,,,,,,,,,,,,797.1755555999989,797.1786007999908,797.1786007999908,797.1786007999908,800.1710626999993,indoor,j,1.2334216000017477,0.1685760999971535,800.1712293000019,800.1712996999995,None,,,,,,,,,,,,,,00058,001,2026-01-19_15h01.44.304,MST_task,2024.2.0,60.02757666556457,2026-01-19 15h02.22.297298 +0530,
,Objects\103a.jpg,174,0,175,,,,,,,j,1.4684173999994528,0.1686797000002116,None,,,,,,175,0,174,800.1873699999996,,,,,,,,,,,,,,,,,,,,,,,800.1716127999971,800.1873699999996,800.6719943999924,,,,,,,,,,,,,,800.7197293999925,,,,,,,,,,800.7165617999999,800.7197293999925,800.7197293999925,800.7197293999925,803.6877332000004,indoor,j,1.4684173999994528,0.1686797000002116,803.6878647999984,803.6879188000021,None,,,,,,,,,,,,,,00058,001,2026-01-19_15h01.44.304,MST_task,2024.2.0,60.02757666556457,2026-01-19 15h02.22.297298 +0530,
,Objects\317a.jpg,175,0,176,,,,,,,j,1.559517000001506,0.14299159999063704,None,,,,,,176,0,175,803.7041942999931,,,,,,,,,,,,,,,,,,,,,,,803.6881472999958,803.7041942999931,804.1885280999995,,,,,,,,,,,,,,804.2377942000021,,,,,,,,,,804.2344541999919,804.2377942000021,804.2377942000021,804.2377942000021,807.2044107999973,shoe,j,1.559517000001506,0.14299159999063704,807.2098379999952,807.2098839999962,None,,,,,,,,,,,,,,00058,001,2026-01-19_15h01.44.304,MST_task,2024.2.0,60.02757666556457,2026-01-19 15h02.22.297298 +0530,
