Sl_no,image_path,thisN,thisTrialN,thisRepN,key_resp_5.keys,key_resp_7.keys,key_resp_7.rt,key_resp_7.duration,key_resp_5.rt,key_resp_5.duration,key_resp_9.keys,key_resp_8.keys,key_resp_8.rt,key_resp_8.duration,key_resp_9.rt,key_resp_9.duration,practice.thisRepN,practice.thisTrialN,practice.thisN,trials.thisRepN,trials.thisTrialN,trials.thisN,thisRow.t,notes,welcome_page.started,text.started,key_resp.started,welcome_page.stopped,key_resp.keys,key_resp.rt,key_resp.duration,instructions.started,ins.started,key_resp_2.started,instructions.stopped,key_resp_2.keys,key_resp_2.rt,key_resp_2.duration,objects_only_instruction.started,text_3.started,key_resp_3.started,objects_only_instruction.stopped,key_resp_3.keys,key_resp_3.rt,key_resp_3.duration,ISI.started,text_4.started,text_4.stopped,ISI.stopped,practice_block.started,image.started,key_resp_5.started,text_5.started,image.stopped,key_resp_5.stopped,text_5.stopped,practice_block.stopped,practice.key_resp_5.keys,indoor_outdoor.started,text_7.started,key_resp_7.started,indoor_outdoor.stopped,practice.key_resp_7.keys,practice.key_resp_7.rt,practice.key_resp_7.duration,practice.key_resp_5.rt,practice.key_resp_5.duration,practice_to_main.started,text_2.started,key_resp_4.started,practice_to_main.stopped,key_resp_4.keys,key_resp_4.rt,key_resp_4.duration,objects.started,image_2.started,text_9.started,key_resp_9.started,image_2.stopped,text_9.stopped,key_resp_9.stopped,objects.stopped,category,trials.key_resp_9.keys,encoding_task.started,text_8.started,key_resp_8.started,encoding_task.stopped,trials.key_resp_8.keys,trials.key_resp_8.rt,trials.key_resp_8.duration,trials.key_resp_9.rt,trials.key_resp_9.duration,end_experiment.started,text_6.started,key_resp_6.started,end_experiment.stopped,key_resp_6.keys,key_resp_6.rt,key_resp_6.duration,list_of_stimuli,encoding_task_accuracy,participant,session,date,expName,psychopyVersion,frameRate,expStart,
,,,,,,,,,,,,,,,,,,,,,,,,,0.0011230999953113496,0.002668999950401485,0.002668999950401485,23.57416579994606,space,23.556710299977567,None,,,,,,,,,,,,,,,,,,,,,,,,,,,,,,,,,,,,,,,,,,,,,,,,,,,,,,,,,,,,,,,,,,,,,,,,00055,001,2026-01-18_21h39.30.446,MST_task,2024.2.0,59.96257135718122,2026-01-18 21h39.51.986785 +0530,
,,,,,,,,,,,,,,,,,,,,,,,,,,,,,,,,23.574198099959176,23.589326999965124,23.589326999965124,59.82261169998674,space,36.225339199998416,None,,,,,,,,,,,,,,,,,,,,,,,,,,,,,,,,,,,,,,,,,,,,,,,,,,,,,,,,,,,,,,,,,00055,001,2026-01-18_21h39.30.446,MST_task,2024.2.0,59.96257135718122,2026-01-18 21h39.51.986785 +0530,
,,,,,,,,,,,,,,,,,,,,,,,,,,,,,,,,,,,,,,,59.82269419997465,59.838880499999505,59.838880499999505,65.50615279999329,space,5.663268900010735,None,,,,,,,,,,,,,,,,,,,,,,,,,,,,,,,,,,,,,,,,,,,,,,,,,,,,,,,,,,00055,001,2026-01-18_21h39.30.446,MST_task,2024.2.0,59.96257135718122,2026-01-18 21h39.51.986785 +0530,
3,practice_images/037a.jpg,0,0,1,None,f,0.456962600001134,None,,,,,,,,,1,0,0,,,,65.52221099997405,,,,,,,,,,,,,,,,,,,,,,,65.5101769999601,65.52221099997405,66.02253639994888,66.00580339995213,66.01189049996901,66.02253639994888,66.02253639994888,66.02253639994888,69.02230829995824,69.02230829995824,69.02230829995824,69.00596929999301,None,69.00750829995377,69.02230829995824,69.02230829995824,69.48946549999528,f,0.456962600001134,None,,,,,,,,,,,,,,,,,,,,,,,,,,,,,,,,,,,,,,00055,001,2026-01-18_21h39.30.446,MST_task,2024.2.0,59.96257135718122,2026-01-18 21h39.51.986785 +0530,
5,practice_images/139a.jpg,1,1,1,None,f,1.2576725000399165,None,,,,,,,,,1,1,1,,,,69.50550969998585,,,,,,,,,,,,,,,,,,,,,,,69.48955199995544,69.50550969998585,70.00586339994334,69.9891859999625,69.99063929996919,70.00586339994334,70.00586339994334,70.00586339994334,73.00554739998188,73.00554739998188,73.00554739998188,72.98939099995187,None,72.98942889994942,73.00554739998188,73.00554739998188,74.27267419995042,f,1.2576725000399165,None,,,,,,,,,,,,,,,,,,,,,,,,,,,,,,,,,,,,,,00055,001,2026-01-18_21h39.30.446,MST_task,2024.2.0,59.96257135718122,2026-01-18 21h39.51.986785 +0530,
8,practice_images/178a.jpg,2,2,1,j,None,,,1.6185663999640383,0.10250450001331046,,,,,,,1,2,2,,,,74.28895219997503,,,,,,,,,,,,,,,,,,,,,,,74.27276199997868,74.28895219997503,74.78918519994477,74.77259059995413,74.77412589994492,74.78918519994477,74.78918519994477,74.78918519994477,77.78891259996453,77.78891259996453,77.78891259996453,77.77277699997649,j,77.77281249995576,,,77.77282469999045,None,,,1.6185663999640383,0.10250450001331046,,,,,,,,,,,,,,,,,,,,,,,,,,,,,,,,,,,,00055,001,2026-01-18_21h39.30.446,MST_task,2024.2.0,59.96257135718122,2026-01-18 21h39.51.986785 +0530,
6,practice_images/158a.jpg,3,3,1,j,None,,,1.093022299988661,0.09601229999680072,,,,,,,1,3,3,,,,77.78891259996453,,,,,,,,,,,,,,,,,,,,,,,77.77288529998623,77.78891259996453,78.2891775999451,78.27264159999322,78.27401859994279,78.2891775999451,78.2891775999451,78.2891775999451,81.28888079995522,81.28888079995522,81.28888079995522,81.27252949995454,j,81.2725673999521,,,81.2725792999845,None,,,1.093022299988661,0.09601229999680072,,,,,,,,,,,,,,,,,,,,,,,,,,,,,,,,,,,,00055,001,2026-01-18_21h39.30.446,MST_task,2024.2.0,59.96257135718122,2026-01-18 21h39.51.986785 +0530,
10,practice_images/182a.jpg,4,4,1,None,f,3.9056895000394434,None,,,,,,,,,1,4,4,,,,81.28888079995522,,,,,,,,,,,,,,,,,,,,,,,81.27266019996023,81.28888079995522,81.78906759998063,81.77244849997805,81.77391079999506,81.78906759998063,81.78906759998063,81.78906759998063,84.7888955999515,84.7888955999515,84.7888955999515,84.77250649995403,None,84.7725383999641,84.7888955999515,84.7888955999515,88.70604489999823,f,3.9056895000394434,None,,,,,,,,,,,,,,,,,,,,,,,,,,,,,,,,,,,,,,00055,001,2026-01-18_21h39.30.446,MST_task,2024.2.0,59.96257135718122,2026-01-18 21h39.51.986785 +0530,
9,practice_images/180a.jpg,5,5,1,j,None,,,2.6017546000075527,0.10208099998999387,,,,,,,1,5,5,,,,88.72216109995497,,,,,,,,,,,,,,,,,,,,,,,88.70612759998767,88.72216109995497,89.22241099999519,89.20601119997445,89.2107863999554,89.22241099999519,89.22241099999519,89.22241099999519,,,,92.20674759999383,j,92.20886269997573,,,92.20888099999866,None,,,2.6017546000075527,0.10208099998999387,,,,,,,,,,,,,,,,,,,,,,,,,,,,,,,,,,,,00055,001,2026-01-18_21h39.30.446,MST_task,2024.2.0,59.96257135718122,2026-01-18 21h39.51.986785 +0530,
2,practice_images/031a.jpg,6,6,1,None,f,0.684478500043042,None,,,,,,,,,1,6,6,,,,92.22207579994574,,,,,,,,,,,,,,,,,,,,,,,92.20894769998267,92.22207579994574,92.72235669998918,92.7057978999801,92.70716789999278,92.72235669998918,92.72235669998918,92.72235669998918,95.7221436999971,95.7221436999971,95.7221436999971,95.70595499995397,None,95.70598709996557,95.7221436999971,95.7221436999971,96.42263049999019,f,0.684478500043042,None,,,,,,,,,,,,,,,,,,,,,,,,,,,,,,,,,,,,,,00055,001,2026-01-18_21h39.30.446,MST_task,2024.2.0,59.96257135718122,2026-01-18 21h39.51.986785 +0530,
1,practice_images/013a.jpg,7,7,1,j,None,,,1.4277931000106037,0.11218749999534339,,,,,,,1,7,7,,,,96.43884569994407,,,,,,,,,,,,,,,,,,,,,,,96.42271629994502,96.43884569994407,96.93921599996975,96.9225067999796,96.92407909996109,96.93921599996975,96.93921599996975,96.93921599996975,99.93891149997944,99.93891149997944,99.93891149997944,99.92265979998047,j,99.92269869998563,,,99.92271229997277,None,,,1.4277931000106037,0.11218749999534339,,,,,,,,,,,,,,,,,,,,,,,,,,,,,,,,,,,,00055,001,2026-01-18_21h39.30.446,MST_task,2024.2.0,59.96257135718122,2026-01-18 21h39.51.986785 +0530,
4,practice_images/002b.jpg,8,8,1,None,j,0.9520032000145875,None,,,,,,,,,1,8,8,,,,99.93891149997944,,,,,,,,,,,,,,,,,,,,,,,99.9227750999853,99.93891149997944,100.43919259996619,100.4223168999888,100.42387229995802,100.43919259996619,100.43919259996619,100.43919259996619,103.43905619997531,103.43905619997531,103.43905619997531,103.42291129997466,None,103.4229499999783,103.43905619997531,103.43905619997531,104.40653499995824,j,0.9520032000145875,None,,,,,,,,,,,,,,,,,,,,,,,,,,,,,,,,,,,,,,00055,001,2026-01-18_21h39.30.446,MST_task,2024.2.0,59.96257135718122,2026-01-18 21h39.51.986785 +0530,
7,practice_images/166a.jpg,9,9,1,None,j,1.9961677999817766,None,,,,,,,,,1,9,9,,,,104.42210259998683,,,,,,,,,,,,,,,,,,,,,,,104.40661519998685,104.42210259998683,104.92232989997137,104.90578679996543,104.90772739995737,104.92232989997137,104.92232989997137,104.92232989997137,107.92224709998118,107.92224709998118,107.92224709998118,107.90630729997065,None,107.90634759998647,107.92224709998118,107.92224709998118,109.92256300000008,j,1.9961677999817766,None,,,,,,,,,,,,,,,,,,,,,,,,,,,,,,,,,,,,,,00055,001,2026-01-18_21h39.30.446,MST_task,2024.2.0,59.96257135718122,2026-01-18 21h39.51.986785 +0530,
,,,,,,,,,,,,,,,,,,,,,,,,,,,,,,,,,,,,,,,,,,,,,,,,,,,,,,,,,,,,,,,,,,,,109.92262549995212,109.939009899972,109.939009899972,157.4396864999435,space,47.48409890005132,None,,,,,,,,,,,,,,,,,,,,,,,,,,,,,00055,001,2026-01-18_21h39.30.446,MST_task,2024.2.0,59.96257135718122,2026-01-18 21h39.51.986785 +0530,
,Objects\006a.jpg,0,0,1,,,,,,,None,j,2.8507226999499835,None,,,,,,1,0,0,157.45571339997696,,,,,,,,,,,,,,,,,,,,,,,157.44037139997818,157.45571339997696,157.95631159999175,157.93926019995706,,,,,,,,,,,,,,,,,,,,,,,,,,157.95338359999005,157.95631159999175,157.95631159999175,157.95631159999175,160.95578579994617,160.95578579994617,160.95578579994617,160.93961439997656,shoe,None,160.94174509996083,160.95578579994617,160.95578579994617,163.8227372999536,j,2.8507226999499835,None,,,,,,,,,,,,00055,001,2026-01-18_21h39.30.446,MST_task,2024.2.0,59.96257135718122,2026-01-18 21h39.51.986785 +0530,
,Objects\285a.jpg,1,0,2,,,,,,,j,None,,,2.227436100016348,0.12000189995160326,,,,2,0,1,163.83907929999987,,,,,,,,,,,,,,,,,,,,,,,163.82282389997272,163.83907929999987,164.33925919997273,164.32261239999207,,,,,,,,,,,,,,,,,,,,,,,,,,164.3259425999713,164.33925919997273,164.33925919997273,164.33925919997273,167.3390087999869,167.3390087999869,167.3390087999869,167.32279739994556,shoe,j,167.32283979997737,,,167.32285279995995,None,,,2.227436100016348,0.12000189995160326,,,,,,,,,,00055,001,2026-01-18_21h39.30.446,MST_task,2024.2.0,59.96257135718122,2026-01-18 21h39.51.986785 +0530,
,Objects\288a.jpg,2,0,3,,,,,,,f,None,,,2.951355999975931,None,,,,3,0,2,167.3390087999869,,,,,,,,,,,,,,,,,,,,,,,167.3229191999999,167.3390087999869,167.83943719998933,167.82260619994486,,,,,,,,,,,,,,,,,,,,,,,,,,167.82625679997727,167.83943719998933,167.83943719998933,167.83943719998933,170.8389622999821,170.8389622999821,170.8389622999821,170.82294029998593,shoe,f,170.82298269995954,,,170.82299529999727,None,,,2.951355999975931,None,,,,,,,,,,00055,001,2026-01-18_21h39.30.446,MST_task,2024.2.0,59.96257135718122,2026-01-18 21h39.51.986785 +0530,
,Objects\368a.jpg,3,0,4,,,,,,,f,None,,,1.8365504000103101,0.08699669997440651,,,,4,0,3,170.8389622999821,,,,,,,,,,,,,,,,,,,,,,,170.82305789995007,170.8389622999821,171.33940479997545,171.32257419999223,,,,,,,,,,,,,,,,,,,,,,,,,,171.325727599964,171.33940479997545,171.33940479997545,171.33940479997545,174.33888829994248,174.33888829994248,174.33888829994248,174.3227519999491,shoe,f,174.322795199987,,,174.32280729996273,None,,,1.8365504000103101,0.08699669997440651,,,,,,,,,,00055,001,2026-01-18_21h39.30.446,MST_task,2024.2.0,59.96257135718122,2026-01-18 21h39.51.986785 +0530,
,Objects\324a.jpg,4,0,5,,,,,,,f,None,,,2.926786700030789,None,,,,5,0,4,174.33888829994248,,,,,,,,,,,,,,,,,,,,,,,174.32287279999582,174.33888829994248,174.83946269995067,174.82260289997794,,,,,,,,,,,,,,,,,,,,,,,,,,174.82659559999593,174.83946269995067,174.83946269995067,174.83946269995067,177.83908889995655,177.83908889995655,177.83908889995655,177.82277799997246,shoe,f,177.82282069994835,,,177.82283289998304,None,,,2.926786700030789,None,,,,,,,,,,00055,001,2026-01-18_21h39.30.446,MST_task,2024.2.0,59.96257135718122,2026-01-18 21h39.51.986785 +0530,
,Objects\269a.jpg,5,0,6,,,,,,,None,f,0.883865500043612,None,,,,,,6,0,5,177.83908889995655,,,,,,,,,,,,,,,,,,,,,,,177.8229224999668,177.83908889995655,178.33945709996624,178.32261989999097,,,,,,,,,,,,,,,,,,,,,,,,,,178.33259279996855,178.33945709996624,178.33945709996624,178.33945709996624,181.33905079995748,181.33905079995748,181.33905079995748,181.32276049995562,shoe,None,181.32279579999158,181.33905079995748,181.33905079995748,182.23938879999332,f,0.883865500043612,None,,,,,,,,,,,,00055,001,2026-01-18_21h39.30.446,MST_task,2024.2.0,59.96257135718122,2026-01-18 21h39.51.986785 +0530,
,Objects\148a.jpg,6,0,7,,,,,,,None,j,0.6755186000373214,None,,,,,,7,0,6,182.25569729995914,,,,,,,,,,,,,,,,,,,,,,,182.23947639996186,182.25569729995914,182.75607219996164,182.73923499998637,,,,,,,,,,,,,,,,,,,,,,,,,,182.7425646999618,182.75607219996164,182.75607219996164,182.75607219996164,185.7557053999626,185.7557053999626,185.7557053999626,185.73948699998436,shoe,None,185.73952529998496,185.7557053999626,185.7557053999626,186.43941609998,j,0.6755186000373214,None,,,,,,,,,,,,00055,001,2026-01-18_21h39.30.446,MST_task,2024.2.0,59.96257135718122,2026-01-18 21h39.51.986785 +0530,
,Objects\034a.jpg,7,0,8,,,,,,,f,None,,,1.4424107000231743,0.08802059997105971,,,,8,0,7,186.45555239997339,,,,,,,,,,,,,,,,,,,,,,,186.43950599996606,186.45555239997339,186.9557836999884,186.93932509998558,,,,,,,,,,,,,,,,,,,,,,,,,,186.94463579996955,186.9557836999884,186.9557836999884,186.9557836999884,189.95570049999515,189.95570049999515,189.95570049999515,189.93959499994526,indoor,f,189.94128449994605,,,189.94130409997888,None,,,1.4424107000231743,0.08802059997105971,,,,,,,,,,00055,001,2026-01-18_21h39.30.446,MST_task,2024.2.0,59.96257135718122,2026-01-18 21h39.51.986785 +0530,
,Objects\374a.jpg,8,0,9,,,,,,,f,None,,,1.6870165999862365,0.09514470002613962,,,,9,0,8,189.95570049999515,,,,,,,,,,,,,,,,,,,,,,,189.94137489999412,189.95570049999515,190.456105499994,190.43921939999564,,,,,,,,,,,,,,,,,,,,,,,,,,190.44249839999247,190.456105499994,190.456105499994,190.456105499994,193.45570279995445,193.45570279995445,193.45570279995445,193.43961629999103,indoor,f,193.43965949997073,,,193.43967159994645,None,,,1.6870165999862365,0.09514470002613962,,,,,,,,,,00055,001,2026-01-18_21h39.30.446,MST_task,2024.2.0,59.96257135718122,2026-01-18 21h39.51.986785 +0530,
,Objects\051a.jpg,9,0,10,,,,,,,None,j,0.6678827000432648,None,,,,,,10,0,9,193.45570279995445,,,,,,,,,,,,,,,,,,,,,,,193.43973629997345,193.45570279995445,193.95598449994577,193.93945539998822,,,,,,,,,,,,,,,,,,,,,,,,,,193.94259729998885,193.95598449994577,193.95598449994577,193.95598449994577,196.95562639995478,196.95562639995478,196.95562639995478,196.93967209995026,indoor,None,196.9397099999478,196.95562639995478,196.95562639995478,197.63944189995527,j,0.6678827000432648,None,,,,,,,,,,,,00055,001,2026-01-18_21h39.30.446,MST_task,2024.2.0,59.96257135718122,2026-01-18 21h39.51.986785 +0530,
,Objects\073a.jpg,10,0,11,,,,,,,f,None,,,1.9142125999787822,0.08799690002342686,,,,11,0,10,197.65560819994425,,,,,,,,,,,,,,,,,,,,,,,197.63952919997973,197.65560819994425,198.15593209996587,198.13928849995136,,,,,,,,,,,,,,,,,,,,,,,,,,198.14942979998887,198.15593209996587,198.15593209996587,198.15593209996587,201.15568899997743,201.15568899997743,201.15568899997743,201.13962299999548,indoor,f,201.13966659997823,,,201.13967939995928,None,,,1.9142125999787822,0.08799690002342686,,,,,,,,,,00055,001,2026-01-18_21h39.30.446,MST_task,2024.2.0,59.96257135718122,2026-01-18 21h39.51.986785 +0530,
,Objects\263a.jpg,11,0,12,,,,,,,j,None,,,1.2864340000087395,0.08900400000857189,,,,12,0,11,201.15568899997743,,,,,,,,,,,,,,,,,,,,,,,201.13974549999693,201.15568899997743,201.65606259997003,201.63934449997032,,,,,,,,,,,,,,,,,,,,,,,,,,201.64246899995487,201.65606259997003,201.65606259997003,201.65606259997003,204.65559429995483,204.65559429995483,204.65559429995483,204.63941659999546,indoor,j,204.6394601999782,,,204.63947239995468,None,,,1.2864340000087395,0.08900400000857189,,,,,,,,,,00055,001,2026-01-18_21h39.30.446,MST_task,2024.2.0,59.96257135718122,2026-01-18 21h39.51.986785 +0530,
,Objects\001a.jpg,12,0,13,,,,,,,None,f,3.5789431000011973,None,,,,,,13,0,12,204.65559429995483,,,,,,,,,,,,,,,,,,,,,,,204.6395385999931,204.65559429995483,205.15600789996097,205.13922439998714,,,,,,,,,,,,,,,,,,,,,,,,,,205.14219379995484,205.15600789996097,205.15600789996097,205.15600789996097,208.15556689997902,208.15556689997902,208.15556689997902,208.13945129996864,indoor,None,208.13949419994606,208.15556689997902,208.15556689997902,211.7395696999738,f,3.5789431000011973,None,,,,,,,,,,,,00055,001,2026-01-18_21h39.30.446,MST_task,2024.2.0,59.96257135718122,2026-01-18 21h39.51.986785 +0530,
,Objects\120a.jpg,13,0,14,,,,,,,f,None,,,1.0632005000370555,0.07999169995309785,,,,14,0,13,211.7556908999686,,,,,,,,,,,,,,,,,,,,,,,211.7396620999789,211.7556908999686,212.2558189999545,212.23927849996835,,,,,,,,,,,,,,,,,,,,,,,,,,212.24180699995486,212.2558189999545,212.2558189999545,212.2558189999545,215.25559789995896,215.25559789995896,215.25559789995896,215.23946089996025,indoor,f,215.23950389999663,,,215.23951659997692,None,,,1.0632005000370555,0.07999169995309785,,,,,,,,,,00055,001,2026-01-18_21h39.30.446,MST_task,2024.2.0,59.96257135718122,2026-01-18 21h39.51.986785 +0530,
,Objects\295a.jpg,14,0,15,,,,,,,None,j,3.4507597000338137,None,,,,,,15,0,14,215.25559789995896,,,,,,,,,,,,,,,,,,,,,,,215.239581599948,215.25559789995896,215.7559475999442,215.73928619996877,,,,,,,,,,,,,,,,,,,,,,,,,,215.7449765999918,215.7559475999442,215.7559475999442,215.7559475999442,218.75561739999102,218.75561739999102,218.75561739999102,218.73957789997803,shoe,None,218.74182829994243,218.75561739999102,218.75561739999102,222.20714569999836,j,3.4507597000338137,None,,,,,,,,,,,,00055,001,2026-01-18_21h39.30.446,MST_task,2024.2.0,59.96257135718122,2026-01-18 21h39.51.986785 +0530,
,Objects\102a.jpg,15,0,16,,,,,,,f,None,,,2.763749399979133,0.07225339999422431,,,,16,0,15,222.22216939995997,,,,,,,,,,,,,,,,,,,,,,,222.20726649998687,222.22216939995997,222.72253149998141,222.70595739997225,,,,,,,,,,,,,,,,,,,,,,,,,,222.70946679997724,222.72253149998141,222.72253149998141,222.72253149998141,225.72209909994854,225.72209909994854,225.72209909994854,225.70635429996764,shoe,f,225.7063991999603,,,225.70641169999726,None,,,2.763749399979133,0.07225339999422431,,,,,,,,,,00055,001,2026-01-18_21h39.30.446,MST_task,2024.2.0,59.96257135718122,2026-01-18 21h39.51.986785 +0530,
,Objects\346a.jpg,16,0,17,,,,,,,j,None,,,1.3041786999674514,0.11999710003146902,,,,17,0,16,225.72209909994854,,,,,,,,,,,,,,,,,,,,,,,225.7064793999889,225.72209909994854,226.22267969994573,226.206280399987,,,,,,,,,,,,,,,,,,,,,,,,,,226.20978479995392,226.22267969994573,226.22267969994573,226.22267969994573,,,,229.20715219998965,shoe,j,229.20719479996478,,,229.20720710000023,None,,,1.3041786999674514,0.11999710003146902,,,,,,,,,,00055,001,2026-01-18_21h39.30.446,MST_task,2024.2.0,59.96257135718122,2026-01-18 21h39.51.986785 +0530,
,Objects\291a.jpg,17,0,18,,,,,,,f,None,,,2.4445020999992266,0.08800489996792749,,,,18,0,17,229.2220507999882,,,,,,,,,,,,,,,,,,,,,,,229.20731499994872,229.2220507999882,229.72265149996383,229.70597789995372,,,,,,,,,,,,,,,,,,,,,,,,,,229.70956669998122,229.72265149996383,229.72265149996383,229.72265149996383,232.72212679998484,232.72212679998484,232.72212679998484,232.70624509995105,shoe,f,232.70628719998058,,,232.7063000999624,None,,,2.4445020999992266,0.08800489996792749,,,,,,,,,,00055,001,2026-01-18_21h39.30.446,MST_task,2024.2.0,59.96257135718122,2026-01-18 21h39.51.986785 +0530,
,Objects\185a.jpg,18,0,19,,,,,,,None,f,1.6732388000236824,None,,,,,,19,0,18,232.72212679998484,,,,,,,,,,,,,,,,,,,,,,,232.70636419998482,232.72212679998484,,233.20672659995034,,,,,,,,,,,,,,,,,,,,,,,,,,233.2171039999812,233.22241229994688,233.22241229994688,233.22241229994688,,,,236.2071802999708,shoe,None,236.20722359995125,236.2222052999423,236.2222052999423,237.9061050999444,f,1.6732388000236824,None,,,,,,,,,,,,00055,001,2026-01-18_21h39.30.446,MST_task,2024.2.0,59.96257135718122,2026-01-18 21h39.51.986785 +0530,
,Objects\118a.jpg,19,0,20,,,,,,,f,None,,,1.4646122000413015,0.09597829997073859,,,,20,0,19,237.92214539996348,,,,,,,,,,,,,,,,,,,,,,,237.90623719996074,237.92214539996348,238.42243389994837,238.40588499995647,,,,,,,,,,,,,,,,,,,,,,,,,,238.40914919995703,238.42243389994837,238.42243389994837,238.42243389994837,241.42220909998287,241.42220909998287,241.42220909998287,241.40616969997063,shoe,f,241.4062106999918,,,241.40622329997132,None,,,1.4646122000413015,0.09597829997073859,,,,,,,,,,00055,001,2026-01-18_21h39.30.446,MST_task,2024.2.0,59.96257135718122,2026-01-18 21h39.51.986785 +0530,
,Objects\077a.jpg,20,0,21,,,,,,,j,None,,,1.3559754000161774,0.12098429998150095,,,,21,0,20,241.42220909998287,,,,,,,,,,,,,,,,,,,,,,,241.40628869994543,241.42220909998287,241.92236169998068,241.90576919994783,,,,,,,,,,,,,,,,,,,,,,,,,,241.9082980999956,241.92236169998068,241.92236169998068,241.92236169998068,244.92219489999115,244.92219489999115,244.92219489999115,244.90617479995126,shoe,j,244.9062351999455,,,244.906247899984,None,,,1.3559754000161774,0.12098429998150095,,,,,,,,,,00055,001,2026-01-18_21h39.30.446,MST_task,2024.2.0,59.96257135718122,2026-01-18 21h39.51.986785 +0530,
,Objects\209a.jpg,21,0,22,,,,,,,None,f,0.04023119999328628,None,,,,,,22,0,21,244.92219489999115,,,,,,,,,,,,,,,,,,,,,,,244.90635259996634,244.92219489999115,245.4224495999515,245.4058662999887,,,,,,,,,,,,,,,,,,,,,,,,,,245.4105489999638,245.4224495999515,245.4224495999515,245.4224495999515,248.4222146999673,248.4222146999673,248.4222146999673,248.40606519998983,indoor,None,248.40771999995923,248.4222146999673,248.4222146999673,248.47271999996156,f,0.04023119999328628,None,,,,,,,,,,,,00055,001,2026-01-18_21h39.30.446,MST_task,2024.2.0,59.96257135718122,2026-01-18 21h39.51.986785 +0530,
,Objects\230a.jpg,22,0,23,,,,,,,j,None,,,0.8582147000124678,0.11163850000593811,,,,23,0,22,248.48894919996383,,,,,,,,,,,,,,,,,,,,,,,248.47280119999778,248.48894919996383,248.98926919995574,248.97244469996076,,,,,,,,,,,,,,,,,,,,,,,,,,248.9825229999842,248.98926919995574,248.98926919995574,248.98926919995574,251.9889999999432,251.9889999999432,251.9889999999432,251.97268319997238,indoor,j,251.9727348999586,,,251.97274800000014,None,,,0.8582147000124678,0.11163850000593811,,,,,,,,,,00055,001,2026-01-18_21h39.30.446,MST_task,2024.2.0,59.96257135718122,2026-01-18 21h39.51.986785 +0530,
,Objects\173a.jpg,23,0,24,,,,,,,f,None,,,1.4930021000327542,0.10398939996957779,,,,24,0,23,251.9889999999432,,,,,,,,,,,,,,,,,,,,,,,251.9728142999811,251.9889999999432,252.48931289999746,252.47248689999105,,,,,,,,,,,,,,,,,,,,,,,,,,252.4833560999832,252.48931289999746,252.48931289999746,252.48931289999746,255.48894659994403,255.48894659994403,255.48894659994403,255.4728357999702,indoor,f,255.4728789999499,,,255.4728911999846,None,,,1.4930021000327542,0.10398939996957779,,,,,,,,,,00055,001,2026-01-18_21h39.30.446,MST_task,2024.2.0,59.96257135718122,2026-01-18 21h39.51.986785 +0530,
,Objects\279a.jpg,24,0,25,,,,,,,None,f,2.6345847999909893,None,,,,,,25,0,24,255.48894659994403,,,,,,,,,,,,,,,,,,,,,,,255.47295719996328,255.48894659994403,255.98915969999507,255.97237819997827,,,,,,,,,,,,,,,,,,,,,,,,,,255.97500310000032,255.98915969999507,255.98915969999507,255.98915969999507,258.98888269998133,258.98888269998133,258.98888269998133,258.9728813999682,indoor,None,258.97291869996116,258.98888269998133,258.98888269998133,261.6393626999925,f,2.6345847999909893,None,,,,,,,,,,,,00055,001,2026-01-18_21h39.30.446,MST_task,2024.2.0,59.96257135718122,2026-01-18 21h39.51.986785 +0530,
,Objects\286a.jpg,25,0,26,,,,,,,j,None,,,1.8030127999954857,0.07200169999850914,,,,26,0,25,261.65554279997014,,,,,,,,,,,,,,,,,,,,,,,261.63944919995265,261.65554279997014,262.15600229997654,262.1391116999439,,,,,,,,,,,,,,,,,,,,,,,,,,262.14183879998745,262.15600229997654,262.15600229997654,262.15600229997654,265.1557609999436,265.1557609999436,265.1557609999436,265.1397688999423,indoor,j,265.1398141999962,,,265.1398273999803,None,,,1.8030127999954857,0.07200169999850914,,,,,,,,,,00055,001,2026-01-18_21h39.30.446,MST_task,2024.2.0,59.96257135718122,2026-01-18 21h39.51.986785 +0530,
,Objects\315a.jpg,26,0,27,,,,,,,None,j,1.3987551999744028,None,,,,,,27,0,26,265.1557609999436,,,,,,,,,,,,,,,,,,,,,,,265.1398953999742,265.1557609999436,265.6560954999877,265.63931029994274,,,,,,,,,,,,,,,,,,,,,,,,,,265.64233219996095,265.6560954999877,265.6560954999877,265.6560954999877,268.65568509994773,268.65568509994773,268.65568509994773,268.6396047999733,indoor,None,268.63964139996096,268.65568509994773,268.65568509994773,270.055961999984,j,1.3987551999744028,None,,,,,,,,,,,,00055,001,2026-01-18_21h39.30.446,MST_task,2024.2.0,59.96257135718122,2026-01-18 21h39.51.986785 +0530,
,Objects\030a.jpg,27,0,28,,,,,,,f,None,,,1.4176413999521174,0.08884390001185238,,,,28,0,27,270.0721652999637,,,,,,,,,,,,,,,,,,,,,,,270.056051499967,270.0721652999637,270.57270449999487,270.55592919996707,,,,,,,,,,,,,,,,,,,,,,,,,,270.5591021999717,270.57270449999487,270.57270449999487,270.57270449999487,273.57238319999306,273.57238319999306,273.57238319999306,273.55621489998884,indoor,f,273.5562589999754,,,273.55627149995416,None,,,1.4176413999521174,0.08884390001185238,,,,,,,,,,00055,001,2026-01-18_21h39.30.446,MST_task,2024.2.0,59.96257135718122,2026-01-18 21h39.51.986785 +0530,
,Objects\191a.jpg,28,0,29,,,,,,,None,f,2.7899725000024773,None,,,,,,29,0,28,273.57238319999306,,,,,,,,,,,,,,,,,,,,,,,273.5563360999804,273.57238319999306,274.0724740999867,274.05596619995777,,,,,,,,,,,,,,,,,,,,,,,,,,274.06058139994275,274.0724740999867,274.0724740999867,274.0724740999867,277.072294899961,277.072294899961,277.072294899961,277.05629689997295,shoe,None,277.05860029999167,277.072294899961,277.072294899961,279.8726797999698,f,2.7899725000024773,None,,,,,,,,,,,,00055,001,2026-01-18_21h39.30.446,MST_task,2024.2.0,59.96257135718122,2026-01-18 21h39.51.986785 +0530,
,Objects\171a.jpg,29,0,30,,,,,,,j,None,,,1.1289181999745779,0.08811810001498088,,,,30,0,29,279.8890844999696,,,,,,,,,,,,,,,,,,,,,,,279.87280559999635,279.8890844999696,280.3892440999625,280.37307309999596,,,,,,,,,,,,,,,,,,,,,,,,,,280.37614939996274,280.3892440999625,280.3892440999625,280.3892440999625,283.38906499999575,283.38906499999575,283.38906499999575,283.37296269997023,shoe,j,283.3730041999952,,,283.373017099977,None,,,1.1289181999745779,0.08811810001498088,,,,,,,,,,00055,001,2026-01-18_21h39.30.446,MST_task,2024.2.0,59.96257135718122,2026-01-18 21h39.51.986785 +0530,
,Objects\360a.jpg,30,0,31,,,,,,,f,None,,,2.389594100008253,0.07134229998337105,,,,31,0,30,283.38906499999575,,,,,,,,,,,,,,,,,,,,,,,283.37311219994444,283.38906499999575,283.88944999995874,283.8726341999718,,,,,,,,,,,,,,,,,,,,,,,,,,283.8755073999637,283.88944999995874,283.88944999995874,283.88944999995874,286.8889207999455,286.8889207999455,286.8889207999455,286.8728920999565,shoe,f,286.87293909996515,,,286.8729515999439,None,,,2.389594100008253,0.07134229998337105,,,,,,,,,,00055,001,2026-01-18_21h39.30.446,MST_task,2024.2.0,59.96257135718122,2026-01-18 21h39.51.986785 +0530,
,Objects\094a.jpg,31,0,32,,,,,,,None,f,2.033238900010474,None,,,,,,32,0,31,286.8889207999455,,,,,,,,,,,,,,,,,,,,,,,286.8730175999808,286.8889207999455,287.3893356999615,287.3726414999692,,,,,,,,,,,,,,,,,,,,,,,,,,287.38287189998664,287.3893356999615,287.3893356999615,287.3893356999615,290.3890673999558,290.3890673999558,290.3890673999558,290.37277919996995,shoe,None,290.3728173999698,290.3890673999558,290.3890673999558,292.4228337999666,f,2.033238900010474,None,,,,,,,,,,,,00055,001,2026-01-18_21h39.30.446,MST_task,2024.2.0,59.96257135718122,2026-01-18 21h39.51.986785 +0530,
,Objects\002a.jpg,32,0,33,,,,,,,f,None,,,1.5398486999911256,0.0810060000512749,,,,33,0,32,292.438899199944,,,,,,,,,,,,,,,,,,,,,,,292.42296639998676,292.438899199944,292.93911479995586,292.9224109999486,,,,,,,,,,,,,,,,,,,,,,,,,,292.92535289999796,292.93911479995586,292.93911479995586,292.93911479995586,295.9389526999439,295.9389526999439,295.9389526999439,295.9227369999862,shoe,f,295.92277989996364,,,295.9227921999991,None,,,1.5398486999911256,0.0810060000512749,,,,,,,,,,00055,001,2026-01-18_21h39.30.446,MST_task,2024.2.0,59.96257135718122,2026-01-18 21h39.51.986785 +0530,
,Objects\005a.jpg,33,0,34,,,,,,,f,None,,,1.807825599971693,0.07143770001130179,,,,34,0,33,295.9389526999439,,,,,,,,,,,,,,,,,,,,,,,295.9229002999491,295.9389526999439,296.4392025999841,296.4224324999959,,,,,,,,,,,,,,,,,,,,,,,,,,296.4249551999965,296.4392025999841,296.4392025999841,296.4392025999841,299.4389669999946,299.4389669999946,299.4389669999946,299.4227734999731,shoe,f,299.4228156999452,,,299.42282799998065,None,,,1.807825599971693,0.07143770001130179,,,,,,,,,,00055,001,2026-01-18_21h39.30.446,MST_task,2024.2.0,59.96257135718122,2026-01-18 21h39.51.986785 +0530,
,Objects\114a.jpg,34,0,35,,,,,,,f,None,,,1.2352582000312395,0.079992399958428,,,,35,0,34,299.4389669999946,,,,,,,,,,,,,,,,,,,,,,,299.4229256999679,299.4389669999946,299.93918549997034,299.92243859998416,,,,,,,,,,,,,,,,,,,,,,,,,,299.92537179996725,299.93918549997034,299.93918549997034,299.93918549997034,302.93895569996675,302.93895569996675,302.93895569996675,302.9226607999881,shoe,f,302.92270119994646,,,302.92271359998267,None,,,1.2352582000312395,0.079992399958428,,,,,,,,,,00055,001,2026-01-18_21h39.30.446,MST_task,2024.2.0,59.96257135718122,2026-01-18 21h39.51.986785 +0530,
,Objects\259a.jpg,35,0,36,,,,,,,None,j,1.8006344000459649,None,,,,,,36,0,35,302.93895569996675,,,,,,,,,,,,,,,,,,,,,,,302.9227861999534,302.93895569996675,303.4395893999608,303.42245209997054,,,,,,,,,,,,,,,,,,,,,,,,,,303.43476129998453,303.4395893999608,303.4395893999608,303.4395893999608,306.43892669997877,306.43892669997877,306.43892669997877,306.4227212999831,indoor,None,306.4244203999988,306.43892669997877,306.43892669997877,308.25635369995143,j,1.8006344000459649,None,,,,,,,,,,,,00055,001,2026-01-18_21h39.30.446,MST_task,2024.2.0,59.96257135718122,2026-01-18 21h39.51.986785 +0530,
,Objects\342a.jpg,36,0,37,,,,,,,None,j,2.7141106000053696,None,,,,,,37,0,36,308.27231029997347,,,,,,,,,,,,,,,,,,,,,,,308.25645049999,308.27231029997347,308.7725212999503,308.75616219994845,,,,,,,,,,,,,,,,,,,,,,,,,,308.75918339996133,308.7725212999503,308.7725212999503,308.7725212999503,311.7721349999774,311.7721349999774,311.7721349999774,311.75630419998197,indoor,None,311.75634559994796,311.7721349999774,311.7721349999774,314.489452299953,j,2.7141106000053696,None,,,,,,,,,,,,00055,001,2026-01-18_21h39.30.446,MST_task,2024.2.0,59.96257135718122,2026-01-18 21h39.51.986785 +0530,
,Objects\072a.jpg,37,0,38,,,,,,,j,None,,,1.7932370000053197,0.11088910000398755,,,,38,0,37,314.5055504999473,,,,,,,,,,,,,,,,,,,,,,,314.48954289994435,314.5055504999473,315.0062259999686,314.98933929996565,,,,,,,,,,,,,,,,,,,,,,,,,,314.99233659997117,315.0062259999686,315.0062259999686,315.0062259999686,318.0055610999698,318.0055610999698,318.0055610999698,317.9895106999902,indoor,j,317.98955259996,,,317.989565099997,None,,,1.7932370000053197,0.11088910000398755,,,,,,,,,,00055,001,2026-01-18_21h39.30.446,MST_task,2024.2.0,59.96257135718122,2026-01-18 21h39.51.986785 +0530,
,Objects\226a.jpg,38,0,39,,,,,,,None,f,0.5170456999912858,None,,,,,,39,0,38,318.0055610999698,,,,,,,,,,,,,,,,,,,,,,,317.98962989996653,318.0055610999698,318.5063972999924,318.48941459995694,,,,,,,,,,,,,,,,,,,,,,,,,,318.4927657999797,318.5063972999924,318.5063972999924,318.5063972999924,321.5056124999537,321.5056124999537,321.5056124999537,321.4894227999612,indoor,None,321.48946119996253,321.5056124999537,321.5056124999537,322.03929759998573,f,0.5170456999912858,None,,,,,,,,,,,,00055,001,2026-01-18_21h39.30.446,MST_task,2024.2.0,59.96257135718122,2026-01-18 21h39.51.986785 +0530,
,Objects\303a.jpg,39,0,40,,,,,,,j,None,,,1.9387518999865279,0.11190990003524348,,,,40,0,39,322.0556576999952,,,,,,,,,,,,,,,,,,,,,,,322.0393829999957,322.0556576999952,322.5560728999553,322.5394083999563,,,,,,,,,,,,,,,,,,,,,,,,,,322.5523374999757,322.5560728999553,322.5560728999553,322.5560728999553,325.5556586999446,325.5556586999446,325.5556586999446,325.5394984999439,indoor,j,325.539541599981,,,325.539553999959,None,,,1.9387518999865279,0.11190990003524348,,,,,,,,,,00055,001,2026-01-18_21h39.30.446,MST_task,2024.2.0,59.96257135718122,2026-01-18 21h39.51.986785 +0530,
,Objects\082a.jpg,40,0,41,,,,,,,None,f,3.8628555000177585,None,,,,,,41,0,40,325.5556586999446,,,,,,,,,,,,,,,,,,,,,,,325.53962919994956,325.5556586999446,326.0560773999896,326.0392666999833,,,,,,,,,,,,,,,,,,,,,,,,,,326.0425226999796,326.0560773999896,326.0560773999896,326.0560773999896,329.05563949997304,329.05563949997304,329.05563949997304,329.0395824999432,indoor,None,329.03962169995066,329.05563949997304,329.05563949997304,332.9227082999423,f,3.8628555000177585,None,,,,,,,,,,,,00055,001,2026-01-18_21h39.30.446,MST_task,2024.2.0,59.96257135718122,2026-01-18 21h39.51.986785 +0530,
,Objects\023a.jpg,41,0,42,,,,,,,f,None,,,1.3208729999605566,0.0710024000145495,,,,42,0,41,332.9389405999682,,,,,,,,,,,,,,,,,,,,,,,332.9227955999668,332.9389405999682,333.4391560999793,333.42237029998796,,,,,,,,,,,,,,,,,,,,,,,,,,333.432438799995,333.4391560999793,333.4391560999793,333.4391560999793,336.43889779999154,336.43889779999154,336.43889779999154,336.4228723999695,indoor,f,336.4229152999469,,,336.4229284999892,None,,,1.3208729999605566,0.0710024000145495,,,,,,,,,,00055,001,2026-01-18_21h39.30.446,MST_task,2024.2.0,59.96257135718122,2026-01-18 21h39.51.986785 +0530,
,Objects\237a.jpg,42,0,43,,,,,,,None,j,2.4031381999957375,None,,,,,,43,0,42,336.43889779999154,,,,,,,,,,,,,,,,,,,,,,,336.42299589997856,336.43889779999154,336.9394235999789,336.92246139998315,,,,,,,,,,,,,,,,,,,,,,,,,,336.9362109999638,336.9394235999789,336.9394235999789,336.9394235999789,339.9391048999969,339.9391048999969,339.9391048999969,339.92314549995353,shoe,None,339.9252829999896,339.9391048999969,339.9391048999969,342.35601679998217,j,2.4031381999957375,None,,,,,,,,,,,,00055,001,2026-01-18_21h39.30.446,MST_task,2024.2.0,59.96257135718122,2026-01-18 21h39.51.986785 +0530,
,Objects\350a.jpg,43,0,44,,,,,,,None,j,0.4469463999848813,None,,,,,,44,0,43,342.3721348999534,,,,,,,,,,,,,,,,,,,,,,,342.3561023999937,342.3721348999534,342.87268269999186,342.8558647999889,,,,,,,,,,,,,,,,,,,,,,,,,,342.86662649997743,342.87268269999186,342.87268269999186,342.87268269999186,345.8721391999861,345.8721391999861,345.8721391999861,345.8562388999853,shoe,None,345.85627819999354,345.8721391999861,345.8721391999861,346.3228308999678,j,0.4469463999848813,None,,,,,,,,,,,,00055,001,2026-01-18_21h39.30.446,MST_task,2024.2.0,59.96257135718122,2026-01-18 21h39.51.986785 +0530,
,Objects\011a.jpg,44,0,45,,,,,,,f,None,,,2.1675056000240147,0.08001460001105443,,,,45,0,44,346.3389630999882,,,,,,,,,,,,,,,,,,,,,,,346.3229154999717,346.3389630999882,346.8393492999603,346.82245459995465,,,,,,,,,,,,,,,,,,,,,,,,,,346.82613339996897,346.8393492999603,346.8393492999603,346.8393492999603,349.8389109999989,349.8389109999989,349.8389109999989,349.82278549997136,shoe,f,349.8228264999925,,,349.8228384999675,None,,,2.1675056000240147,0.08001460001105443,,,,,,,,,,00055,001,2026-01-18_21h39.30.446,MST_task,2024.2.0,59.96257135718122,2026-01-18 21h39.51.986785 +0530,
,Objects\301a.jpg,45,0,46,,,,,,,None,j,1.1878274999908172,None,,,,,,46,0,45,349.8389109999989,,,,,,,,,,,,,,,,,,,,,,,349.82290129998,349.8389109999989,350.33916889998363,350.32245619996684,,,,,,,,,,,,,,,,,,,,,,,,,,350.3251426999923,350.33916889998363,350.33916889998363,350.33916889998363,353.33897949999664,353.33897949999664,353.33897949999664,353.32267119997414,shoe,None,353.32270949997474,353.33897949999664,353.33897949999664,354.53930219996255,j,1.1878274999908172,None,,,,,,,,,,,,00055,001,2026-01-18_21h39.30.446,MST_task,2024.2.0,59.96257135718122,2026-01-18 21h39.51.986785 +0530,
,Objects\305a.jpg,46,0,47,,,,,,,None,f,4.071360600006301,None,,,,,,47,0,46,354.5556198999984,,,,,,,,,,,,,,,,,,,,,,,354.539386999968,354.5556198999984,355.0558915999718,355.03921349998564,,,,,,,,,,,,,,,,,,,,,,,,,,355.0420463999617,355.0558915999718,355.0558915999718,355.0558915999718,358.0556472999742,358.0556472999742,358.0556472999742,358.03956579999067,shoe,None,358.0396054999437,358.0556472999742,358.0556472999742,362.13952939998126,f,4.071360600006301,None,,,,,,,,,,,,00055,001,2026-01-18_21h39.30.446,MST_task,2024.2.0,59.96257135718122,2026-01-18 21h39.51.986785 +0530,
,Objects\253a.jpg,47,0,48,,,,,,,f,None,,,0.8706312000285834,0.10400079999817535,,,,48,0,47,362.1556871999637,,,,,,,,,,,,,,,,,,,,,,,362.1396195999696,362.1556871999637,362.65587779995985,362.6392145999707,,,,,,,,,,,,,,,,,,,,,,,,,,362.6421097999555,362.65587779995985,362.65587779995985,362.65587779995985,365.6556815999793,365.6556815999793,365.6556815999793,365.63964329997543,shoe,f,365.6396901999833,,,365.6397030999651,None,,,0.8706312000285834,0.10400079999817535,,,,,,,,,,00055,001,2026-01-18_21h39.30.446,MST_task,2024.2.0,59.96257135718122,2026-01-18 21h39.51.986785 +0530,
,Objects\143a.jpg,48,0,49,,,,,,,f,None,,,1.7792028000112623,0.09593889996176586,,,,49,0,48,365.6556815999793,,,,,,,,,,,,,,,,,,,,,,,365.6398924999521,365.6556815999793,366.155866599991,366.1391401999863,,,,,,,,,,,,,,,,,,,,,,,,,,366.14176839997526,366.155866599991,366.155866599991,366.155866599991,369.15560039994307,369.15560039994307,369.15560039994307,369.13952059997246,shoe,f,369.1395623999997,,,369.13957389997086,None,,,1.7792028000112623,0.09593889996176586,,,,,,,,,,00055,001,2026-01-18_21h39.30.446,MST_task,2024.2.0,59.96257135718122,2026-01-18 21h39.51.986785 +0530,
,Objects\022a.jpg,49,0,50,,,,,,,None,f,0.7590105999843217,None,,,,,,50,0,49,369.15560039994307,,,,,,,,,,,,,,,,,,,,,,,369.139639699948,369.15560039994307,369.6558149999473,369.63922309997724,,,,,,,,,,,,,,,,,,,,,,,,,,369.6433765999973,369.6558149999473,369.6558149999473,369.6558149999473,372.6555953999632,372.6555953999632,372.6555953999632,372.6397331999615,indoor,None,372.64162229996873,372.6555953999632,372.6555953999632,373.4227620999445,f,0.7590105999843217,None,,,,,,,,,,,,00055,001,2026-01-18_21h39.30.446,MST_task,2024.2.0,59.96257135718122,2026-01-18 21h39.51.986785 +0530,
,Objects\038a.jpg,50,0,51,,,,,,,f,None,,,2.571749599999748,0.08796309999888763,,,,51,0,50,373.43890009995084,,,,,,,,,,,,,,,,,,,,,,,373.4228480999591,373.43890009995084,373.93920179997804,373.92240419995505,,,,,,,,,,,,,,,,,,,,,,,,,,373.9251998999971,373.93920179997804,373.93920179997804,373.93920179997804,376.9389796999749,376.9389796999749,376.9389796999749,376.9228563999641,indoor,f,376.92289969994454,,,376.92291209998075,None,,,2.571749599999748,0.08796309999888763,,,,,,,,,,00055,001,2026-01-18_21h39.30.446,MST_task,2024.2.0,59.96257135718122,2026-01-18 21h39.51.986785 +0530,
,Objects\272a.jpg,51,0,52,,,,,,,None,f,0.5679623000323772,None,,,,,,52,0,51,376.9389796999749,,,,,,,,,,,,,,,,,,,,,,,376.9229838999454,376.9389796999749,377.4394879999454,377.42277129995637,,,,,,,,,,,,,,,,,,,,,,,,,,377.4254544999567,377.4394879999454,377.4394879999454,377.4394879999454,380.43892359995516,380.43892359995516,380.43892359995516,380.42277879995527,indoor,None,380.4228200999787,380.43892359995516,380.43892359995516,381.0227363999584,f,0.5679623000323772,None,,,,,,,,,,,,00055,001,2026-01-18_21h39.30.446,MST_task,2024.2.0,59.96257135718122,2026-01-18 21h39.51.986785 +0530,
,Objects\058a.jpg,52,0,53,,,,,,,f,None,,,2.51556349999737,0.08799720002571121,,,,53,0,52,381.0389270999585,,,,,,,,,,,,,,,,,,,,,,,381.0228341999464,381.0389270999585,381.53927039995324,381.5225182999857,,,,,,,,,,,,,,,,,,,,,,,,,,381.5347830999526,381.53927039995324,381.53927039995324,381.53927039995324,384.5390572999604,384.5390572999604,384.5390572999604,384.52296209998894,indoor,f,384.52300659997854,,,384.52301949996036,None,,,2.51556349999737,0.08799720002571121,,,,,,,,,,00055,001,2026-01-18_21h39.30.446,MST_task,2024.2.0,59.96257135718122,2026-01-18 21h39.51.986785 +0530,
,Objects\383a.jpg,53,0,54,,,,,,,f,None,,,2.503218099998776,0.10401330003514886,,,,54,0,53,384.5390572999604,,,,,,,,,,,,,,,,,,,,,,,384.52308499999344,384.5390572999604,385.039561899961,385.02257499995176,,,,,,,,,,,,,,,,,,,,,,,,,,385.0329448999837,385.039561899961,385.039561899961,385.039561899961,388.0392649999703,388.0392649999703,388.0392649999703,388.0229632999981,indoor,f,388.0230051999679,,,388.02301739994437,None,,,2.503218099998776,0.10401330003514886,,,,,,,,,,00055,001,2026-01-18_21h39.30.446,MST_task,2024.2.0,59.96257135718122,2026-01-18 21h39.51.986785 +0530,
,Objects\359a.jpg,54,0,55,,,,,,,f,None,,,1.259344600024633,0.08799520001048222,,,,55,0,54,388.0392649999703,,,,,,,,,,,,,,,,,,,,,,,388.0230814999668,388.0392649999703,388.53952989995014,388.5226640999899,,,,,,,,,,,,,,,,,,,,,,,,,,388.52557049994357,388.53952989995014,388.53952989995014,388.53952989995014,391.5391056999797,391.5391056999797,391.5391056999797,391.5231003999943,indoor,f,391.5231419999618,,,391.5231544999988,None,,,1.259344600024633,0.08799520001048222,,,,,,,,,,00055,001,2026-01-18_21h39.30.446,MST_task,2024.2.0,59.96257135718122,2026-01-18 21h39.51.986785 +0530,
,Objects\337a.jpg,55,0,56,,,,,,,None,f,0.9209384000278078,None,,,,,,56,0,55,391.5391056999797,,,,,,,,,,,,,,,,,,,,,,,391.5232174999546,391.5391056999797,392.0394598999992,392.02291089994833,,,,,,,,,,,,,,,,,,,,,,,,,,392.02557929995237,392.0394598999992,392.0394598999992,392.0394598999992,395.039103899966,395.039103899966,395.039103899966,395.0229073999799,indoor,None,395.0229530999786,395.039103899966,395.039103899966,395.9727431999636,f,0.9209384000278078,None,,,,,,,,,,,,00055,001,2026-01-18_21h39.30.446,MST_task,2024.2.0,59.96257135718122,2026-01-18 21h39.51.986785 +0530,
,Objects\124a.jpg,56,0,57,,,,,,,j,None,,,2.1167033999809064,0.08000249997712672,,,,57,0,56,395.9890627999557,,,,,,,,,,,,,,,,,,,,,,,395.9728287999751,395.9890627999557,396.48953329998767,396.47258059994783,,,,,,,,,,,,,,,,,,,,,,,,,,396.4780935999588,396.48953329998767,396.48953329998767,396.48953329998767,399.4890909999958,399.4890909999958,399.4890909999958,399.47302999999374,shoe,j,399.47509819996776,,,399.4751154999831,None,,,2.1167033999809064,0.08000249997712672,,,,,,,,,,00055,001,2026-01-18_21h39.30.446,MST_task,2024.2.0,59.96257135718122,2026-01-18 21h39.51.986785 +0530,
,Objects\158a.jpg,57,0,58,,,,,,,None,f,None,None,,,,,,58,0,57,399.4890909999958,,,,,,,,,,,,,,,,,,,,,,,399.47522319998825,399.4890909999958,399.98930359998485,399.9725020999904,,,,,,,,,,,,,,,,,,,,,,,,,,399.9750970999594,399.98930359998485,399.98930359998485,399.98930359998485,402.9890198999783,402.9890198999783,402.9890198999783,402.97298929997487,shoe,None,402.9730269999709,402.9890198999783,402.9890198999783,403.0893927999423,f,None,None,,,,,,,,,,,,00055,001,2026-01-18_21h39.30.446,MST_task,2024.2.0,59.96257135718122,2026-01-18 21h39.51.986785 +0530,
,Objects\165a.jpg,58,0,59,,,,,,,f,None,,,1.488957300025504,0.09604079998098314,,,,59,0,58,403.1057478999719,,,,,,,,,,,,,,,,,,,,,,,403.08950849995017,403.1057478999719,403.6059957999969,403.58937069994863,,,,,,,,,,,,,,,,,,,,,,,,,,403.59942629997386,403.6059957999969,403.6059957999969,403.6059957999969,406.6057111999835,406.6057111999835,406.6057111999835,406.5897246999666,shoe,f,406.58977009996306,,,406.58978329994716,None,,,1.488957300025504,0.09604079998098314,,,,,,,,,,00055,001,2026-01-18_21h39.30.446,MST_task,2024.2.0,59.96257135718122,2026-01-18 21h39.51.986785 +0530,
,Objects\297a.jpg,59,0,60,,,,,,,None,f,0.3486088000354357,None,,,,,,60,0,59,406.6057111999835,,,,,,,,,,,,,,,,,,,,,,,406.58988679997856,406.6057111999835,407.10620599996764,407.0893184999586,,,,,,,,,,,,,,,,,,,,,,,,,,407.09279669995885,407.10620599996764,407.10620599996764,407.10620599996764,410.10580189997563,410.10580189997563,410.10580189997563,410.0898136999458,shoe,None,410.0898532999563,410.10580189997563,410.10580189997563,410.4561631999677,f,0.3486088000354357,None,,,,,,,,,,,,00055,001,2026-01-18_21h39.30.446,MST_task,2024.2.0,59.96257135718122,2026-01-18 21h39.51.986785 +0530,
,Objects\244a.jpg,60,0,61,,,,,,,None,f,0.3941686000325717,None,,,,,,61,0,60,410.4724143999629,,,,,,,,,,,,,,,,,,,,,,,410.45624819997465,410.4724143999629,410.9728223999846,410.9561443999992,,,,,,,,,,,,,,,,,,,,,,,,,,410.9587529999553,410.9728223999846,410.9728223999846,410.9728223999846,413.9722062999499,413.9722062999499,413.9722062999499,413.9562609999557,shoe,None,413.95630409999285,413.9722062999499,413.9722062999499,414.372648199962,f,0.3941686000325717,None,,,,,,,,,,,,00055,001,2026-01-18_21h39.30.446,MST_task,2024.2.0,59.96257135718122,2026-01-18 21h39.51.986785 +0530,
,Objects\278a.jpg,61,0,62,,,,,,,f,None,,,2.829369699989911,0.08791760000167415,,,,62,0,61,414.3889923999668,,,,,,,,,,,,,,,,,,,,,,,414.37273889995413,414.3889923999668,414.8894858999993,414.87268419994507,,,,,,,,,,,,,,,,,,,,,,,,,,414.8764816999901,414.8894858999993,414.8894858999993,414.8894858999993,417.8890112999943,417.8890112999943,417.8890112999943,417.87296519998927,shoe,f,417.87300719995983,,,417.8730198999983,None,,,2.829369699989911,0.08791760000167415,,,,,,,,,,00055,001,2026-01-18_21h39.30.446,MST_task,2024.2.0,59.96257135718122,2026-01-18 21h39.51.986785 +0530,
,Objects\033a.jpg,62,0,63,,,,,,,f,None,,,1.0488485000096262,0.10508939996361732,,,,63,0,62,417.8890112999943,,,,,,,,,,,,,,,,,,,,,,,417.87308269995265,417.8890112999943,418.3895136999781,418.37265809997916,,,,,,,,,,,,,,,,,,,,,,,,,,418.38434939994477,418.3895136999781,418.3895136999781,418.3895136999781,421.38911599997664,421.38911599997664,421.38911599997664,421.3727852999582,shoe,f,421.37282889999915,,,421.3728413999779,None,,,1.0488485000096262,0.10508939996361732,,,,,,,,,,00055,001,2026-01-18_21h39.30.446,MST_task,2024.2.0,59.96257135718122,2026-01-18 21h39.51.986785 +0530,
,Objects\040a.jpg,63,0,64,,,,,,,f,None,,,1.1094245000276715,0.11200249998364598,,,,64,0,63,421.38911599997664,,,,,,,,,,,,,,,,,,,,,,,421.37290649994975,421.38911599997664,421.88926599995466,421.87265679996926,,,,,,,,,,,,,,,,,,,,,,,,,,421.87654859997565,421.88926599995466,421.88926599995466,421.88926599995466,424.88909909996437,424.88909909996437,424.88909909996437,424.8729588999995,indoor,f,424.87458359997254,,,424.8746009999886,None,,,1.1094245000276715,0.11200249998364598,,,,,,,,,,00055,001,2026-01-18_21h39.30.446,MST_task,2024.2.0,59.96257135718122,2026-01-18 21h39.51.986785 +0530,
,Objects\180a.jpg,64,0,65,,,,,,,f,None,,,2.6817981000058353,0.09598479996202514,,,,65,0,64,424.88909909996437,,,,,,,,,,,,,,,,,,,,,,,424.87467029999243,424.88909909996437,425.3892865999951,425.37266589998035,,,,,,,,,,,,,,,,,,,,,,,,,,425.37548859999515,425.3892865999951,425.3892865999951,425.3892865999951,428.3891900999588,428.3891900999588,428.3891900999588,428.3732827999629,indoor,f,428.37334039999405,,,428.37335619999794,None,,,2.6817981000058353,0.09598479996202514,,,,,,,,,,00055,001,2026-01-18_21h39.30.446,MST_task,2024.2.0,59.96257135718122,2026-01-18 21h39.51.986785 +0530,
,Objects\071a.jpg,65,0,66,,,,,,,None,j,0.7020068999845535,None,,,,,,66,0,65,428.3891900999588,,,,,,,,,,,,,,,,,,,,,,,428.37343969999347,428.3891900999588,428.88924559997395,428.8724669999792,,,,,,,,,,,,,,,,,,,,,,,,,,428.8751363999909,428.88924559997395,428.88924559997395,428.88924559997395,431.8889936999767,431.8889936999767,431.8889936999767,431.87289439997403,indoor,None,431.8729379999568,431.8889936999767,431.8889936999767,432.606140399992,j,0.7020068999845535,None,,,,,,,,,,,,00055,001,2026-01-18_21h39.30.446,MST_task,2024.2.0,59.96257135718122,2026-01-18 21h39.51.986785 +0530,
,Objects\097a.jpg,66,0,67,,,,,,,j,None,,,1.732368899974972,0.07934390002628788,,,,67,0,66,432.62226149998605,,,,,,,,,,,,,,,,,,,,,,,432.60622689995216,432.62226149998605,433.12254689994734,433.105971699988,,,,,,,,,,,,,,,,,,,,,,,,,,433.1088044999633,433.12254689994734,433.12254689994734,433.12254689994734,436.12239319999935,436.12239319999935,436.12239319999935,436.10643439996056,indoor,j,436.1064795999555,,,436.10649269999703,None,,,1.732368899974972,0.07934390002628788,,,,,,,,,,00055,001,2026-01-18_21h39.30.446,MST_task,2024.2.0,59.96257135718122,2026-01-18 21h39.51.986785 +0530,
,Objects\016a.jpg,67,0,68,,,,,,,None,f,0.15303440002026036,None,,,,,,68,0,67,436.12239319999935,,,,,,,,,,,,,,,,,,,,,,,436.1065617999993,436.12239319999935,436.62273699999787,436.6061022999929,,,,,,,,,,,,,,,,,,,,,,,,,,436.61740649997955,436.62273699999787,436.62273699999787,436.62273699999787,439.62233579996973,439.62233579996973,439.62233579996973,439.6063227999839,indoor,None,439.60635919997003,439.62233579996973,439.62233579996973,439.78950429998804,f,0.15303440002026036,None,,,,,,,,,,,,00055,001,2026-01-18_21h39.30.446,MST_task,2024.2.0,59.96257135718122,2026-01-18 21h39.51.986785 +0530,
,Objects\010a.jpg,68,0,69,,,,,,,None,f,1.5175831000087783,None,,,,,,69,0,68,439.8057580999448,,,,,,,,,,,,,,,,,,,,,,,439.7895886999904,439.8057580999448,440.3059670999646,440.28926059999503,,,,,,,,,,,,,,,,,,,,,,,,,,440.29902619996574,440.3059670999646,440.3059670999646,440.3059670999646,443.3057582999463,443.3057582999463,443.3057582999463,443.2897198999999,indoor,None,443.28976009995677,443.3057582999463,443.3057582999463,444.83941699995194,f,1.5175831000087783,None,,,,,,,,,,,,00055,001,2026-01-18_21h39.30.446,MST_task,2024.2.0,59.96257135718122,2026-01-18 21h39.51.986785 +0530,
,Objects\250a.jpg,69,0,70,,,,,,,f,None,,,1.690590100013651,0.08799039997393265,,,,70,0,69,444.85561629995937,,,,,,,,,,,,,,,,,,,,,,,444.83950209995965,444.85561629995937,445.35609969997313,445.33923479996156,,,,,,,,,,,,,,,,,,,,,,,,,,445.34221899998374,445.35609969997313,445.35609969997313,445.35609969997313,448.3556026999722,448.3556026999722,448.3556026999722,448.3395921999472,indoor,f,448.3396328999661,,,448.33964539994486,None,,,1.690590100013651,0.08799039997393265,,,,,,,,,,00055,001,2026-01-18_21h39.30.446,MST_task,2024.2.0,59.96257135718122,2026-01-18 21h39.51.986785 +0530,
,Objects\261a.jpg,70,0,71,,,,,,,f,None,,,1.6075315999914892,0.1039769999915734,,,,71,0,70,448.3556026999722,,,,,,,,,,,,,,,,,,,,,,,448.3397101999726,448.3556026999722,448.8560508999508,448.8392744999728,,,,,,,,,,,,,,,,,,,,,,,,,,448.84476219996577,448.8560508999508,448.8560508999508,448.8560508999508,451.8558446999523,451.8558446999523,451.8558446999523,451.8401238999795,shoe,f,451.8423773999675,,,451.84240449999925,None,,,1.6075315999914892,0.1039769999915734,,,,,,,,,,00055,001,2026-01-18_21h39.30.446,MST_task,2024.2.0,59.96257135718122,2026-01-18 21h39.51.986785 +0530,
,Objects\123a.jpg,71,0,72,,,,,,,f,None,,,1.3545719999819994,0.10417700000107288,,,,72,0,71,451.8558446999523,,,,,,,,,,,,,,,,,,,,,,,451.8424785999814,451.8558446999523,452.3560670999577,452.339250799967,,,,,,,,,,,,,,,,,,,,,,,,,,452.3498828999582,452.3560670999577,452.3560670999577,452.3560670999577,455.3556448999443,455.3556448999443,455.3556448999443,455.3398144999519,shoe,f,455.3398597999476,,,455.3398726999876,None,,,1.3545719999819994,0.10417700000107288,,,,,,,,,,00055,001,2026-01-18_21h39.30.446,MST_task,2024.2.0,59.96257135718122,2026-01-18 21h39.51.986785 +0530,
,Objects\268a.jpg,72,0,73,,,,,,,f,None,,,2.7750393000314943,0.10399279999546707,,,,73,0,72,455.3556448999443,,,,,,,,,,,,,,,,,,,,,,,455.33994579996215,455.3556448999443,455.85620549996383,455.8393575999653,,,,,,,,,,,,,,,,,,,,,,,,,,455.8420721999719,455.85620549996383,455.85620549996383,455.85620549996383,458.8556637999718,458.8556637999718,458.8556637999718,458.8395169999567,shoe,f,458.8395585999824,,,458.83957119996194,None,,,2.7750393000314943,0.10399279999546707,,,,,,,,,,00055,001,2026-01-18_21h39.30.446,MST_task,2024.2.0,59.96257135718122,2026-01-18 21h39.51.986785 +0530,
,Objects\037a.jpg,73,0,74,,,,,,,f,None,,,0.9946582999546081,0.12054940004600212,,,,74,0,73,458.8556637999718,,,,,,,,,,,,,,,,,,,,,,,458.83963559998665,458.8556637999718,459.3560451999656,459.3392690999899,,,,,,,,,,,,,,,,,,,,,,,,,,459.35055559995817,459.3560451999656,459.3560451999656,459.3560451999656,462.355636399996,462.355636399996,462.355636399996,462.3396222999436,shoe,f,462.3396675999975,,,462.33968059998006,None,,,0.9946582999546081,0.12054940004600212,,,,,,,,,,00055,001,2026-01-18_21h39.30.446,MST_task,2024.2.0,59.96257135718122,2026-01-18 21h39.51.986785 +0530,
,Objects\206a.jpg,74,0,75,,,,,,,j,None,,,1.8071838999749161,0.07224190002307296,,,,75,0,74,462.355636399996,,,,,,,,,,,,,,,,,,,,,,,462.33978379995096,462.355636399996,462.8560604999657,462.8392553999438,,,,,,,,,,,,,,,,,,,,,,,,,,462.84234059997834,462.8560604999657,462.8560604999657,462.8560604999657,465.8556159999571,465.8556159999571,465.8556159999571,465.83952739997767,shoe,j,465.8395697999513,,,465.8395824999898,None,,,1.8071838999749161,0.07224190002307296,,,,,,,,,,00055,001,2026-01-18_21h39.30.446,MST_task,2024.2.0,59.96257135718122,2026-01-18 21h39.51.986785 +0530,
,Objects\363a.jpg,75,0,76,,,,,,,f,None,,,2.066737200017087,0.09608149999985471,,,,76,0,75,465.8556159999571,,,,,,,,,,,,,,,,,,,,,,,465.8396468999563,465.8556159999571,466.3561059999629,466.3393161999993,,,,,,,,,,,,,,,,,,,,,,,,,,466.34274759999244,466.3561059999629,466.3561059999629,466.3561059999629,469.3556642999756,469.3556642999756,469.3556642999756,469.339503199968,shoe,f,469.33954609994544,,,469.33955819997936,None,,,2.066737200017087,0.09608149999985471,,,,,,,,,,00055,001,2026-01-18_21h39.30.446,MST_task,2024.2.0,59.96257135718122,2026-01-18 21h39.51.986785 +0530,
,Objects\223a.jpg,76,0,77,,,,,,,None,j,0.09600499999942258,None,,,,,,77,0,76,469.3556642999756,,,,,,,,,,,,,,,,,,,,,,,469.3396227999474,469.3556642999756,469.85599299997557,469.8393839999917,,,,,,,,,,,,,,,,,,,,,,,,,,469.84201789996587,469.85599299997557,469.85599299997557,469.85599299997557,472.8557136999443,472.8557136999443,472.8557136999443,472.8395896999864,shoe,None,472.83962729998166,472.8557136999443,472.8557136999443,472.9561753999442,j,0.09600499999942258,None,,,,,,,,,,,,00055,001,2026-01-18_21h39.30.446,MST_task,2024.2.0,59.96257135718122,2026-01-18 21h39.51.986785 +0530,
,Objects\046a.jpg,77,0,78,,,,,,,f,None,,,2.1979484999901615,0.11291869997512549,,,,78,0,77,472.9721568999812,,,,,,,,,,,,,,,,,,,,,,,472.95629399997415,472.9721568999812,473.4723710999824,473.4559272999759,,,,,,,,,,,,,,,,,,,,,,,,,,473.4598583999905,473.4723710999824,473.4723710999824,473.4723710999824,476.4722093999735,476.4722093999735,476.4722093999735,476.4563393999706,indoor,f,476.45798709994415,,,476.4580050999648,None,,,2.1979484999901615,0.11291869997512549,,,,,,,,,,00055,001,2026-01-18_21h39.30.446,MST_task,2024.2.0,59.96257135718122,2026-01-18 21h39.51.986785 +0530,
,Objects\168a.jpg,78,0,79,,,,,,,None,j,1.426861799962353,None,,,,,,79,0,78,476.4722093999735,,,,,,,,,,,,,,,,,,,,,,,476.4580880999565,476.4722093999735,476.97248969995417,476.9560281999875,,,,,,,,,,,,,,,,,,,,,,,,,,476.9584761999431,476.97248969995417,476.97248969995417,476.97248969995417,479.97220489999745,479.97220489999745,479.97220489999745,479.95628389995545,indoor,None,479.956321799953,479.97220489999745,479.97220489999745,481.4064765999792,j,1.426861799962353,None,,,,,,,,,,,,00055,001,2026-01-18_21h39.30.446,MST_task,2024.2.0,59.96257135718122,2026-01-18 21h39.51.986785 +0530,
,Objects\235a.jpg,79,0,80,,,,,,,j,None,,,2.6762514000292867,0.10470379999605939,,,,80,0,79,481.4223331999965,,,,,,,,,,,,,,,,,,,,,,,481.4065650999546,481.4223331999965,481.922605699976,481.9058882999816,,,,,,,,,,,,,,,,,,,,,,,,,,481.90906709997216,481.922605699976,481.922605699976,481.922605699976,484.9222730999463,484.9222730999463,484.9222730999463,484.90614529995946,indoor,j,484.9061865999829,,,484.9061982999556,None,,,2.6762514000292867,0.10470379999605939,,,,,,,,,,00055,001,2026-01-18_21h39.30.446,MST_task,2024.2.0,59.96257135718122,2026-01-18 21h39.51.986785 +0530,
,Objects\358a.jpg,80,0,81,,,,,,,None,j,1.2078226000303403,None,,,,,,81,0,80,484.9222730999463,,,,,,,,,,,,,,,,,,,,,,,484.90626129996963,484.9222730999463,485.42266889999155,485.4059303999529,,,,,,,,,,,,,,,,,,,,,,,,,,485.40961279999465,485.42266889999155,485.42266889999155,485.42266889999155,488.42243469995447,488.42243469995447,488.42243469995447,488.4066709999461,indoor,None,488.4067172999494,488.42243469995447,488.42243469995447,489.6395243999432,j,1.2078226000303403,None,,,,,,,,,,,,00055,001,2026-01-18_21h39.30.446,MST_task,2024.2.0,59.96257135718122,2026-01-18 21h39.51.986785 +0530,
,Objects\045a.jpg,81,0,82,,,,,,,f,None,,,1.5313241999829188,0.10298720002174377,,,,82,0,81,489.65564369998174,,,,,,,,,,,,,,,,,,,,,,,489.6396133999806,489.65564369998174,490.15605659998255,490.13924919994315,,,,,,,,,,,,,,,,,,,,,,,,,,490.14294179994613,490.15605659998255,490.15605659998255,490.15605659998255,493.15577719995053,493.15577719995053,493.15577719995053,493.139612399973,indoor,f,493.13965639995877,,,493.13966909999726,None,,,1.5313241999829188,0.10298720002174377,,,,,,,,,,00055,001,2026-01-18_21h39.30.446,MST_task,2024.2.0,59.96257135718122,2026-01-18 21h39.51.986785 +0530,
,Objects\087a.jpg,82,0,83,,,,,,,None,f,3.495963800000027,None,,,,,,83,0,82,493.15577719995053,,,,,,,,,,,,,,,,,,,,,,,493.1397343999706,493.15577719995053,493.6558585999883,493.639381499961,,,,,,,,,,,,,,,,,,,,,,,,,,493.6418574999552,493.6558585999883,493.6558585999883,493.6558585999883,496.655666799983,496.655666799983,496.655666799983,496.6397041999735,indoor,None,496.63974489999237,496.655666799983,496.655666799983,500.1562858999823,f,3.495963800000027,None,,,,,,,,,,,,00055,001,2026-01-18_21h39.30.446,MST_task,2024.2.0,59.96257135718122,2026-01-18 21h39.51.986785 +0530,
,Objects\101a.jpg,83,0,84,,,,,,,f,None,,,1.2300043999566697,0.12001030001556501,,,,84,0,83,500.1722355999518,,,,,,,,,,,,,,,,,,,,,,,500.1563757999684,500.1722355999518,500.6725830999785,500.6559014999657,,,,,,,,,,,,,,,,,,,,,,,,,,500.6679909999948,500.6725830999785,500.6725830999785,500.6725830999785,503.6724257999449,503.6724257999449,503.6724257999449,503.65631709998706,indoor,f,503.6563594999607,,,503.6563713999931,None,,,1.2300043999566697,0.12001030001556501,,,,,,,,,,00055,001,2026-01-18_21h39.30.446,MST_task,2024.2.0,59.96257135718122,2026-01-18 21h39.51.986785 +0530,
,Objects\069a.jpg,84,0,85,,,,,,,j,None,,,1.1626677999738604,0.09497800003737211,,,,85,0,84,503.6724257999449,,,,,,,,,,,,,,,,,,,,,,,503.6564362999634,503.6724257999449,504.172635099967,504.1559940999723,,,,,,,,,,,,,,,,,,,,,,,,,,504.1609792999807,504.172635099967,504.172635099967,504.172635099967,507.17246169998543,507.17246169998543,507.17246169998543,507.15644229995087,shoe,j,507.1585927999695,,,507.15860969998175,None,,,1.1626677999738604,0.09497800003737211,,,,,,,,,,00055,001,2026-01-18_21h39.30.446,MST_task,2024.2.0,59.96257135718122,2026-01-18 21h39.51.986785 +0530,
,Objects\224a.jpg,85,0,86,,,,,,,f,None,,,1.5413627999951132,0.10398620000341907,,,,86,0,85,507.17246169998543,,,,,,,,,,,,,,,,,,,,,,,507.1587124999496,507.17246169998543,507.6728811999783,507.65634739998495,,,,,,,,,,,,,,,,,,,,,,,,,,507.6595494999783,507.6728811999783,507.6728811999783,507.6728811999783,510.6724562999443,510.6724562999443,510.6724562999443,510.6563365999609,shoe,f,510.6563772999798,,,510.65638909995323,None,,,1.5413627999951132,0.10398620000341907,,,,,,,,,,00055,001,2026-01-18_21h39.30.446,MST_task,2024.2.0,59.96257135718122,2026-01-18 21h39.51.986785 +0530,
,Objects\210a.jpg,86,0,87,,,,,,,f,None,,,1.546107199974358,0.09600389999104664,,,,87,0,86,510.6724562999443,,,,,,,,,,,,,,,,,,,,,,,510.65645319997566,510.6724562999443,511.1726532999892,511.15617819997715,,,,,,,,,,,,,,,,,,,,,,,,,,511.1593275999767,511.1726532999892,511.1726532999892,511.1726532999892,514.1723307999782,514.1723307999782,514.1723307999782,514.1564187999466,shoe,f,514.1564589999616,,,514.1564710999955,None,,,1.546107199974358,0.09600389999104664,,,,,,,,,,00055,001,2026-01-18_21h39.30.446,MST_task,2024.2.0,59.96257135718122,2026-01-18 21h39.51.986785 +0530,
,Objects\060a.jpg,87,0,88,,,,,,,None,f,0.07828060002066195,None,,,,,,88,0,87,514.1723307999782,,,,,,,,,,,,,,,,,,,,,,,514.156537199975,514.1723307999782,514.6728108999669,514.6560189999873,,,,,,,,,,,,,,,,,,,,,,,,,,514.6594317999552,514.6728108999669,514.6728108999669,514.6728108999669,517.6725000999868,517.6725000999868,517.6725000999868,517.6564931999892,shoe,None,517.656535499962,517.6725000999868,517.6725000999868,517.7564416999812,f,0.07828060002066195,None,,,,,,,,,,,,00055,001,2026-01-18_21h39.30.446,MST_task,2024.2.0,59.96257135718122,2026-01-18 21h39.51.986785 +0530,
,Objects\063a.jpg,88,0,89,,,,,,,f,None,,,1.2381596000050195,0.10401569999521598,,,,89,0,88,517.7724490999826,,,,,,,,,,,,,,,,,,,,,,,517.7565339999855,517.7724490999826,518.2726603999618,518.2559894999722,,,,,,,,,,,,,,,,,,,,,,,,,,518.266029099992,518.2726603999618,518.2726603999618,518.2726603999618,521.272473399993,521.272473399993,521.272473399993,521.2563506999868,shoe,f,521.2563938999665,,,521.2564066999475,None,,,1.2381596000050195,0.10401569999521598,,,,,,,,,,00055,001,2026-01-18_21h39.30.446,MST_task,2024.2.0,59.96257135718122,2026-01-18 21h39.51.986785 +0530,
,Objects\031a.jpg,89,0,90,,,,,,,j,None,,,2.2981165999663062,0.06343809998361394,,,,90,0,89,521.272473399993,,,,,,,,,,,,,,,,,,,,,,,521.2565029999823,521.272473399993,521.7728323999909,521.7560579999699,,,,,,,,,,,,,,,,,,,,,,,,,,521.7590888999985,521.7728323999909,521.7728323999909,521.7728323999909,524.7725233999663,524.7725233999663,524.7725233999663,524.7563511999906,shoe,j,524.7563925999566,,,524.7564045999898,None,,,2.2981165999663062,0.06343809998361394,,,,,,,,,,00055,001,2026-01-18_21h39.30.446,MST_task,2024.2.0,59.96257135718122,2026-01-18 21h39.51.986785 +0530,
,Objects\233a.jpg,90,0,91,,,,,,,f,None,,,1.333528799994383,0.07294900005217642,,,,91,0,90,524.7725233999663,,,,,,,,,,,,,,,,,,,,,,,524.7564991999534,524.7725233999663,525.2727892999537,525.255941899959,,,,,,,,,,,,,,,,,,,,,,,,,,525.2586237999494,525.2727892999537,525.2727892999537,525.2727892999537,528.2725049000001,528.2725049000001,528.2725049000001,528.256450099987,shoe,f,528.2564945999766,,,528.2565068999538,None,,,1.333528799994383,0.07294900005217642,,,,,,,,,,00055,001,2026-01-18_21h39.30.446,MST_task,2024.2.0,59.96257135718122,2026-01-18 21h39.51.986785 +0530,
,Objects\336a.jpg,91,0,92,,,,,,,None,f,2.162567500025034,None,,,,,,92,0,91,528.2725049000001,,,,,,,,,,,,,,,,,,,,,,,528.256573599996,528.2725049000001,528.7728223999729,528.7561537000001,,,,,,,,,,,,,,,,,,,,,,,,,,528.7613562999759,528.7728223999729,528.7728223999729,528.7728223999729,531.7724870999809,531.7724870999809,531.7724870999809,531.756335299986,indoor,None,531.7579568999936,531.7724870999809,531.7724870999809,533.9397667999729,f,2.162567500025034,None,,,,,,,,,,,,00055,001,2026-01-18_21h39.30.446,MST_task,2024.2.0,59.96257135718122,2026-01-18 21h39.51.986785 +0530,
,Objects\075a.jpg,92,0,93,,,,,,,f,None,,,2.8469416999723762,0.08000180003000423,,,,93,0,92,533.9558547999477,,,,,,,,,,,,,,,,,,,,,,,533.9398680999875,533.9558547999477,534.4561885999865,534.439382499957,,,,,,,,,,,,,,,,,,,,,,,,,,534.4424503999762,534.4561885999865,534.4561885999865,534.4561885999865,,,,537.44003899995,indoor,f,537.4400816999841,,,537.4400954999728,None,,,2.8469416999723762,0.08000180003000423,,,,,,,,,,00055,001,2026-01-18_21h39.30.446,MST_task,2024.2.0,59.96257135718122,2026-01-18 21h39.51.986785 +0530,
,Objects\274a.jpg,93,0,94,,,,,,,j,None,,,2.482520299963653,0.08881950000068173,,,,94,0,93,537.4556895999704,,,,,,,,,,,,,,,,,,,,,,,537.4401627999614,537.4556895999704,537.9561734999879,537.939327,,,,,,,,,,,,,,,,,,,,,,,,,,537.9491008999757,537.9561734999879,537.9561734999879,537.9561734999879,540.9558029999607,540.9558029999607,540.9558029999607,540.9396010999917,indoor,j,540.9396451999783,,,540.9396581999608,None,,,2.482520299963653,0.08881950000068173,,,,,,,,,,00055,001,2026-01-18_21h39.30.446,MST_task,2024.2.0,59.96257135718122,2026-01-18 21h39.51.986785 +0530,
,Objects\281a.jpg,94,0,95,,,,,,,None,j,0.8069445000146516,None,,,,,,95,0,94,540.9558029999607,,,,,,,,,,,,,,,,,,,,,,,540.9397237999947,540.9558029999607,541.4563288999489,541.4393816999509,,,,,,,,,,,,,,,,,,,,,,,,,,541.4501973999431,541.4563288999489,541.4563288999489,541.4563288999489,544.4558064999874,544.4558064999874,544.4558064999874,544.4396239999915,indoor,None,544.439661899989,544.4558064999874,544.4558064999874,545.2728574999492,j,0.8069445000146516,None,,,,,,,,,,,,00055,001,2026-01-18_21h39.30.446,MST_task,2024.2.0,59.96257135718122,2026-01-18 21h39.51.986785 +0530,
,Objects\314a.jpg,95,0,96,,,,,,,f,None,,,1.5854989000363275,0.08006939996266738,,,,96,0,95,545.289089799975,,,,,,,,,,,,,,,,,,,,,,,545.2729439999675,545.289089799975,545.7894781999639,545.772614699963,,,,,,,,,,,,,,,,,,,,,,,,,,545.7753620999865,545.7894781999639,545.7894781999639,545.7894781999639,548.7891407999559,548.7891407999559,548.7891407999559,548.77299149998,indoor,f,548.7730330999475,,,548.7730452999822,None,,,1.5854989000363275,0.08006939996266738,,,,,,,,,,00055,001,2026-01-18_21h39.30.446,MST_task,2024.2.0,59.96257135718122,2026-01-18 21h39.51.986785 +0530,
,Objects\200a.jpg,96,0,97,,,,,,,j,None,,,2.0694544999860227,0.07997879997128621,,,,97,0,96,548.7891407999559,,,,,,,,,,,,,,,,,,,,,,,548.7731153999921,548.7891407999559,549.2894332999713,549.2727433999535,,,,,,,,,,,,,,,,,,,,,,,,,,549.2826900999644,549.2894332999713,549.2894332999713,549.2894332999713,552.2895103999763,552.2895103999763,552.2895103999763,552.2729710999993,indoor,j,552.2730134999729,,,552.2730251999456,None,,,2.0694544999860227,0.07997879997128621,,,,,,,,,,00055,001,2026-01-18_21h39.30.446,MST_task,2024.2.0,59.96257135718122,2026-01-18 21h39.51.986785 +0530,
,Objects\129a.jpg,97,0,98,,,,,,,None,f,1.3623551999917254,None,,,,,,98,0,97,552.2895103999763,,,,,,,,,,,,,,,,,,,,,,,552.2730895999703,552.2895103999763,552.7894010999589,552.7725546999718,,,,,,,,,,,,,,,,,,,,,,,,,,552.7757868999615,552.7894010999589,552.7894010999589,552.7894010999589,555.7890583999688,555.7890583999688,555.7890583999688,555.773083499982,indoor,None,555.773121199978,555.7890583999688,555.7890583999688,557.1560218999512,f,1.3623551999917254,None,,,,,,,,,,,,00055,001,2026-01-18_21h39.30.446,MST_task,2024.2.0,59.96257135718122,2026-01-18 21h39.51.986785 +0530,
,Objects\289a.jpg,98,0,99,,,,,,,None,f,0.17451769998297095,None,,,,,,99,0,98,557.172341599944,,,,,,,,,,,,,,,,,,,,,,,557.1561092999764,557.172341599944,557.6727599999867,557.6559510999941,,,,,,,,,,,,,,,,,,,,,,,,,,557.6612494999426,557.6727599999867,557.6727599999867,557.6727599999867,560.6724175999989,560.6724175999989,560.6724175999989,560.6565826999722,shoe,None,560.6590515999706,560.6724175999989,560.6724175999989,560.8562189999502,f,0.17451769998297095,None,,,,,,,,,,,,00055,001,2026-01-18_21h39.30.446,MST_task,2024.2.0,59.96257135718122,2026-01-18 21h39.51.986785 +0530,
,Objects\347a.jpg,99,0,100,,,,,,,f,None,,,1.6266605999553576,0.06399950000923127,,,,100,0,99,560.8724324999494,,,,,,,,,,,,,,,,,,,,,,,560.8563121999614,560.8724324999494,561.3728666999959,561.3560933999834,,,,,,,,,,,,,,,,,,,,,,,,,,561.3593359999941,561.3728666999959,561.3728666999959,561.3728666999959,564.372289699968,564.372289699968,564.372289699968,564.3561437999597,shoe,f,564.3561862999923,,,564.3561989999725,None,,,1.6266605999553576,0.06399950000923127,,,,,,,,,,00055,001,2026-01-18_21h39.30.446,MST_task,2024.2.0,59.96257135718122,2026-01-18 21h39.51.986785 +0530,
,Objects\367a.jpg,100,0,101,,,,,,,f,None,,,1.5178612999734469,0.07198670000070706,,,,101,0,100,564.372289699968,,,,,,,,,,,,,,,,,,,,,,,564.3562633999973,564.372289699968,564.8726164999534,564.8560722999973,,,,,,,,,,,,,,,,,,,,,,,,,,564.8676203999785,564.8726164999534,564.8726164999534,564.8726164999534,567.8722288999707,567.8722288999707,567.8722288999707,567.856263499998,shoe,f,567.8563085999922,,,567.8563212999725,None,,,1.5178612999734469,0.07198670000070706,,,,,,,,,,00055,001,2026-01-18_21h39.30.446,MST_task,2024.2.0,59.96257135718122,2026-01-18 21h39.51.986785 +0530,
,Objects\091a.jpg,101,0,102,,,,,,,j,None,,,2.946452300006058,None,,,,102,0,101,567.8722288999707,,,,,,,,,,,,,,,,,,,,,,,567.8563847999903,567.8722288999707,568.3726094999583,568.3561250999919,,,,,,,,,,,,,,,,,,,,,,,,,,568.3590260999626,568.3726094999583,568.3726094999583,568.3726094999583,571.3722371999756,571.3722371999756,571.3722371999756,571.3562491999473,shoe,j,571.3562894999632,,,571.3563013999956,None,,,2.946452300006058,None,,,,,,,,,,00055,001,2026-01-18_21h39.30.446,MST_task,2024.2.0,59.96257135718122,2026-01-18 21h39.51.986785 +0530,
,Objects\213a.jpg,102,0,103,,,,,,,f,None,,,1.5257602999918163,0.07199590001255274,,,,103,0,102,571.3722371999756,,,,,,,,,,,,,,,,,,,,,,,571.3563947999501,571.3722371999756,571.8727348999819,571.8559203999466,,,,,,,,,,,,,,,,,,,,,,,,,,571.8595686999615,571.8727348999819,571.8727348999819,571.8727348999819,574.8724535999936,574.8724535999936,574.8724535999936,574.8566915999982,shoe,f,574.8567515999894,,,574.8567646999727,None,,,1.5257602999918163,0.07199590001255274,,,,,,,,,,00055,001,2026-01-18_21h39.30.446,MST_task,2024.2.0,59.96257135718122,2026-01-18 21h39.51.986785 +0530,
,Objects\273a.jpg,103,0,104,,,,,,,f,None,,,1.962220499990508,0.06400509999366477,,,,104,0,103,574.8724535999936,,,,,,,,,,,,,,,,,,,,,,,574.8568346999818,574.8724535999936,575.3725750999874,575.3559540999704,,,,,,,,,,,,,,,,,,,,,,,,,,575.3666090999614,575.3725750999874,575.3725750999874,575.3725750999874,578.3722247999976,578.3722247999976,578.3722247999976,578.3562893999624,shoe,f,578.3563304999843,,,578.356342199957,None,,,1.962220499990508,0.06400509999366477,,,,,,,,,,00055,001,2026-01-18_21h39.30.446,MST_task,2024.2.0,59.96257135718122,2026-01-18 21h39.51.986785 +0530,
,Objects\246a.jpg,104,0,105,,,,,,,f,None,,,2.7905057999887504,0.06399920000694692,,,,105,0,104,578.3722247999976,,,,,,,,,,,,,,,,,,,,,,,578.3564067999832,578.3722247999976,578.8725456999964,578.8559237999725,,,,,,,,,,,,,,,,,,,,,,,,,,578.8584088999778,578.8725456999964,578.8725456999964,578.8725456999964,581.8722933999961,581.8722933999961,581.8722933999961,581.8562689999817,shoe,f,581.8563147999812,,,581.8563264999539,None,,,2.7905057999887504,0.06399920000694692,,,,,,,,,,00055,001,2026-01-18_21h39.30.446,MST_task,2024.2.0,59.96257135718122,2026-01-18 21h39.51.986785 +0530,
,Objects\153a.jpg,105,0,106,,,,,,,None,f,0.9944487999891862,None,,,,,,106,0,105,581.8722933999961,,,,,,,,,,,,,,,,,,,,,,,581.8563911999809,581.8722933999961,582.3723638999509,582.3559392999741,,,,,,,,,,,,,,,,,,,,,,,,,,582.3601017999463,582.3723638999509,582.3723638999509,582.3723638999509,585.3723297999823,585.3723297999823,585.3723297999823,585.3562177999993,indoor,None,585.3579200999811,585.3723297999823,585.3723297999823,586.3727732999832,f,0.9944487999891862,None,,,,,,,,,,,,00055,001,2026-01-18_21h39.30.446,MST_task,2024.2.0,59.96257135718122,2026-01-18 21h39.51.986785 +0530,
,Objects\345a.jpg,106,0,107,,,,,,,None,f,1.0543236000230536,None,,,,,,107,0,106,586.3889619999682,,,,,,,,,,,,,,,,,,,,,,,586.3728589999955,586.3889619999682,586.8892294999678,586.8725651999703,,,,,,,,,,,,,,,,,,,,,,,,,,586.8828628999763,586.8892294999678,586.8892294999678,586.8892294999678,589.8889751999523,589.8889751999523,589.8889751999523,589.8728385999566,indoor,None,589.8728764999541,589.8889751999523,589.8889751999523,590.9561379999504,f,1.0543236000230536,None,,,,,,,,,,,,00055,001,2026-01-18_21h39.30.446,MST_task,2024.2.0,59.96257135718122,2026-01-18 21h39.51.986785 +0530,
,Objects\384a.jpg,107,0,108,,,,,,,None,f,0.8621904000174254,None,,,,,,108,0,107,590.9721947999788,,,,,,,,,,,,,,,,,,,,,,,590.9562334999791,590.9721947999788,591.4723696999718,591.4560233999509,,,,,,,,,,,,,,,,,,,,,,,,,,591.4597978999955,591.4723696999718,591.4723696999718,591.4723696999718,594.4722642999841,594.4722642999841,594.4722642999841,594.4563230999629,indoor,None,594.4563644999871,594.4722642999841,594.4722642999841,595.3394307999988,f,0.8621904000174254,None,,,,,,,,,,,,00055,001,2026-01-18_21h39.30.446,MST_task,2024.2.0,59.96257135718122,2026-01-18 21h39.51.986785 +0530,
,Objects\339a.jpg,108,0,109,,,,,,,None,j,0.9992044999962673,None,,,,,,109,0,108,595.3557976999437,,,,,,,,,,,,,,,,,,,,,,,595.3395258999662,595.3557976999437,595.8560609999695,595.8391980999731,,,,,,,,,,,,,,,,,,,,,,,,,,595.8427213999676,595.8560609999695,595.8560609999695,595.8560609999695,598.8558510999428,598.8558510999428,598.8558510999428,598.8397247999674,indoor,None,598.8397770999582,598.8558510999428,598.8558510999428,599.8561937999912,j,0.9992044999962673,None,,,,,,,,,,,,00055,001,2026-01-18_21h39.30.446,MST_task,2024.2.0,59.96257135718122,2026-01-18 21h39.51.986785 +0530,
,Objects\211a.jpg,109,0,110,,,,,,,None,j,0.3304184000007808,None,,,,,,110,0,109,599.8722300999798,,,,,,,,,,,,,,,,,,,,,,,599.8562798999483,599.8722300999798,600.3726583999814,600.3559945999878,,,,,,,,,,,,,,,,,,,,,,,,,,600.359153999947,600.3726583999814,600.3726583999814,600.3726583999814,603.3723062999779,603.3723062999779,603.3723062999779,603.3562310999841,indoor,None,603.3562676999718,603.3723062999779,603.3723062999779,603.7061409999733,j,0.3304184000007808,None,,,,,,,,,,,,00055,001,2026-01-18_21h39.30.446,MST_task,2024.2.0,59.96257135718122,2026-01-18 21h39.51.986785 +0530,
,Objects\232a.jpg,110,0,111,,,,,,,None,f,2.4799944999977015,None,,,,,,111,0,110,603.722289999947,,,,,,,,,,,,,,,,,,,,,,,603.7062272999901,603.722289999947,604.2227183999494,604.2060663999873,,,,,,,,,,,,,,,,,,,,,,,,,,604.2088728999952,604.2227183999494,604.2227183999494,604.2227183999494,,,,607.2068042999599,indoor,None,607.2068426999613,607.2223195999977,607.2223195999977,609.7061060999986,f,2.4799944999977015,None,,,,,,,,,,,,00055,001,2026-01-18_21h39.30.446,MST_task,2024.2.0,59.96257135718122,2026-01-18 21h39.51.986785 +0530,
,Objects\225a.jpg,111,0,112,,,,,,,None,f,0.392192899947986,None,,,,,,112,0,111,609.7222041999921,,,,,,,,,,,,,,,,,,,,,,,609.7061960999854,609.7222041999921,610.2227871999494,610.2060683999443,,,,,,,,,,,,,,,,,,,,,,,,,,610.208576999954,610.2227871999494,610.2227871999494,610.2227871999494,,,,613.2065220999648,indoor,None,613.2065589999547,613.222211699991,613.222211699991,613.6229396999697,f,0.392192899947986,None,,,,,,,,,,,,00055,001,2026-01-18_21h39.30.446,MST_task,2024.2.0,59.96257135718122,2026-01-18 21h39.51.986785 +0530,
,Objects\270a.jpg,112,0,113,,,,,,,j,None,,,2.3148732999688946,0.11210000002756715,,,,113,0,112,613.6390537999687,,,,,,,,,,,,,,,,,,,,,,,613.6230243999744,613.6390537999687,614.1395507999696,614.1227758999448,,,,,,,,,,,,,,,,,,,,,,,,,,614.1272788999486,614.1395507999696,614.1395507999696,614.1395507999696,617.1389868999831,617.1389868999831,617.1389868999831,617.1230015999754,shoe,j,617.1252359999926,,,617.1252533999505,None,,,2.3148732999688946,0.11210000002756715,,,,,,,,,,00055,001,2026-01-18_21h39.30.446,MST_task,2024.2.0,59.96257135718122,2026-01-18 21h39.51.986785 +0530,
,Objects\099a.jpg,113,0,114,,,,,,,None,j,0.03168670000741258,None,,,,,,114,0,113,617.1389868999831,,,,,,,,,,,,,,,,,,,,,,,617.1253221999505,617.1389868999831,617.6393079999834,617.6224911999889,,,,,,,,,,,,,,,,,,,,,,,,,,617.6256906999624,617.6393079999834,617.6393079999834,617.6393079999834,620.6390498999972,620.6390498999972,620.6390498999972,620.6228832999477,shoe,None,620.6229237999651,620.6390498999972,620.6390498999972,620.6726909999852,j,0.03168670000741258,None,,,,,,,,,,,,00055,001,2026-01-18_21h39.30.446,MST_task,2024.2.0,59.96257135718122,2026-01-18 21h39.51.986785 +0530,
,Objects\014a.jpg,114,0,115,,,,,,,f,None,,,1.6658095000311732,0.11195769999176264,,,,115,0,114,620.6889696999569,,,,,,,,,,,,,,,,,,,,,,,620.6727858999511,620.6889696999569,621.1893605999649,621.1725876999553,,,,,,,,,,,,,,,,,,,,,,,,,,621.1754120999831,621.1893605999649,621.1893605999649,621.1893605999649,624.1890872999793,624.1890872999793,624.1890872999793,624.1730341999792,shoe,f,624.1730756999459,,,624.1730886999867,None,,,1.6658095000311732,0.11195769999176264,,,,,,,,,,00055,001,2026-01-18_21h39.30.446,MST_task,2024.2.0,59.96257135718122,2026-01-18 21h39.51.986785 +0530,
,Objects\353a.jpg,115,0,116,,,,,,,f,None,,,1.2619187000091188,0.10354780004126951,,,,116,0,115,624.1890872999793,,,,,,,,,,,,,,,,,,,,,,,624.1731864999747,624.1890872999793,624.6895951999468,624.6727046999731,,,,,,,,,,,,,,,,,,,,,,,,,,624.6755148999509,624.6895951999468,624.6895951999468,624.6895951999468,627.6891704999725,627.6891704999725,627.6891704999725,627.6730338999769,shoe,f,627.6730757999467,,,627.6730879999814,None,,,1.2619187000091188,0.10354780004126951,,,,,,,,,,00055,001,2026-01-18_21h39.30.446,MST_task,2024.2.0,59.96257135718122,2026-01-18 21h39.51.986785 +0530,
,Objects\277a.jpg,116,0,117,,,,,,,f,None,,,2.2807860000175424,0.07202969997888431,,,,117,0,116,627.6891704999725,,,,,,,,,,,,,,,,,,,,,,,627.6731536999578,627.6891704999725,628.1896069999784,628.1726514999755,,,,,,,,,,,,,,,,,,,,,,,,,,628.175675699953,628.1896069999784,628.1896069999784,628.1896069999784,631.1891573999892,631.1891573999892,631.1891573999892,631.173170199967,shoe,f,631.1732181999832,,,631.1732319999719,None,,,2.2807860000175424,0.07202969997888431,,,,,,,,,,00055,001,2026-01-18_21h39.30.446,MST_task,2024.2.0,59.96257135718122,2026-01-18 21h39.51.986785 +0530,
,Objects\357a.jpg,117,0,118,,,,,,,j,None,,,2.5494079000200145,0.06400690000737086,,,,118,0,117,631.1891573999892,,,,,,,,,,,,,,,,,,,,,,,631.1732997999643,631.1891573999892,631.6894919999759,631.6725686999853,,,,,,,,,,,,,,,,,,,,,,,,,,631.6850737999775,631.6894919999759,631.6894919999759,631.6894919999759,634.689171999984,634.689171999984,634.689171999984,634.6728958999738,shoe,j,634.672937299998,,,634.6729494999745,None,,,2.5494079000200145,0.06400690000737086,,,,,,,,,,00055,001,2026-01-18_21h39.30.446,MST_task,2024.2.0,59.96257135718122,2026-01-18 21h39.51.986785 +0530,
,Objects\068a.jpg,118,0,119,,,,,,,j,None,,,2.145760399987921,0.07942710001952946,,,,119,0,118,634.689171999984,,,,,,,,,,,,,,,,,,,,,,,634.6730146999471,634.689171999984,635.1892786999815,635.1725827999762,,,,,,,,,,,,,,,,,,,,,,,,,,635.1818371999543,635.1892786999815,635.1892786999815,635.1892786999815,638.1890702999663,638.1890702999663,638.1890702999663,638.1729170999606,shoe,j,638.1729595999932,,,638.1729725999758,None,,,2.145760399987921,0.07942710001952946,,,,,,,,,,00055,001,2026-01-18_21h39.30.446,MST_task,2024.2.0,59.96257135718122,2026-01-18 21h39.51.986785 +0530,
,Objects\356a.jpg,119,0,120,,,,,,,None,f,1.5822222999995574,None,,,,,,120,0,119,638.1890702999663,,,,,,,,,,,,,,,,,,,,,,,638.1730400999659,638.1890702999663,638.6895074999775,638.6728036999702,,,,,,,,,,,,,,,,,,,,,,,,,,638.6777445999905,638.6895074999775,638.6895074999775,638.6895074999775,641.6890816999949,641.6890816999949,641.6890816999949,641.6729311999516,indoor,None,641.674592699972,641.6890816999949,641.6890816999949,643.272762299981,f,1.5822222999995574,None,,,,,,,,,,,,00055,001,2026-01-18_21h39.30.446,MST_task,2024.2.0,59.96257135718122,2026-01-18 21h39.51.986785 +0530,
,Objects\222a.jpg,120,0,121,,,,,,,j,None,,,2.481664000020828,0.0799743999959901,,,,121,0,120,643.2890485999524,,,,,,,,,,,,,,,,,,,,,,,643.2728532999754,643.2890485999524,643.7895337999798,643.7727928999811,,,,,,,,,,,,,,,,,,,,,,,,,,643.7756682999898,643.7895337999798,643.7895337999798,643.7895337999798,646.7892096999567,646.7892096999567,646.7892096999567,646.7732163999463,indoor,j,646.7732659999747,,,646.7732794999611,None,,,2.481664000020828,0.0799743999959901,,,,,,,,,,00055,001,2026-01-18_21h39.30.446,MST_task,2024.2.0,59.96257135718122,2026-01-18 21h39.51.986785 +0530,
,Objects\027a.jpg,121,0,122,,,,,,,f,None,,,1.4052882000105456,0.10342100000707433,,,,122,0,121,646.7892096999567,,,,,,,,,,,,,,,,,,,,,,,646.7733456999995,646.7892096999567,647.2895666999975,647.2727067999658,,,,,,,,,,,,,,,,,,,,,,,,,,647.2762888999423,647.2895666999975,647.2895666999975,647.2895666999975,650.2892346999724,650.2892346999724,650.2892346999724,650.2730862999451,indoor,f,650.2731304999907,,,650.2731420999626,None,,,1.4052882000105456,0.10342100000707433,,,,,,,,,,00055,001,2026-01-18_21h39.30.446,MST_task,2024.2.0,59.96257135718122,2026-01-18 21h39.51.986785 +0530,
,Objects\161a.jpg,122,0,123,,,,,,,None,f,1.4022637999732979,None,,,,,,123,0,122,650.2892346999724,,,,,,,,,,,,,,,,,,,,,,,650.2732091999496,650.2892346999724,650.7892273999751,650.7727843999746,,,,,,,,,,,,,,,,,,,,,,,,,,650.775222599972,650.7892273999751,650.7892273999751,650.7892273999751,653.7890160999959,653.7890160999959,653.7890160999959,653.7729044999578,indoor,None,653.7729422999546,653.7890160999959,653.7890160999959,655.2063740999438,f,1.4022637999732979,None,,,,,,,,,,,,00055,001,2026-01-18_21h39.30.446,MST_task,2024.2.0,59.96257135718122,2026-01-18 21h39.51.986785 +0530,
,Objects\142a.jpg,123,0,124,,,,,,,f,None,,,1.6840587999904528,0.09605569997802377,,,,124,0,123,655.2222146999557,,,,,,,,,,,,,,,,,,,,,,,655.20645899995,655.2222146999557,655.7225711999927,655.7060586999869,,,,,,,,,,,,,,,,,,,,,,,,,,655.7164459999767,655.7225711999927,655.7225711999927,655.7225711999927,,,,658.7068415999529,indoor,f,658.7068902999745,,,658.7069037999609,None,,,1.6840587999904528,0.09605569997802377,,,,,,,,,,00055,001,2026-01-18_21h39.30.446,MST_task,2024.2.0,59.96257135718122,2026-01-18 21h39.51.986785 +0530,
,Objects\116a.jpg,124,0,125,,,,,,,f,None,,,1.975832200027071,0.09601799998199567,,,,125,0,124,658.7222209999454,,,,,,,,,,,,,,,,,,,,,,,658.7069691999932,658.7222209999454,659.2227017999976,659.2067417999497,,,,,,,,,,,,,,,,,,,,,,,,,,659.2092085999902,659.2227017999976,659.2227017999976,659.2227017999976,662.2223579999991,662.2223579999991,662.2223579999991,662.2064170999802,indoor,f,662.2064661999466,,,662.2064795999904,None,,,1.975832200027071,0.09601799998199567,,,,,,,,,,00055,001,2026-01-18_21h39.30.446,MST_task,2024.2.0,59.96257135718122,2026-01-18 21h39.51.986785 +0530,
,Objects\340a.jpg,125,0,126,,,,,,,None,f,0.8206683999742381,None,,,,,,126,0,125,662.2223579999991,,,,,,,,,,,,,,,,,,,,,,,662.2065498999436,662.2223579999991,662.7226392999873,662.706147299963,,,,,,,,,,,,,,,,,,,,,,,,,,662.7089485999895,662.7226392999873,662.7226392999873,662.7226392999873,665.7223705999786,665.7223705999786,665.7223705999786,665.7062185999821,indoor,None,665.7062547999667,665.7223705999786,665.7223705999786,666.5561427999637,f,0.8206683999742381,None,,,,,,,,,,,,00055,001,2026-01-18_21h39.30.446,MST_task,2024.2.0,59.96257135718122,2026-01-18 21h39.51.986785 +0530,
,Objects\192a.jpg,126,0,127,,,,,,,f,None,,,1.1340086999698542,0.1041321000084281,,,,127,0,126,666.5722678999882,,,,,,,,,,,,,,,,,,,,,,,666.5562368999817,666.5722678999882,667.0726814999944,667.0559651999502,,,,,,,,,,,,,,,,,,,,,,,,,,667.0614822999923,667.0726814999944,667.0726814999944,667.0726814999944,670.0723293999908,670.0723293999908,670.0723293999908,670.0564831999945,shoe,f,670.0586213999777,,,670.0586422999622,None,,,1.1340086999698542,0.1041321000084281,,,,,,,,,,00055,001,2026-01-18_21h39.30.446,MST_task,2024.2.0,59.96257135718122,2026-01-18 21h39.51.986785 +0530,
,Objects\182a.jpg,127,0,128,,,,,,,None,f,0.06709299999056384,None,,,,,,128,0,127,670.0723293999908,,,,,,,,,,,,,,,,,,,,,,,670.0587245999486,670.0723293999908,670.5724891999853,670.5560609999811,,,,,,,,,,,,,,,,,,,,,,,,,,670.566334699979,670.5724891999853,670.5724891999853,670.5724891999853,673.5723515999853,673.5723515999853,673.5723515999853,673.5562605999876,shoe,None,673.5562984999851,673.5723515999853,673.5723515999853,673.6560847999644,f,0.06709299999056384,None,,,,,,,,,,,,00055,001,2026-01-18_21h39.30.446,MST_task,2024.2.0,59.96257135718122,2026-01-18 21h39.51.986785 +0530,
,Objects\188a.jpg,128,0,129,,,,,,,f,None,,,1.0824950999813154,0.09589970001252368,,,,129,0,128,673.6723219999694,,,,,,,,,,,,,,,,,,,,,,,673.6561666999478,673.6723219999694,674.1725464999909,674.1559782999684,,,,,,,,,,,,,,,,,,,,,,,,,,674.158626199991,674.1725464999909,674.1725464999909,674.1725464999909,677.172243399953,677.172243399953,677.172243399953,677.1562638999894,shoe,f,677.1563068999676,,,677.1563197999494,None,,,1.0824950999813154,0.09589970001252368,,,,,,,,,,00055,001,2026-01-18_21h39.30.446,MST_task,2024.2.0,59.96257135718122,2026-01-18 21h39.51.986785 +0530,
,Objects\043a.jpg,129,0,130,,,,,,,f,None,,,1.886313800001517,0.10500520002096891,,,,130,0,129,677.172243399953,,,,,,,,,,,,,,,,,,,,,,,677.1564644999453,677.172243399953,677.6726294999826,677.6562442999566,,,,,,,,,,,,,,,,,,,,,,,,,,677.6593354999786,677.6726294999826,677.6726294999826,677.6726294999826,680.6723099999945,680.6723099999945,680.6723099999945,680.6562470999779,shoe,f,680.6562900999561,,,680.6563030999969,None,,,1.886313800001517,0.10500520002096891,,,,,,,,,,00055,001,2026-01-18_21h39.30.446,MST_task,2024.2.0,59.96257135718122,2026-01-18 21h39.51.986785 +0530,
,Objects\231a.jpg,130,0,131,,,,,,,j,None,,,1.7222972000017762,0.08799560001352802,,,,131,0,130,680.6723099999945,,,,,,,,,,,,,,,,,,,,,,,680.6563686999725,680.6723099999945,681.1727633999544,681.1560117999907,,,,,,,,,,,,,,,,,,,,,,,,,,681.1672567999922,681.1727633999544,681.1727633999544,681.1727633999544,684.1722974999575,684.1722974999575,684.1722974999575,684.1563727999455,shoe,j,684.156416999991,,,684.156429399969,None,,,1.7222972000017762,0.08799560001352802,,,,,,,,,,00055,001,2026-01-18_21h39.30.446,MST_task,2024.2.0,59.96257135718122,2026-01-18 21h39.51.986785 +0530,
,Objects\327a.jpg,131,0,132,,,,,,,j,None,,,1.1577843999839388,0.09599250002065673,,,,132,0,131,684.1722974999575,,,,,,,,,,,,,,,,,,,,,,,684.1564960999531,684.1722974999575,684.6725479999441,684.6559774999623,,,,,,,,,,,,,,,,,,,,,,,,,,684.6602863999433,684.6725479999441,684.6725479999441,684.6725479999441,687.6723068999709,687.6723068999709,687.6723068999709,687.6563357999548,shoe,j,687.6563790999935,,,687.6563914999715,None,,,1.1577843999839388,0.09599250002065673,,,,,,,,,,00055,001,2026-01-18_21h39.30.446,MST_task,2024.2.0,59.96257135718122,2026-01-18 21h39.51.986785 +0530,
,Objects\381a.jpg,132,0,133,,,,,,,j,None,,,1.9537354000494815,0.0808178999577649,,,,133,0,132,687.6723068999709,,,,,,,,,,,,,,,,,,,,,,,687.6564572999487,687.6723068999709,688.172689399973,688.1560043999925,,,,,,,,,,,,,,,,,,,,,,,,,,688.15908209997,688.172689399973,688.172689399973,688.172689399973,691.172301499988,691.172301499988,691.172301499988,691.1562670999556,shoe,j,691.156310099992,,,691.1563227999723,None,,,1.9537354000494815,0.0808178999577649,,,,,,,,,,00055,001,2026-01-18_21h39.30.446,MST_task,2024.2.0,59.96257135718122,2026-01-18 21h39.51.986785 +0530,
,Objects\003a.jpg,133,0,134,,,,,,,None,f,0.6221125000156462,None,,,,,,134,0,133,691.172301499988,,,,,,,,,,,,,,,,,,,,,,,691.1564186999458,691.172301499988,691.6727186999633,691.6559612999554,,,,,,,,,,,,,,,,,,,,,,,,,,691.6689112999593,691.6727186999633,691.6727186999633,691.6727186999633,694.6722675999627,694.6722675999627,694.6722675999627,694.656377199979,indoor,None,694.6580568999634,694.6722675999627,694.6722675999627,695.3061717999517,f,0.6221125000156462,None,,,,,,,,,,,,00055,001,2026-01-18_21h39.30.446,MST_task,2024.2.0,59.96257135718122,2026-01-18 21h39.51.986785 +0530,
,Objects\064a.jpg,134,0,135,,,,,,,None,f,2.128438699990511,None,,,,,,135,0,134,695.3223281999817,,,,,,,,,,,,,,,,,,,,,,,695.3062607999891,695.3223281999817,695.8224279999849,695.8059687999776,,,,,,,,,,,,,,,,,,,,,,,,,,695.816104699974,695.8224279999849,695.8224279999849,695.8224279999849,698.8223334999639,698.8223334999639,698.8223334999639,698.806232999952,indoor,None,698.8062712999526,698.8223334999639,698.8223334999639,700.9562293999479,f,2.128438699990511,None,,,,,,,,,,,,00055,001,2026-01-18_21h39.30.446,MST_task,2024.2.0,59.96257135718122,2026-01-18 21h39.51.986785 +0530,
,Objects\382a.jpg,135,0,136,,,,,,,None,j,1.198788300040178,None,,,,,,136,0,135,700.9723187999916,,,,,,,,,,,,,,,,,,,,,,,700.956317299977,700.9723187999916,701.4728093999438,701.4560581999831,,,,,,,,,,,,,,,,,,,,,,,,,,701.4586962999892,701.4728093999438,701.4728093999438,701.4728093999438,704.4724064999609,704.4724064999609,704.4724064999609,704.4563907999545,indoor,None,704.4564316999749,704.4724064999609,704.4724064999609,705.6726624000003,j,1.198788300040178,None,,,,,,,,,,,,00055,001,2026-01-18_21h39.30.446,MST_task,2024.2.0,59.96257135718122,2026-01-18 21h39.51.986785 +0530,
,Objects\021a.jpg,136,0,137,,,,,,,None,f,0.9620755999931134,None,,,,,,137,0,136,705.6890661999932,,,,,,,,,,,,,,,,,,,,,,,705.6727480999543,705.6890661999932,706.1894767999765,706.1725109999534,,,,,,,,,,,,,,,,,,,,,,,,,,706.1827857999597,706.1894767999765,706.1894767999765,706.1894767999765,709.1891665000003,709.1891665000003,709.1891665000003,709.1730043999851,indoor,None,709.1730483999709,709.1891665000003,709.1891665000003,710.1562752999598,f,0.9620755999931134,None,,,,,,,,,,,,00055,001,2026-01-18_21h39.30.446,MST_task,2024.2.0,59.96257135718122,2026-01-18 21h39.51.986785 +0530,
,Objects\344a.jpg,137,0,138,,,,,,,None,f,2.703667099995073,None,,,,,,138,0,137,710.1722545999801,,,,,,,,,,,,,,,,,,,,,,,710.1563610999729,710.1722545999801,710.6727782999515,710.6560898999451,,,,,,,,,,,,,,,,,,,,,,,,,,710.6589040999534,710.6727782999515,710.6727782999515,710.6727782999515,713.6722617999767,713.6722617999767,713.6722617999767,713.6562735999469,indoor,None,713.6563096999889,713.6722617999767,713.6722617999767,716.3894032999524,f,2.703667099995073,None,,,,,,,,,,,,00055,001,2026-01-18_21h39.30.446,MST_task,2024.2.0,59.96257135718122,2026-01-18 21h39.51.986785 +0530,
,Objects\376a.jpg,138,0,139,,,,,,,f,None,,,0.820635600015521,0.11201480001909658,,,,139,0,138,716.4057269999757,,,,,,,,,,,,,,,,,,,,,,,716.3894899999723,716.4057269999757,716.9061062999535,716.8893280999619,,,,,,,,,,,,,,,,,,,,,,,,,,716.8924444999429,716.9061062999535,716.9061062999535,716.9061062999535,719.9057453999994,719.9057453999994,719.9057453999994,719.8896158999996,indoor,f,719.8896567999618,,,719.8896690999973,None,,,0.820635600015521,0.11201480001909658,,,,,,,,,,00055,001,2026-01-18_21h39.30.446,MST_task,2024.2.0,59.96257135718122,2026-01-18 21h39.51.986785 +0530,
,Objects\076a.jpg,139,0,140,,,,,,,j,None,,,2.056550699984655,0.10423689999151975,,,,140,0,139,719.9057453999994,,,,,,,,,,,,,,,,,,,,,,,719.8897323999554,719.9057453999994,720.4059663999942,720.389238099975,,,,,,,,,,,,,,,,,,,,,,,,,,720.3916562999948,720.4059663999942,720.4059663999942,720.4059663999942,723.4057255999651,723.4057255999651,723.4057255999651,723.3897106999648,indoor,j,723.3897550999536,,,723.389766999986,None,,,2.056550699984655,0.10423689999151975,,,,,,,,,,00055,001,2026-01-18_21h39.30.446,MST_task,2024.2.0,59.96257135718122,2026-01-18 21h39.51.986785 +0530,
,Objects\184a.jpg,140,0,141,,,,,,,j,None,,,1.8605439999955706,0.1046331999823451,,,,141,0,140,723.4057255999651,,,,,,,,,,,,,,,,,,,,,,,723.389830799948,723.4057255999651,723.905920499994,723.8893376999767,,,,,,,,,,,,,,,,,,,,,,,,,,723.8943536999868,723.905920499994,723.905920499994,723.905920499994,726.9057656999794,726.9057656999794,726.9057656999794,726.8897206999827,shoe,j,726.891828599968,,,726.8918462999864,None,,,1.8605439999955706,0.1046331999823451,,,,,,,,,,00055,001,2026-01-18_21h39.30.446,MST_task,2024.2.0,59.96257135718122,2026-01-18 21h39.51.986785 +0530,
,Objects\307a.jpg,141,0,142,,,,,,,j,None,,,1.7287194000091404,0.08852370001841336,,,,142,0,141,726.9057656999794,,,,,,,,,,,,,,,,,,,,,,,726.8919475999428,726.9057656999794,727.4058878999786,727.3892430999549,,,,,,,,,,,,,,,,,,,,,,,,,,727.3916450999677,727.4058878999786,727.4058878999786,727.4058878999786,730.4057779999566,730.4057779999566,730.4057779999566,730.3895675999811,shoe,j,730.3896124999737,,,730.3896252999548,None,,,1.7287194000091404,0.08852370001841336,,,,,,,,,,00055,001,2026-01-18_21h39.30.446,MST_task,2024.2.0,59.96257135718122,2026-01-18 21h39.51.986785 +0530,
,Objects\322a.jpg,142,0,143,,,,,,,f,None,,,0.9253214999916963,0.10294900002190843,,,,143,0,142,730.4057779999566,,,,,,,,,,,,,,,,,,,,,,,730.3896891999757,730.4057779999566,730.9061094999779,730.889372799953,,,,,,,,,,,,,,,,,,,,,,,,,,730.8930702999933,730.9061094999779,730.9061094999779,730.9061094999779,733.9058202999877,733.9058202999877,733.9058202999877,733.8897612999426,shoe,f,733.8898085999535,,,733.8898209999898,None,,,0.9253214999916963,0.10294900002190843,,,,,,,,,,00055,001,2026-01-18_21h39.30.446,MST_task,2024.2.0,59.96257135718122,2026-01-18 21h39.51.986785 +0530,
,Objects\019a.jpg,143,0,144,,,,,,,None,j,0.5533741000108421,None,,,,,,144,0,143,733.9058202999877,,,,,,,,,,,,,,,,,,,,,,,733.8898867999669,733.9058202999877,734.4060775999678,734.3893889999599,,,,,,,,,,,,,,,,,,,,,,,,,,734.3924757999484,734.4060775999678,734.4060775999678,734.4060775999678,737.4056980999885,737.4056980999885,737.4056980999885,737.3896502999705,shoe,None,737.3896899999818,737.4056980999885,737.4056980999885,737.9728394999984,j,0.5533741000108421,None,,,,,,,,,,,,00055,001,2026-01-18_21h39.30.446,MST_task,2024.2.0,59.96257135718122,2026-01-18 21h39.51.986785 +0530,
,Objects\092a.jpg,144,0,145,,,,,,,f,None,,,0.8461041999980807,0.11109489999944344,,,,145,0,144,737.9890976999886,,,,,,,,,,,,,,,,,,,,,,,737.9729276999715,737.9890976999886,738.4892950999783,738.4727357999654,,,,,,,,,,,,,,,,,,,,,,,,,,738.4756071999436,738.4892950999783,738.4892950999783,738.4892950999783,741.4890237999498,741.4890237999498,741.4890237999498,741.4730423999717,shoe,f,741.4730838999967,,,741.4730963999755,None,,,0.8461041999980807,0.11109489999944344,,,,,,,,,,00055,001,2026-01-18_21h39.30.446,MST_task,2024.2.0,59.96257135718122,2026-01-18 21h39.51.986785 +0530,
,Objects\024a.jpg,145,0,146,,,,,,,None,f,0.9534235000028275,None,,,,,,146,0,145,741.4890237999498,,,,,,,,,,,,,,,,,,,,,,,741.4731917999452,741.4890237999498,741.9893182999804,741.9725798,,,,,,,,,,,,,,,,,,,,,,,,,,741.9844239999657,741.9893182999804,741.9893182999804,741.9893182999804,744.9891998999519,744.9891998999519,744.9891998999519,744.9731789999641,shoe,None,744.9732206999906,744.9891998999519,744.9891998999519,745.9563280000002,f,0.9534235000028275,None,,,,,,,,,,,,00055,001,2026-01-18_21h39.30.446,MST_task,2024.2.0,59.96257135718122,2026-01-18 21h39.51.986785 +0530,
,Objects\309a.jpg,146,0,147,,,,,,,None,f,0.0459192999987863,None,,,,,,147,0,146,745.9724348999443,,,,,,,,,,,,,,,,,,,,,,,745.9564581999439,745.9724348999443,746.4731181999668,746.4563793999841,,,,,,,,,,,,,,,,,,,,,,,,,,746.466758799972,746.4731181999668,746.4731181999668,746.4731181999668,749.4724302999675,749.4724302999675,749.4724302999675,749.4565188999986,shoe,None,749.4565554999863,749.4724302999675,749.4724302999675,749.5228017999907,f,0.0459192999987863,None,,,,,,,,,,,,00055,001,2026-01-18_21h39.30.446,MST_task,2024.2.0,59.96257135718122,2026-01-18 21h39.51.986785 +0530,
,Objects\371a.jpg,147,0,148,,,,,,,None,j,1.5363607999752276,None,,,,,,148,0,147,749.5391765999957,,,,,,,,,,,,,,,,,,,,,,,749.5228858999908,749.5391765999957,750.039687499986,750.022803699947,,,,,,,,,,,,,,,,,,,,,,,,,,750.0350892999559,750.039687499986,750.039687499986,750.039687499986,753.0392063999898,753.0392063999898,753.0392063999898,753.0229803999537,indoor,None,753.0246230999473,753.0392063999898,753.0392063999898,754.5896374999429,j,1.5363607999752276,None,,,,,,,,,,,,00055,001,2026-01-18_21h39.30.446,MST_task,2024.2.0,59.96257135718122,2026-01-18 21h39.51.986785 +0530,
,Objects\132a.jpg,148,0,149,,,,,,,f,None,,,0.9005618999945,0.09681349998572841,,,,149,0,148,754.6057592999423,,,,,,,,,,,,,,,,,,,,,,,754.5897226999514,754.6057592999423,755.1062524999725,755.0894429999753,,,,,,,,,,,,,,,,,,,,,,,,,,755.092810299946,755.1062524999725,755.1062524999725,755.1062524999725,758.1058357000002,758.1058357000002,758.1058357000002,758.0897665999946,indoor,f,758.0898128999979,,,758.0898258999805,None,,,0.9005618999945,0.09681349998572841,,,,,,,,,,00055,001,2026-01-18_21h39.30.446,MST_task,2024.2.0,59.96257135718122,2026-01-18 21h39.51.986785 +0530,
,Objects\266a.jpg,149,0,150,,,,,,,None,j,0.47246860002633184,None,,,,,,150,0,149,758.1058357000002,,,,,,,,,,,,,,,,,,,,,,,758.089894499979,758.1058357000002,758.6062333999434,758.5894909999915,,,,,,,,,,,,,,,,,,,,,,,,,,758.5930565999588,758.6062333999434,758.6062333999434,758.6062333999434,761.6058712999802,761.6058712999802,761.6058712999802,761.5896353999851,indoor,None,761.5896798999747,761.6058712999802,761.6058712999802,762.089626299974,j,0.47246860002633184,None,,,,,,,,,,,,00055,001,2026-01-18_21h39.30.446,MST_task,2024.2.0,59.96257135718122,2026-01-18 21h39.51.986785 +0530,
,Objects\138a.jpg,150,0,151,,,,,,,j,None,,,2.0323882999946363,0.08902660000603646,,,,151,0,150,762.1059091999778,,,,,,,,,,,,,,,,,,,,,,,762.089709599968,762.1059091999778,762.6063296999782,762.5894227999961,,,,,,,,,,,,,,,,,,,,,,,,,,762.5922961999895,762.6063296999782,762.6063296999782,762.6063296999782,765.605819599994,765.605819599994,765.605819599994,765.5899017999764,indoor,j,765.5899472999736,,,765.5899609999615,None,,,2.0323882999946363,0.08902660000603646,,,,,,,,,,00055,001,2026-01-18_21h39.30.446,MST_task,2024.2.0,59.96257135718122,2026-01-18 21h39.51.986785 +0530,
,Objects\066a.jpg,151,0,152,,,,,,,j,None,,,2.036678100004792,0.08875819999957457,,,,152,0,151,765.605819599994,,,,,,,,,,,,,,,,,,,,,,,765.5901084999787,765.605819599994,766.1060307999724,766.0895335999667,,,,,,,,,,,,,,,,,,,,,,,,,,766.0923376999563,766.1060307999724,766.1060307999724,766.1060307999724,769.1057783999713,769.1057783999713,769.1057783999713,769.0897329999716,indoor,j,769.089774299995,,,769.0897863999708,None,,,2.036678100004792,0.08875819999957457,,,,,,,,,,00055,001,2026-01-18_21h39.30.446,MST_task,2024.2.0,59.96257135718122,2026-01-18 21h39.51.986785 +0530,
,Objects\369a.jpg,152,0,153,,,,,,,f,None,,,1.7448393999948166,0.08793320000404492,,,,153,0,152,769.1057783999713,,,,,,,,,,,,,,,,,,,,,,,769.0898524999502,769.1057783999713,769.6060475999839,769.5895557999611,,,,,,,,,,,,,,,,,,,,,,,,,,769.5919303999981,769.6060475999839,769.6060475999839,769.6060475999839,772.6057889999938,772.6057889999938,772.6057889999938,772.5897444999428,indoor,f,772.5897863999708,,,772.589798699948,None,,,1.7448393999948166,0.08793320000404492,,,,,,,,,,00055,001,2026-01-18_21h39.30.446,MST_task,2024.2.0,59.96257135718122,2026-01-18 21h39.51.986785 +0530,
,Objects\282a.jpg,153,0,154,,,,,,,None,f,0.4215950000216253,None,,,,,,154,0,153,772.6057889999938,,,,,,,,,,,,,,,,,,,,,,,772.5898610999575,772.6057889999938,773.1059685999644,773.0893265999621,,,,,,,,,,,,,,,,,,,,,,,,,,773.0926036999444,773.1059685999644,773.1059685999644,773.1059685999644,776.1057915999554,776.1057915999554,776.1057915999554,776.0899840999627,indoor,None,776.0900276999455,776.1057915999554,776.1057915999554,776.5394483999698,f,0.4215950000216253,None,,,,,,,,,,,,00055,001,2026-01-18_21h39.30.446,MST_task,2024.2.0,59.96257135718122,2026-01-18 21h39.51.986785 +0530,
,Objects\041a.jpg,154,0,155,,,,,,,j,None,,,2.046945800015237,0.0961148000205867,,,,155,0,154,776.5557081999723,,,,,,,,,,,,,,,,,,,,,,,776.5395374999498,776.5557081999723,777.0560345999547,777.0394232999533,,,,,,,,,,,,,,,,,,,,,,,,,,777.0441683999961,777.0560345999547,777.0560345999547,777.0560345999547,780.0557694999734,780.0557694999734,780.0557694999734,780.0399553999887,shoe,j,780.0422076999675,,,780.0422264999943,None,,,2.046945800015237,0.0961148000205867,,,,,,,,,,00055,001,2026-01-18_21h39.30.446,MST_task,2024.2.0,59.96257135718122,2026-01-18 21h39.51.986785 +0530,
,Objects\189a.jpg,155,0,156,,,,,,,j,None,,,2.506713100010529,0.08753050002269447,,,,156,0,155,780.0557694999734,,,,,,,,,,,,,,,,,,,,,,,780.0423440999584,780.0557694999734,780.5560950999497,780.5396588999429,,,,,,,,,,,,,,,,,,,,,,,,,,780.5428746999823,780.5560950999497,780.5560950999497,780.5560950999497,783.555864199996,783.555864199996,783.555864199996,783.5396666999441,shoe,j,783.5397076999652,,,783.5397200999432,None,,,2.506713100010529,0.08753050002269447,,,,,,,,,,00055,001,2026-01-18_21h39.30.446,MST_task,2024.2.0,59.96257135718122,2026-01-18 21h39.51.986785 +0530,
,Objects\127a.jpg,156,0,157,,,,,,,f,None,,,1.2223114999942482,0.12033770000562072,,,,157,0,156,783.555864199996,,,,,,,,,,,,,,,,,,,,,,,783.5398261999944,783.555864199996,784.0560393999913,784.0393874999718,,,,,,,,,,,,,,,,,,,,,,,,,,784.0418905999977,784.0560393999913,784.0560393999913,784.0560393999913,787.0558760999702,787.0558760999702,787.0558760999702,787.0395483999746,shoe,f,787.0395915999543,,,787.0396043999936,None,,,1.2223114999942482,0.12033770000562072,,,,,,,,,,00055,001,2026-01-18_21h39.30.446,MST_task,2024.2.0,59.96257135718122,2026-01-18 21h39.51.986785 +0530,
