thisN,thisTrialN,thisRepN,key_resp_3.keys,key_resp_3.rt,key_resp_3.duration,trials.thisRepN,trials.thisTrialN,trials.thisN,thisRow.t,notes,intro_page.started,text.started,key_resp.started,intro_page.stopped,key_resp.keys,key_resp.rt,key_resp.duration,instructions.started,text_2.started,key_resp_2.started,instructions.stopped,key_resp_2.keys,key_resp_2.rt,key_resp_2.duration,demo1.started,image_1.started,image_2.started,text_7.started,key_resp_6.started,text_9.started,demo1.stopped,key_resp_6.keys,key_resp_6.rt,key_resp_6.duration,demo3.started,image_5.started,image_6.started,text_11.started,text_12.started,key_resp_8.started,demo3.stopped,key_resp_8.keys,key_resp_8.rt,key_resp_8.duration,demo_conclusion.started,text_13.started,key_resp_9.started,demo_conclusion.stopped,key_resp_9.keys,key_resp_9.rt,key_resp_9.duration,start_test.started,text_6.started,key_resp_5.started,start_test.stopped,key_resp_5.keys,key_resp_5.rt,key_resp_5.duration,ISI.started,text_4.started,ISI.stopped,routine_1.started,image.started,text_3.started,key_resp_3.started,routine_1.stopped,image_path,position_of_stimuli,trials.key_resp_3.keys,trials.key_resp_3.rt,trials.key_resp_3.duration,text_4.stopped,End_page.started,text_5.started,key_resp_4.started,End_page.stopped,key_resp_4.keys,key_resp_4.rt,key_resp_4.duration,participant,session,date,expName,psychopyVersion,frameRate,expStart,
,,,,,,,,,,,0.011991199979092926,0.028164499963168055,0.028164499963168055,4.698172000003979,space,4.660122299974319,None,,,,,,,,,,,,,,,,,,,,,,,,,,,,,,,,,,,,,,,,,,,,,,,,,,,,,,,,,,,,,,,00056,001,2026-01-19_11h07.07.462,MST_test,2024.2.0,59.744865510200796,2026-01-19 11h07.21.193260 +0530,
,,,,,,,,,,,,,,,,,,4.698206599976402,4.712923899991438,4.712923899991438,12.056016499991529,space,7.334899200010113,None,,,,,,,,,,,,,,,,,,,,,,,,,,,,,,,,,,,,,,,,,,,,,,,,,,,,,,,,00056,001,2026-01-19_11h07.07.462,MST_test,2024.2.0,59.744865510200796,2026-01-19 11h07.21.193260 +0530,
,,,,,,,,,,,,,,,,,,,,,,,,,12.056044799974188,12.072222099988721,12.072222099988721,12.072222099988721,12.072222099988721,12.072222099988721,16.621808199968655,space,4.535668500000611,None,,,,,,,,,,,,,,,,,,,,,,,,,,,,,,,,,,,,,,,,,,,,,,00056,001,2026-01-19_11h07.07.462,MST_test,2024.2.0,59.744865510200796,2026-01-19 11h07.21.193260 +0530,
,,,,,,,,,,,,,,,,,,,,,,,,,,,,,,,,,,,16.621841199987102,16.638194300001487,16.638194300001487,16.638194300001487,16.638194300001487,16.638194300001487,18.829445099981967,space,2.185666899953503,None,,,,,,,,,,,,,,,,,,,,,,,,,,,,,,,,,,,,00056,001,2026-01-19_11h07.07.462,MST_test,2024.2.0,59.744865510200796,2026-01-19 11h07.21.193260 +0530,
,,,,,,,,,,,,,,,,,,,,,,,,,,,,,,,,,,,,,,,,,,,,,18.82947419997072,18.845751699991524,18.845751699991524,29.35005910001928,space,10.489315200014971,None,,,,,,,,,,,,,,,,,,,,,,,,,,,,,00056,001,2026-01-19_11h07.07.462,MST_test,2024.2.0,59.744865510200796,2026-01-19 11h07.21.193260 +0530,
,,,,,,,,,,,,,,,,,,,,,,,,,,,,,,,,,,,,,,,,,,,,,,,,,,,,29.35009700001683,29.382833899988327,29.382833899988327,114.74894650001079,space,85.36046840000199,None,,,,,,,,,,,,,,,,,,,,,,00056,001,2026-01-19_11h07.07.462,MST_test,2024.2.0,59.744865510200796,2026-01-19 11h07.21.193260 +0530,
0,0,1,s,15.195023999956902,None,1,0,0,114.76504819997353,,,,,,,,,,,,,,,,,,,,,,,,,,,,,,,,,,,,,,,,,,,,,,,,,,114.75254750001477,114.76504819997353,115.25024730002042,115.26430709997658,115.28436859999783,115.28436859999783,115.28436859999783,130.48793669999577,Objects\297a.jpg,mid,s,15.195023999956902,None,,,,,,,,,00056,001,2026-01-19_11h07.07.462,MST_test,2024.2.0,59.744865510200796,2026-01-19 11h07.21.193260 +0530,
1,0,2,n,6.728109400020912,None,2,0,1,130.5036162000033,,,,,,,,,,,,,,,,,,,,,,,,,,,,,,,,,,,,,,,,,,,,,,,,,,130.4880316000199,130.5036162000033,130.98871070001042,131.0026601999998,131.02298949996475,131.02298949996475,131.02298949996475,137.76294159999816,Foils\f7.jpg,none,n,6.728109400020912,None,,,,,,,,,00056,001,2026-01-19_11h07.07.462,MST_test,2024.2.0,59.744865510200796,2026-01-19 11h07.21.193260 +0530,
2,0,3,n,2.9896631999872625,None,3,0,2,137.77909799996996,,,,,,,,,,,,,,,,,,,,,,,,,,,,,,,,,,,,,,,,,,,,,,,,,,137.76303739997093,137.77909799996996,138.26404819998425,138.27940990001662,138.2975795000093,138.2975795000093,138.2975795000093,141.29197610000847,Foils\074a.jpg,none,n,2.9896631999872625,None,,,,,,,,,00056,001,2026-01-19_11h07.07.462,MST_test,2024.2.0,59.744865510200796,2026-01-19 11h07.21.193260 +0530,
3,0,4,s,4.941252999997232,None,4,0,3,141.30799200001638,,,,,,,,,,,,,,,,,,,,,,,,,,,,,,,,,,,,,,,,,,,,,,,,,,141.29207089997362,141.30799200001638,141.79318099998636,141.80294229998253,141.82648230000632,141.82648230000632,141.82648230000632,146.77770510001574,Objects\068b.jpg,post,s,4.941252999997232,None,,,,,,,,,00056,001,2026-01-19_11h07.07.462,MST_test,2024.2.0,59.744865510200796,2026-01-19 11h07.21.193260 +0530,
4,0,5,s,2.17542590002995,None,5,0,4,146.79399879998527,,,,,,,,,,,,,,,,,,,,,,,,,,,,,,,,,,,,,,,,,,,,,,,,,,146.77780069998698,146.79399879998527,147.27894669998204,147.29427670000587,147.3124933000072,147.3124933000072,147.3124933000072,149.50420289998874,Objects\218b.jpg,post,s,2.17542590002995,None,,,,,,,,,00056,001,2026-01-19_11h07.07.462,MST_test,2024.2.0,59.744865510200796,2026-01-19 11h07.21.193260 +0530,
5,0,6,o,2.5372132000047714,None,6,0,5,149.520198800019,,,,,,,,,,,,,,,,,,,,,,,,,,,,,,,,,,,,,,,,,,,,,,,,,,149.5042977000121,149.520198800019,150.00516329996753,150.02037039998686,150.03867410001112,150.03867410001112,150.03867410001112,152.58150309999473,Objects\166b.jpg,pre,o,2.5372132000047714,None,,,,,,,,,00056,001,2026-01-19_11h07.07.462,MST_test,2024.2.0,59.744865510200796,2026-01-19 11h07.21.193260 +0530,
6,0,7,s,3.331930599990301,None,7,0,6,152.59751579997828,,,,,,,,,,,,,,,,,,,,,,,,,,,,,,,,,,,,,,,,,,,,,,,,,,152.58159959997283,152.59751579997828,153.08270799997263,153.09208600001875,153.11600749997888,153.11600749997888,153.11600749997888,156.46169540000847,Objects\273b.jpg,pre,s,3.331930599990301,None,,,,,,,,,00056,001,2026-01-19_11h07.07.462,MST_test,2024.2.0,59.744865510200796,2026-01-19 11h07.21.193260 +0530,
7,0,8,s,3.4591182000003755,None,8,0,7,156.47792149998713,,,,,,,,,,,,,,,,,,,,,,,,,,,,,,,,,,,,,,,,,,,,,,,,,,156.46179480000865,156.47792149998713,156.96304309996776,156.97217769996496,156.9963851000066,156.9963851000066,156.9963851000066,160.45891899999697,Objects\248b.jpg,pre,s,3.4591182000003755,None,,,,,,,,,00056,001,2026-01-19_11h07.07.462,MST_test,2024.2.0,59.744865510200796,2026-01-19 11h07.21.193260 +0530,
8,0,9,n,1.7338509000255726,None,9,0,8,160.47510310000507,,,,,,,,,,,,,,,,,,,,,,,,,,,,,,,,,,,,,,,,,,,,,,,,,,160.45901170000434,160.47510310000507,160.9603057000204,160.96967199997744,160.9937372999848,160.9937372999848,160.9937372999848,162.73385760001838,Foils\121a.jpg,none,n,1.7338509000255726,None,,,,,,,,,00056,001,2026-01-19_11h07.07.462,MST_test,2024.2.0,59.744865510200796,2026-01-19 11h07.21.193260 +0530,
9,0,10,s,1.3550952000077814,None,10,0,9,162.7498639000114,,,,,,,,,,,,,,,,,,,,,,,,,,,,,,,,,,,,,,,,,,,,,,,,,,162.73395089997211,162.7498639000114,163.23495630000252,163.24447999999393,163.268363900017,163.268363900017,163.268363900017,164.64037929999176,Objects\176b.jpg,pre,s,1.3550952000077814,None,,,,,,,,,00056,001,2026-01-19_11h07.07.462,MST_test,2024.2.0,59.744865510200796,2026-01-19 11h07.21.193260 +0530,
10,0,11,n,2.3048294999753125,None,11,0,10,164.65654499997618,,,,,,,,,,,,,,,,,,,,,,,,,,,,,,,,,,,,,,,,,,,,,,,,,,164.64050380000845,164.65654499997618,165.14162329997635,165.1561270999955,165.1749012999935,165.1749012999935,165.1749012999935,167.48355259996606,Foils\f5.jpg,none,n,2.3048294999753125,None,,,,,,,,,00056,001,2026-01-19_11h07.07.462,MST_test,2024.2.0,59.744865510200796,2026-01-19 11h07.21.193260 +0530,
11,0,12,o,1.7727371000219136,None,12,0,11,167.50011159997666,,,,,,,,,,,,,,,,,,,,,,,,,,,,,,,,,,,,,,,,,,,,,,,,,,167.48364689998562,167.50011159997666,167.98549539997475,168.0003660999937,168.01831299997866,168.01831299997866,168.01831299997866,169.79182919999585,Objects\128b.jpg,mid,o,1.7727371000219136,None,,,,,,,,,00056,001,2026-01-19_11h07.07.462,MST_test,2024.2.0,59.744865510200796,2026-01-19 11h07.21.193260 +0530,
12,0,13,o,1.3537423000088893,None,13,0,12,169.80779270001221,,,,,,,,,,,,,,,,,,,,,,,,,,,,,,,,,,,,,,,,,,,,,,,,,,169.79192210000474,169.80779270001221,170.29299889999675,170.3062637000112,170.32626559998607,170.32626559998607,170.32626559998607,171.68188290001126,Objects\260b.jpg,pre,o,1.3537423000088893,None,,,,,,,,,00056,001,2026-01-19_11h07.07.462,MST_test,2024.2.0,59.744865510200796,2026-01-19 11h07.21.193260 +0530,
13,0,14,s,2.263377399998717,None,14,0,13,171.6979210000136,,,,,,,,,,,,,,,,,,,,,,,,,,,,,,,,,,,,,,,,,,,,,,,,,,171.68197609996423,171.6979210000136,172.18296259996714,172.19820929999696,172.2163671000162,172.2163671000162,172.2163671000162,174.4914824999869,Objects\061b.jpg,pre,s,2.263377399998717,None,,,,,,,,,00056,001,2026-01-19_11h07.07.462,MST_test,2024.2.0,59.744865510200796,2026-01-19 11h07.21.193260 +0530,
14,0,15,o,1.478076500003226,None,15,0,14,174.50770700001158,,,,,,,,,,,,,,,,,,,,,,,,,,,,,,,,,,,,,,,,,,,,,,,,,,174.49158119998174,174.50770700001158,174.9928487999714,174.99554619996343,175.00945610000053,175.00945610000053,175.00945610000053,176.49846309999702,Objects\083a.jpg,post,o,1.478076500003226,None,,,,,,,,,00056,001,2026-01-19_11h07.07.462,MST_test,2024.2.0,59.744865510200796,2026-01-19 11h07.21.193260 +0530,
15,0,16,n,3.223577100026887,None,16,0,15,176.51470579998568,,,,,,,,,,,,,,,,,,,,,,,,,,,,,,,,,,,,,,,,,,,,,,,,,,176.4985643000109,176.51470579998568,176.99980170000345,177.00947340001585,177.0330964999739,177.0330964999739,177.0330964999739,180.26177250000183,Foils\034a.jpg,none,n,3.223577100026887,None,,,,,,,,,00056,001,2026-01-19_11h07.07.462,MST_test,2024.2.0,59.744865510200796,2026-01-19 11h07.21.193260 +0530,
16,0,17,s,1.7168714000144973,None,17,0,16,180.2778021999984,,,,,,,,,,,,,,,,,,,,,,,,,,,,,,,,,,,,,,,,,,,,,,,,,,180.26187069999287,180.2778021999984,180.7630138999666,180.77007719996618,180.77902319998248,180.77902319998248,180.77902319998248,182.50289890001295,Objects\340a.jpg,pre,s,1.7168714000144973,None,,,,,,,,,00056,001,2026-01-19_11h07.07.462,MST_test,2024.2.0,59.744865510200796,2026-01-19 11h07.21.193260 +0530,
17,0,18,o,5.16990519996034,None,18,0,17,182.51897119998466,,,,,,,,,,,,,,,,,,,,,,,,,,,,,,,,,,,,,,,,,,,,,,,,,,182.50299209996592,182.51897119998466,183.00417679996463,183.01196689996868,183.0374611999723,183.0374611999723,183.0374611999723,188.2230191999697,Objects\151a.jpg,pre,o,5.16990519996034,None,,,,,,,,,00056,001,2026-01-19_11h07.07.462,MST_test,2024.2.0,59.744865510200796,2026-01-19 11h07.21.193260 +0530,
18,0,19,s,1.7061842000111938,None,19,0,18,188.23912899999414,,,,,,,,,,,,,,,,,,,,,,,,,,,,,,,,,,,,,,,,,,,,,,,,,,188.2231168000144,188.23912899999414,188.7241100000101,188.73375030001625,188.7576266999822,188.7576266999822,188.7576266999822,190.46430839999812,Objects\117b.jpg,post,s,1.7061842000111938,None,,,,,,,,,00056,001,2026-01-19_11h07.07.462,MST_test,2024.2.0,59.744865510200796,2026-01-19 11h07.21.193260 +0530,
19,0,20,s,2.545355100010056,None,20,0,19,190.48018909996608,,,,,,,,,,,,,,,,,,,,,,,,,,,,,,,,,,,,,,,,,,,,,,,,,,190.46440509997774,190.48018909996608,190.9653916999814,190.96853690000717,190.98216869996395,190.98216869996395,190.98216869996395,193.5415687999921,Objects\189a.jpg,mid,s,2.545355100010056,None,,,,,,,,,00056,001,2026-01-19_11h07.07.462,MST_test,2024.2.0,59.744865510200796,2026-01-19 11h07.21.193260 +0530,
20,0,21,n,3.3958244000095874,None,21,0,20,193.5577515999903,,,,,,,,,,,,,,,,,,,,,,,,,,,,,,,,,,,,,,,,,,,,,,,,,,193.5416644999641,193.5577515999903,194.04273129999638,194.05233199999202,194.07623479998438,194.07623479998438,194.07623479998438,197.48871170001803,Foils\106a.jpg,none,n,3.3958244000095874,None,,,,,,,,,00056,001,2026-01-19_11h07.07.462,MST_test,2024.2.0,59.744865510200796,2026-01-19 11h07.21.193260 +0530,
21,0,22,s,4.223909500055015,None,22,0,21,197.50479380000615,,,,,,,,,,,,,,,,,,,,,,,,,,,,,,,,,,,,,,,,,,,,,,,,,,197.48880709998775,197.50479380000615,197.98997519997647,197.9992118999944,198.02341620001243,198.02341620001243,198.02341620001243,202.25541480001993,Objects\191b.jpg,mid,s,4.223909500055015,None,,,,,,,,,00056,001,2026-01-19_11h07.07.462,MST_test,2024.2.0,59.744865510200796,2026-01-19 11h07.21.193260 +0530,
22,0,23,s,2.794224600016605,None,23,0,22,202.27160279999953,,,,,,,,,,,,,,,,,,,,,,,,,,,,,,,,,,,,,,,,,,,,,,,,,,202.25551719998475,202.27160279999953,202.7565472999704,202.75944980001077,202.773466499988,202.773466499988,202.773466499988,205.58370229997672,Objects\084a.jpg,post,s,2.794224600016605,None,,,,,,,,,00056,001,2026-01-19_11h07.07.462,MST_test,2024.2.0,59.744865510200796,2026-01-19 11h07.21.193260 +0530,
23,0,24,s,2.4898118000128306,None,24,0,23,205.5999262999976,,,,,,,,,,,,,,,,,,,,,,,,,,,,,,,,,,,,,,,,,,,,,,,,,,205.58380239998223,205.5999262999976,206.08504219999304,206.09463989996584,206.1182989999652,206.1182989999652,206.1182989999652,208.61100440000882,Objects\169b.jpg,post,s,2.4898118000128306,None,,,,,,,,,00056,001,2026-01-19_11h07.07.462,MST_test,2024.2.0,59.744865510200796,2026-01-19 11h07.21.193260 +0530,
24,0,25,s,3.446707300026901,None,25,0,24,208.62708000000566,,,,,,,,,,,,,,,,,,,,,,,,,,,,,,,,,,,,,,,,,,,,,,,,,,208.61110420001205,208.62708000000566,209.11226969998097,209.11548370000673,209.12881399999605,209.12881399999605,209.12881399999605,212.59149279998383,Objects\039a.jpg,pre,s,3.446707300026901,None,,,,,,,,,00056,001,2026-01-19_11h07.07.462,MST_test,2024.2.0,59.744865510200796,2026-01-19 11h07.21.193260 +0530,
25,0,26,s,1.4891020999639295,None,26,0,25,212.6077884999686,,,,,,,,,,,,,,,,,,,,,,,,,,,,,,,,,,,,,,,,,,,,,,,,,,212.59158539999044,212.6077884999686,213.09273869998287,213.10204600001452,213.12626419996377,213.12626419996377,213.12626419996377,214.6319389999844,Objects\212a.jpg,mid,s,1.4891020999639295,None,,,,,,,,,00056,001,2026-01-19_11h07.07.462,MST_test,2024.2.0,59.744865510200796,2026-01-19 11h07.21.193260 +0530,
26,0,27,o,2.5691164000309072,None,27,0,26,214.64815799996722,,,,,,,,,,,,,,,,,,,,,,,,,,,,,,,,,,,,,,,,,,,,,,,,,,214.63203209999483,214.64815799996722,215.1334887999692,215.1431547999964,215.16673559998162,215.16673559998162,215.16673559998162,217.74301169998944,Objects\134a.jpg,post,o,2.5691164000309072,None,,,,,,,,,00056,001,2026-01-19_11h07.07.462,MST_test,2024.2.0,59.744865510200796,2026-01-19 11h07.21.193260 +0530,
27,0,28,s,2.5220225999946706,None,28,0,27,217.7591614999692,,,,,,,,,,,,,,,,,,,,,,,,,,,,,,,,,,,,,,,,,,,,,,,,,,217.7431052000029,217.7591614999692,218.24414279998746,218.25880929996492,218.27764250000473,218.27764250000473,218.27764250000473,220.80396519997157,Objects\357b.jpg,pre,s,2.5220225999946706,None,,,,,,,,,00056,001,2026-01-19_11h07.07.462,MST_test,2024.2.0,59.744865510200796,2026-01-19 11h07.21.193260 +0530,
28,0,29,n,3.3249233000096865,None,29,0,28,220.82031310000457,,,,,,,,,,,,,,,,,,,,,,,,,,,,,,,,,,,,,,,,,,,,,,,,,,220.80406170000788,220.82031310000457,221.3048337000073,221.31965159997344,221.33836729999166,221.33836729999166,221.33836729999166,224.66729780001333,Foils\065a.jpg,none,n,3.3249233000096865,None,,,,,,,,,00056,001,2026-01-19_11h07.07.462,MST_test,2024.2.0,59.744865510200796,2026-01-19 11h07.21.193260 +0530,
29,0,30,n,1.6295723999501206,None,30,0,29,224.6835740999668,,,,,,,,,,,,,,,,,,,,,,,,,,,,,,,,,,,,,,,,,,,,,,,,,,224.66739449999295,224.6835740999668,225.1685795999947,225.18017120001605,225.20205779996468,225.20205779996468,225.20205779996468,226.84163290000288,Objects\067b.jpg,post,n,1.6295723999501206,None,,,,,,,,,00056,001,2026-01-19_11h07.07.462,MST_test,2024.2.0,59.744865510200796,2026-01-19 11h07.21.193260 +0530,
30,0,31,s,1.1592033000197262,None,31,0,30,226.85778089996893,,,,,,,,,,,,,,,,,,,,,,,,,,,,,,,,,,,,,,,,,,,,,,,,,,226.8417274999665,226.85778089996893,227.34277129999828,227.3538194000139,227.3761748999823,227.3761748999823,227.3761748999823,228.5476095000049,Objects\099b.jpg,post,s,1.1592033000197262,None,,,,,,,,,00056,001,2026-01-19_11h07.07.462,MST_test,2024.2.0,59.744865510200796,2026-01-19 11h07.21.193260 +0530,
31,0,32,s,2.821376700012479,None,32,0,31,228.5635470999987,,,,,,,,,,,,,,,,,,,,,,,,,,,,,,,,,,,,,,,,,,,,,,,,,,228.54770880000433,228.5635470999987,229.04894100001547,229.05655719997594,229.0827230999712,229.0827230999712,229.0827230999712,231.90939230000367,Objects\319a.jpg,post,s,2.821376700012479,None,,,,,,,,,00056,001,2026-01-19_11h07.07.462,MST_test,2024.2.0,59.744865510200796,2026-01-19 11h07.21.193260 +0530,
32,0,33,s,1.3315223000245169,None,33,0,32,231.92532290000236,,,,,,,,,,,,,,,,,,,,,,,,,,,,,,,,,,,,,,,,,,,,,,,,,,231.90948779997416,231.92532290000236,232.41052400000626,232.41911869996693,232.44407359999605,232.44407359999605,232.44407359999605,233.78245529998094,Objects\018a.jpg,mid,s,1.3315223000245169,None,,,,,,,,,00056,001,2026-01-19_11h07.07.462,MST_test,2024.2.0,59.744865510200796,2026-01-19 11h07.21.193260 +0530,
33,0,34,s,1.9158305999590084,None,34,0,33,233.7986739000189,,,,,,,,,,,,,,,,,,,,,,,,,,,,,,,,,,,,,,,,,,,,,,,,,,233.7825514000142,233.7986739000189,234.28363580000587,234.2868556000176,234.30043140001362,234.30043140001362,234.30043140001362,236.22420980001334,Objects\172a.jpg,post,s,1.9158305999590084,None,,,,,,,,,00056,001,2026-01-19_11h07.07.462,MST_test,2024.2.0,59.744865510200796,2026-01-19 11h07.21.193260 +0530,
34,0,35,o,3.56907670001965,None,35,0,34,236.24055609997595,,,,,,,,,,,,,,,,,,,,,,,,,,,,,,,,,,,,,,,,,,,,,,,,,,236.22430750000058,236.24055609997595,236.7255430999794,236.7316808999749,236.742345799983,236.742345799983,236.742345799983,240.32201599999098,Objects\365a.jpg,post,o,3.56907670001965,None,,,,,,,,,00056,001,2026-01-19_11h07.07.462,MST_test,2024.2.0,59.744865510200796,2026-01-19 11h07.21.193260 +0530,
35,0,36,o,2.984071600018069,None,36,0,35,240.33811919996515,,,,,,,,,,,,,,,,,,,,,,,,,,,,,,,,,,,,,,,,,,,,,,,,,,240.3221114000189,240.33811919996515,240.8234916999936,240.82987159996992,240.83990069996798,240.83990069996798,240.83990069996798,243.83445399999619,Objects\270a.jpg,mid,o,2.984071600018069,None,,,,,,,,,00056,001,2026-01-19_11h07.07.462,MST_test,2024.2.0,59.744865510200796,2026-01-19 11h07.21.193260 +0530,
36,0,37,o,0.984431900025811,None,37,0,36,243.8504134999821,,,,,,,,,,,,,,,,,,,,,,,,,,,,,,,,,,,,,,,,,,,,,,,,,,243.83454619999975,243.8504134999821,244.33560980000766,244.34256720001576,244.3514460999868,244.3514460999868,244.3514460999868,245.3396183999721,Objects\287a.jpg,pre,o,0.984431900025811,None,,,,,,,,,00056,001,2026-01-19_11h07.07.462,MST_test,2024.2.0,59.744865510200796,2026-01-19 11h07.21.193260 +0530,
37,0,38,o,3.2943193999817595,None,38,0,37,245.35569210001267,,,,,,,,,,,,,,,,,,,,,,,,,,,,,,,,,,,,,,,,,,,,,,,,,,245.33971029997338,245.35569210001267,245.84088610002073,245.8473312999704,245.85741250001593,245.85741250001593,245.85741250001593,249.15319219999947,Objects\310a.jpg,mid,o,3.2943193999817595,None,,,,,,,,,00056,001,2026-01-19_11h07.07.462,MST_test,2024.2.0,59.744865510200796,2026-01-19 11h07.21.193260 +0530,
38,0,39,s,1.0485820000176318,None,39,0,38,249.16928689996712,,,,,,,,,,,,,,,,,,,,,,,,,,,,,,,,,,,,,,,,,,,,,,,,,,249.1532858000137,249.16928689996712,249.65412439999636,249.66201149998233,249.6877683000057,249.6877683000057,249.6877683000057,250.74197839997942,Objects\009a.jpg,pre,s,1.0485820000176318,None,,,,,,,,,00056,001,2026-01-19_11h07.07.462,MST_test,2024.2.0,59.744865510200796,2026-01-19 11h07.21.193260 +0530,
39,0,40,n,1.3069822000106797,None,40,0,39,250.75806049996754,,,,,,,,,,,,,,,,,,,,,,,,,,,,,,,,,,,,,,,,,,,,,,,,,,250.74207579996437,250.75806049996754,251.24301659996854,251.25701750000007,251.27661429997534,251.27661429997534,251.27661429997534,252.59837750002043,Foils\f6.jpg,none,n,1.3069822000106797,None,,,,,,,,,00056,001,2026-01-19_11h07.07.462,MST_test,2024.2.0,59.744865510200796,2026-01-19 11h07.21.193260 +0530,
40,0,41,s,1.3860191999701783,None,41,0,40,252.6145572999958,,,,,,,,,,,,,,,,,,,,,,,,,,,,,,,,,,,,,,,,,,,,,,,,,,252.59846949996427,252.6145572999958,253.09953730000416,253.11539940000512,253.13303510000696,253.13303510000696,253.13303510000696,254.52170809998643,Objects\054b.jpg,post,s,1.3860191999701783,None,,,,,,,,,00056,001,2026-01-19_11h07.07.462,MST_test,2024.2.0,59.744865510200796,2026-01-19 11h07.21.193260 +0530,
41,0,42,s,3.2153942000004463,None,42,0,41,254.5379579999717,,,,,,,,,,,,,,,,,,,,,,,,,,,,,,,,,,,,,,,,,,,,,,,,,,254.52187679999042,254.5379579999717,255.02290099998936,255.03748509997968,255.0564258999657,255.0564258999657,255.0564258999657,258.2850138999638,Objects\195b.jpg,post,s,3.2153942000004463,None,,,,,,,,,00056,001,2026-01-19_11h07.07.462,MST_test,2024.2.0,59.744865510200796,2026-01-19 11h07.21.193260 +0530,
42,0,43,s,1.9794340000371449,None,43,0,42,258.3011317999917,,,,,,,,,,,,,,,,,,,,,,,,,,,,,,,,,,,,,,,,,,,,,,,,,,258.2851099999971,258.3011317999917,258.78621639998164,258.80003370001214,258.8196184000117,258.8196184000117,258.8196184000117,260.81042850000085,Objects\293b.jpg,mid,s,1.9794340000371449,None,,,,,,,,,00056,001,2026-01-19_11h07.07.462,MST_test,2024.2.0,59.744865510200796,2026-01-19 11h07.21.193260 +0530,
43,0,44,s,4.006990500027314,None,44,0,43,260.82676209998317,,,,,,,,,,,,,,,,,,,,,,,,,,,,,,,,,,,,,,,,,,,,,,,,,,260.81053040002007,260.82676209998317,261.31202999997186,261.327125300013,261.3451230999781,261.3451230999781,261.3451230999781,265.35976610000944,Objects\126b.jpg,mid,s,4.006990500027314,None,,,,,,,,,00056,001,2026-01-19_11h07.07.462,MST_test,2024.2.0,59.744865510200796,2026-01-19 11h07.21.193260 +0530,
44,0,45,n,1.048709399998188,None,45,0,44,265.37604050000664,,,,,,,,,,,,,,,,,,,,,,,,,,,,,,,,,,,,,,,,,,,,,,,,,,265.3598653000081,265.37604050000664,265.8611148999771,265.87059040000895,265.8943899999722,265.8943899999722,265.8943899999722,266.9489961999934,Foils\081a.jpg,none,n,1.048709399998188,None,,,,,,,,,00056,001,2026-01-19_11h07.07.462,MST_test,2024.2.0,59.744865510200796,2026-01-19 11h07.21.193260 +0530,
45,0,46,o,0.9805808000382967,None,46,0,45,266.9653391999891,,,,,,,,,,,,,,,,,,,,,,,,,,,,,,,,,,,,,,,,,,,,,,,,,,266.94909229996847,266.9653391999891,267.4497718999628,267.45256339997286,267.4666125999647,267.4666125999647,267.4666125999647,268.4538755000103,Objects\026a.jpg,mid,o,0.9805808000382967,None,,,,,,,,,00056,001,2026-01-19_11h07.07.462,MST_test,2024.2.0,59.744865510200796,2026-01-19 11h07.21.193260 +0530,
46,0,47,n,2.235298799991142,None,47,0,46,268.47014409996336,,,,,,,,,,,,,,,,,,,,,,,,,,,,,,,,,,,,,,,,,,,,,,,,,,268.4539772999706,268.47014409996336,268.955053600017,268.96454740001354,268.98856859997613,268.98856859997613,268.98856859997613,271.23030589998234,Foils\010a.jpg,none,n,2.235298799991142,None,,,,,,,,,00056,001,2026-01-19_11h07.07.462,MST_test,2024.2.0,59.744865510200796,2026-01-19 11h07.21.193260 +0530,
47,0,48,n,2.4347625999944285,None,48,0,47,271.24636009999085,,,,,,,,,,,,,,,,,,,,,,,,,,,,,,,,,,,,,,,,,,,,,,,,,,271.2304002000019,271.24636009999085,271.73153819999425,271.7411307999864,271.76484459999483,271.76484459999483,271.76484459999483,274.20735119999154,Foils\090a.jpg,none,n,2.4347625999944285,None,,,,,,,,,00056,001,2026-01-19_11h07.07.462,MST_test,2024.2.0,59.744865510200796,2026-01-19 11h07.21.193260 +0530,
48,0,49,o,1.48217009997461,None,49,0,48,274.2235700999736,,,,,,,,,,,,,,,,,,,,,,,,,,,,,,,,,,,,,,,,,,,,,,,,,,274.20744480000576,274.2235700999736,274.70851879997645,274.7113827000139,274.72531660000095,274.72531660000095,274.72531660000095,276.2145002000034,Objects\119a.jpg,mid,o,1.48217009997461,None,,,,,,,,,00056,001,2026-01-19_11h07.07.462,MST_test,2024.2.0,59.744865510200796,2026-01-19 11h07.21.193260 +0530,
49,0,50,n,1.4743917000014335,None,50,0,49,276.23059380002087,,,,,,,,,,,,,,,,,,,,,,,,,,,,,,,,,,,,,,,,,,,,,,,,,,276.21459839999443,276.23059380002087,276.7156856000074,276.72467909997795,276.74910099996487,276.74910099996487,276.74910099996487,278.2381482999772,Foils\113a.jpg,none,n,1.4743917000014335,None,,,,,,,,,00056,001,2026-01-19_11h07.07.462,MST_test,2024.2.0,59.744865510200796,2026-01-19 11h07.21.193260 +0530,
50,0,51,n,4.314620200020727,None,51,0,50,278.25434179999866,,,,,,,,,,,,,,,,,,,,,,,,,,,,,,,,,,,,,,,,,,,,,,,,,,278.23824460001197,278.25434179999866,278.7393223000108,278.7487389000016,278.7728336,278.7728336,278.7728336,283.08860199997434,Foils\097a.jpg,none,n,4.314620200020727,None,,,,,,,,,00056,001,2026-01-19_11h07.07.462,MST_test,2024.2.0,59.744865510200796,2026-01-19 11h07.21.193260 +0530,
51,0,52,o,2.2890821000328287,None,52,0,51,283.10466860001907,,,,,,,,,,,,,,,,,,,,,,,,,,,,,,,,,,,,,,,,,,,,,,,,,,283.08869880001293,283.10466860001907,283.589630500006,283.5926154999761,283.6064071999863,283.6064071999863,283.6064071999863,285.89826170000015,Objects\361a.jpg,post,o,2.2890821000328287,None,,,,,,,,,00056,001,2026-01-19_11h07.07.462,MST_test,2024.2.0,59.744865510200796,2026-01-19 11h07.21.193260 +0530,
52,0,53,s,2.8477374999783933,None,53,0,52,285.9144987000036,,,,,,,,,,,,,,,,,,,,,,,,,,,,,,,,,,,,,,,,,,,,,,,,,,285.8983588999836,285.9144987000036,286.3994875999633,286.4024811999989,286.41624190000584,286.41624190000584,286.41624190000584,289.27686909999466,Objects\103a.jpg,mid,s,2.8477374999783933,None,,,,,,,,,00056,001,2026-01-19_11h07.07.462,MST_test,2024.2.0,59.744865510200796,2026-01-19 11h07.21.193260 +0530,
53,0,54,s,2.9711809000000358,None,54,0,53,289.29299919999903,,,,,,,,,,,,,,,,,,,,,,,,,,,,,,,,,,,,,,,,,,,,,,,,,,289.27696950000245,289.29299919999903,289.77798730001086,289.7884327999782,289.81219690002035,289.81219690002035,289.81219690002035,292.7890842999914,Foils\050a.jpg,none,s,2.9711809000000358,None,,,,,,,,,00056,001,2026-01-19_11h07.07.462,MST_test,2024.2.0,59.744865510200796,2026-01-19 11h07.21.193260 +0530,
54,0,55,o,1.3413381000282243,None,55,0,54,292.805177000002,,,,,,,,,,,,,,,,,,,,,,,,,,,,,,,,,,,,,,,,,,,,,,,,,,292.78918449999765,292.805177000002,293.2902565000113,293.29295600001933,293.30695689999266,293.30695689999266,293.30695689999266,294.6622629999765,Objects\145a.jpg,mid,o,1.3413381000282243,None,,,,,,,,,00056,001,2026-01-19_11h07.07.462,MST_test,2024.2.0,59.744865510200796,2026-01-19 11h07.21.193260 +0530,
55,0,56,n,1.9947711999993771,None,56,0,55,294.6784007999813,,,,,,,,,,,,,,,,,,,,,,,,,,,,,,,,,,,,,,,,,,,,,,,,,,294.6623582000029,294.6784007999813,295.1636064000195,295.17295480001485,295.19700240000384,295.19700240000384,295.19700240000384,297.2044253000058,Foils\042a.jpg,none,n,1.9947711999993771,None,,,,,,,,,00056,001,2026-01-19_11h07.07.462,MST_test,2024.2.0,59.744865510200796,2026-01-19 11h07.21.193260 +0530,
56,0,57,n,2.388024799991399,None,57,0,56,297.2207600999973,,,,,,,,,,,,,,,,,,,,,,,,,,,,,,,,,,,,,,,,,,,,,,,,,,297.2045212999801,297.2207600999973,297.70571339997696,297.7154489000095,297.7392418999807,297.7392418999807,297.7392418999807,300.1318936999887,Foils\020b.jpg,none,n,2.388024799991399,None,,,,,,,,,00056,001,2026-01-19_11h07.07.462,MST_test,2024.2.0,59.744865510200796,2026-01-19 11h07.21.193260 +0530,
57,0,58,s,1.4210362000158057,None,58,0,57,300.1475621999707,,,,,,,,,,,,,,,,,,,,,,,,,,,,,,,,,,,,,,,,,,,,,,,,,,300.131991799979,300.1475621999707,300.63278649997665,300.64244109997526,300.6661609999719,300.6661609999719,300.6661609999719,302.0884496999788,Objects\038b.jpg,mid,s,1.4210362000158057,None,,,,,,,,,00056,001,2026-01-19_11h07.07.462,MST_test,2024.2.0,59.744865510200796,2026-01-19 11h07.21.193260 +0530,
58,0,59,s,1.1287603999953717,None,59,0,58,302.10444719996303,,,,,,,,,,,,,,,,,,,,,,,,,,,,,,,,,,,,,,,,,,,,,,,,,,302.0885438999976,302.10444719996303,302.5894862000132,302.5924022999825,302.6064170000027,302.6064170000027,302.6064170000027,303.74426989996573,Objects\181a.jpg,pre,s,1.1287603999953717,None,,,,,,,,,00056,001,2026-01-19_11h07.07.462,MST_test,2024.2.0,59.744865510200796,2026-01-19 11h07.21.193260 +0530,
59,0,60,n,2.1849405000102706,None,60,0,59,303.760272399988,,,,,,,,,,,,,,,,,,,,,,,,,,,,,,,,,,,,,,,,,,,,,,,,,,303.7443627999746,303.760272399988,304.24541079998016,304.25487890001386,304.2786826000083,304.2786826000083,304.2786826000083,306.47055889997864,Foils\017a.jpg,none,n,2.1849405000102706,None,,,,,,,,,00056,001,2026-01-19_11h07.07.462,MST_test,2024.2.0,59.744865510200796,2026-01-19 11h07.21.193260 +0530,
60,0,61,s,1.4592904000310227,None,61,0,60,306.4864343999652,,,,,,,,,,,,,,,,,,,,,,,,,,,,,,,,,,,,,,,,,,,,,,,,,,306.4706564999651,306.4864343999652,306.97164609999163,306.9808469999698,307.0049129999825,307.0049129999825,307.0049129999825,308.4773148999666,Objects\109b.jpg,pre,s,1.4592904000310227,None,,,,,,,,,00056,001,2026-01-19_11h07.07.462,MST_test,2024.2.0,59.744865510200796,2026-01-19 11h07.21.193260 +0530,
61,0,62,s,1.3475732000079006,None,62,0,61,308.4935722000082,,,,,,,,,,,,,,,,,,,,,,,,,,,,,,,,,,,,,,,,,,,,,,,,,,308.4774124000105,308.4935722000082,308.9785341999959,308.98826509999344,309.0120438999729,309.0120438999729,309.0120438999729,310.3672930999892,Objects\279b.jpg,pre,s,1.3475732000079006,None,,,,,,,,,00056,001,2026-01-19_11h07.07.462,MST_test,2024.2.0,59.744865510200796,2026-01-19 11h07.21.193260 +0530,
62,0,63,s,1.6181919000227936,None,63,0,62,310.38350469997386,,,,,,,,,,,,,,,,,,,,,,,,,,,,,,,,,,,,,,,,,,,,,,,,,,310.3673880000133,310.38350469997386,310.8685109000071,310.88344419997884,310.9019851000048,310.9019851000048,310.9019851000048,312.52493830001913,Objects\250b.jpg,mid,s,1.6181919000227936,None,,,,,,,,,00056,001,2026-01-19_11h07.07.462,MST_test,2024.2.0,59.744865510200796,2026-01-19 11h07.21.193260 +0530,
63,0,64,n,1.109263100021053,None,64,0,63,312.5410696999752,,,,,,,,,,,,,,,,,,,,,,,,,,,,,,,,,,,,,,,,,,,,,,,,,,312.52503059996525,312.5410696999752,313.02602150000166,313.0417335999664,313.0595457999734,313.0595457999734,313.0595457999734,314.18061539996415,Objects\302b.jpg,mid,n,1.109263100021053,None,,,,,,,,,00056,001,2026-01-19_11h07.07.462,MST_test,2024.2.0,59.744865510200796,2026-01-19 11h07.21.193260 +0530,
64,0,65,o,3.109989400021732,None,65,0,64,314.1968764999765,,,,,,,,,,,,,,,,,,,,,,,,,,,,,,,,,,,,,,,,,,,,,,,,,,314.18071270000655,314.1968764999765,314.681849399989,314.6845828999649,314.6987538000103,314.6987538000103,314.6987538000103,317.8100172000122,Objects\342a.jpg,post,o,3.109989400021732,None,,,,,,,,,00056,001,2026-01-19_11h07.07.462,MST_test,2024.2.0,59.744865510200796,2026-01-19 11h07.21.193260 +0530,
65,0,66,s,2.526763800007757,None,66,0,65,317.82625949999783,,,,,,,,,,,,,,,,,,,,,,,,,,,,,,,,,,,,,,,,,,,,,,,,,,317.81010900001274,317.82625949999783,318.3119569999981,318.32210099999793,318.34474309999496,318.34474309999496,318.34474309999496,320.88743559998693,Objects\078b.jpg,post,s,2.526763800007757,None,,,,,,,,,00056,001,2026-01-19_11h07.07.462,MST_test,2024.2.0,59.744865510200796,2026-01-19 11h07.21.193260 +0530,
66,0,67,n,1.4652825000230223,None,67,0,66,320.90356690000044,,,,,,,,,,,,,,,,,,,,,,,,,,,,,,,,,,,,,,,,,,,,,,,,,,320.88752920000115,320.90356690000044,321.38877289998345,321.39807850000216,321.42217809997965,321.42217809997965,321.42217809997965,322.8947085000109,Foils\073a.jpg,none,n,1.4652825000230223,None,,,,,,,,,00056,001,2026-01-19_11h07.07.462,MST_test,2024.2.0,59.744865510200796,2026-01-19 11h07.21.193260 +0530,
67,0,68,s,5.018662000016775,None,68,0,67,322.91071600001305,,,,,,,,,,,,,,,,,,,,,,,,,,,,,,,,,,,,,,,,,,,,,,,,,,322.8948066000012,322.91071600001305,323.39601849997416,323.41092499997467,323.4292341999826,323.4292341999826,323.4292341999826,328.4639649000019,Objects\244b.jpg,post,s,5.018662000016775,None,,,,,,,,,00056,001,2026-01-19_11h07.07.462,MST_test,2024.2.0,59.744865510200796,2026-01-19 11h07.21.193260 +0530,
68,0,69,s,1.2736075000138953,None,69,0,68,328.48010149999755,,,,,,,,,,,,,,,,,,,,,,,,,,,,,,,,,,,,,,,,,,,,,,,,,,328.4640575000085,328.48010149999755,328.9653083999874,328.9812454999774,328.99858459999086,328.99858459999086,328.99858459999086,330.2870647999807,Objects\330b.jpg,pre,s,1.2736075000138953,None,,,,,,,,,00056,001,2026-01-19_11h07.07.462,MST_test,2024.2.0,59.744865510200796,2026-01-19 11h07.21.193260 +0530,
69,0,70,s,1.057321599975694,None,70,0,69,330.303156399983,,,,,,,,,,,,,,,,,,,,,,,,,,,,,,,,,,,,,,,,,,,,,,,,,,330.2871700999676,330.303156399983,330.78837879997445,330.80391889996827,330.82166469999356,330.82166469999356,330.82166469999356,331.8927732000011,Objects\011b.jpg,post,s,1.057321599975694,None,,,,,,,,,00056,001,2026-01-19_11h07.07.462,MST_test,2024.2.0,59.744865510200796,2026-01-19 11h07.21.193260 +0530,
70,0,71,o,5.525788100028876,None,71,0,70,331.9088957000058,,,,,,,,,,,,,,,,,,,,,,,,,,,,,,,,,,,,,,,,,,,,,,,,,,331.89286879997235,331.9088957000058,332.3938673000084,332.400087099988,332.41077469999436,332.41077469999436,332.41077469999436,337.9473416999681,Objects\353a.jpg,pre,o,5.525788100028876,None,,,,,,,,,00056,001,2026-01-19_11h07.07.462,MST_test,2024.2.0,59.744865510200796,2026-01-19 11h07.21.193260 +0530,
71,0,72,n,1.3583616000250913,None,72,0,71,337.963447200018,,,,,,,,,,,,,,,,,,,,,,,,,,,,,,,,,,,,,,,,,,,,,,,,,,337.94743649999145,337.963447200018,338.44852340000216,338.46335849998286,338.48180700000376,338.48180700000376,338.48180700000376,339.8538638000027,Foils\082a.jpg,none,n,1.3583616000250913,None,,,,,,,,,00056,001,2026-01-19_11h07.07.462,MST_test,2024.2.0,59.744865510200796,2026-01-19 11h07.21.193260 +0530,
72,0,73,o,2.8995502999750897,None,73,0,72,339.870270000014,,,,,,,,,,,,,,,,,,,,,,,,,,,,,,,,,,,,,,,,,,,,,,,,,,339.85395610000705,339.870270000014,340.3552378999884,340.36433569999645,340.38878089998616,340.38878089998616,340.38878089998616,343.2994342999882,Objects\253b.jpg,post,o,2.8995502999750897,None,,,,,,,,,00056,001,2026-01-19_11h07.07.462,MST_test,2024.2.0,59.744865510200796,2026-01-19 11h07.21.193260 +0530,
73,0,74,s,1.1254224000149406,None,74,0,73,343.3155461999704,,,,,,,,,,,,,,,,,,,,,,,,,,,,,,,,,,,,,,,,,,,,,,,,,,343.29953690001275,343.3155461999704,343.80071829998633,343.81034209998325,343.8338935999782,343.8338935999782,343.8338935999782,344.97192320000613,Objects\092b.jpg,mid,s,1.1254224000149406,None,,,,,,,,,00056,001,2026-01-19_11h07.07.462,MST_test,2024.2.0,59.744865510200796,2026-01-19 11h07.21.193260 +0530,
74,0,75,n,0.8924413000349887,None,75,0,74,344.9880131999962,,,,,,,,,,,,,,,,,,,,,,,,,,,,,,,,,,,,,,,,,,,,,,,,,,344.9720144000021,344.9880131999962,345.47304860001896,345.48252859996865,345.50652469997294,345.50652469997294,345.50652469997294,346.41014270001324,Foils\058a.jpg,none,n,0.8924413000349887,None,,,,,,,,,00056,001,2026-01-19_11h07.07.462,MST_test,2024.2.0,59.744865510200796,2026-01-19 11h07.21.193260 +0530,
75,0,76,n,1.7832018999615684,None,76,0,75,346.4264737999765,,,,,,,,,,,,,,,,,,,,,,,,,,,,,,,,,,,,,,,,,,,,,,,,,,346.4102424000157,346.4264737999765,346.91147669998463,346.9203427999746,346.9447637000121,346.9447637000121,346.9447637000121,348.7350439999718,Objects\256a.jpg,pre,n,1.7832018999615684,None,,,,,,,,,00056,001,2026-01-19_11h07.07.462,MST_test,2024.2.0,59.744865510200796,2026-01-19 11h07.21.193260 +0530,
76,0,77,s,1.3556918000103906,None,77,0,76,348.75117730000056,,,,,,,,,,,,,,,,,,,,,,,,,,,,,,,,,,,,,,,,,,,,,,,,,,348.7351400000043,348.75117730000056,349.23630059999414,349.2441305000102,349.2523812999716,349.2523812999716,349.2523812999716,350.62503039999865,Objects\073a.jpg,post,s,1.3556918000103906,None,,,,,,,,,00056,001,2026-01-19_11h07.07.462,MST_test,2024.2.0,59.744865510200796,2026-01-19 11h07.21.193260 +0530,
77,0,78,o,1.0969650999759324,None,78,0,77,350.6411614000099,,,,,,,,,,,,,,,,,,,,,,,,,,,,,,,,,,,,,,,,,,,,,,,,,,350.6251290999935,350.6411614000099,351.12629499996547,351.12930739996955,351.14295419998234,351.14295419998234,351.14295419998234,352.2472873000079,Objects\001a.jpg,post,o,1.0969650999759324,None,,,,,,,,,00056,001,2026-01-19_11h07.07.462,MST_test,2024.2.0,59.744865510200796,2026-01-19 11h07.21.193260 +0530,
78,0,79,o,1.1142537000123411,None,79,0,78,352.26350820000516,,,,,,,,,,,,,,,,,,,,,,,,,,,,,,,,,,,,,,,,,,,,,,,,,,352.2473839999875,352.26350820000516,352.74848680000287,352.7516187999863,352.76525589998346,352.76525589998346,352.76525589998346,353.8865527000162,Objects\285a.jpg,mid,o,1.1142537000123411,None,,,,,,,,,00056,001,2026-01-19_11h07.07.462,MST_test,2024.2.0,59.744865510200796,2026-01-19 11h07.21.193260 +0530,
79,0,80,o,2.1079705000156537,None,80,0,79,353.9026262999978,,,,,,,,,,,,,,,,,,,,,,,,,,,,,,,,,,,,,,,,,,,,,,,,,,353.8866500000004,353.9026262999978,354.3875417999807,354.39045359997544,354.404318899964,354.404318899964,354.404318899964,356.51279860001523,Objects\380a.jpg,pre,o,2.1079705000156537,None,,,,,,,,,00056,001,2026-01-19_11h07.07.462,MST_test,2024.2.0,59.744865510200796,2026-01-19 11h07.21.193260 +0530,
80,0,81,s,1.3843867999967188,None,81,0,80,356.5284315000172,,,,,,,,,,,,,,,,,,,,,,,,,,,,,,,,,,,,,,,,,,,,,,,,,,356.5128906000173,356.5284315000172,357.01354179996997,357.03207289997954,357.04775069997413,357.04775069997413,357.04775069997413,358.435782000015,Objects\363b.jpg,mid,s,1.3843867999967188,None,,,,,,,,,00056,001,2026-01-19_11h07.07.462,MST_test,2024.2.0,59.744865510200796,2026-01-19 11h07.21.193260 +0530,
81,0,82,s,1.1663928999914788,None,82,0,81,358.4517418000032,,,,,,,,,,,,,,,,,,,,,,,,,,,,,,,,,,,,,,,,,,,,,,,,,,358.4358919999795,358.4517418000032,358.9369574000011,358.94458589999704,358.9529857999878,358.9529857999878,358.9529857999878,360.124949799967,Objects\225a.jpg,mid,s,1.1663928999914788,None,,,,,,,,,00056,001,2026-01-19_11h07.07.462,MST_test,2024.2.0,59.744865510200796,2026-01-19 11h07.21.193260 +0530,
82,0,83,n,0.8914163999725133,None,83,0,82,360.14111849997425,,,,,,,,,,,,,,,,,,,,,,,,,,,,,,,,,,,,,,,,,,,,,,,,,,360.12504519999493,360.14111849997425,360.62606549996417,360.6358497000183,360.65958510001656,360.65958510001656,360.65958510001656,361.56327450001845,Foils\101b.jpg,none,n,0.8914163999725133,None,,,,,,,,,00056,001,2026-01-19_11h07.07.462,MST_test,2024.2.0,59.744865510200796,2026-01-19 11h07.21.193260 +0530,
83,0,84,o,1.917666300025303,None,84,0,83,361.5793477999978,,,,,,,,,,,,,,,,,,,,,,,,,,,,,,,,,,,,,,,,,,,,,,,,,,361.5633690999821,361.5793477999978,362.064547099988,362.07181140000466,362.0815065999632,362.0815065999632,362.0815065999632,364.0051581999869,Objects\211a.jpg,pre,o,1.917666300025303,None,,,,,,,,,00056,001,2026-01-19_11h07.07.462,MST_test,2024.2.0,59.744865510200796,2026-01-19 11h07.21.193260 +0530,
84,0,85,n,4.204522399988491,None,85,0,84,364.02123690000735,,,,,,,,,,,,,,,,,,,,,,,,,,,,,,,,,,,,,,,,,,,,,,,,,,364.0052510999958,364.02123690000735,364.50642119999975,364.521294199978,364.53970379999373,364.53970379999373,364.53970379999373,368.7550500999787,Objects\315b.jpg,mid,n,4.204522399988491,None,,,,,,,,,00056,001,2026-01-19_11h07.07.462,MST_test,2024.2.0,59.744865510200796,2026-01-19 11h07.21.193260 +0530,
85,0,86,o,1.7092148999799974,None,86,0,85,368.77147909998894,,,,,,,,,,,,,,,,,,,,,,,,,,,,,,,,,,,,,,,,,,,,,,,,,,368.75514829996973,368.77147909998894,369.2564882999868,369.27198229997884,369.2899848999805,369.2899848999805,369.2899848999805,371.01342649996514,Objects\056b.jpg,pre,o,1.7092148999799974,None,,,,,,,,,00056,001,2026-01-19_11h07.07.462,MST_test,2024.2.0,59.744865510200796,2026-01-19 11h07.21.193260 +0530,
86,0,87,s,1.8596623000339605,None,87,0,86,371.03004990000045,,,,,,,,,,,,,,,,,,,,,,,,,,,,,,,,,,,,,,,,,,,,,,,,,,371.013518999971,371.03004990000045,371.51448860001983,371.529011000006,371.54776559997117,371.54776559997117,371.54776559997117,373.4214334000135,Objects\194b.jpg,mid,s,1.8596623000339605,None,,,,,,,,,00056,001,2026-01-19_11h07.07.462,MST_test,2024.2.0,59.744865510200796,2026-01-19 11h07.21.193260 +0530,
87,0,88,n,1.9155345000326633,None,88,0,87,373.43780279997736,,,,,,,,,,,,,,,,,,,,,,,,,,,,,,,,,,,,,,,,,,,,,,,,,,373.42153130000224,373.43780279997736,373.9227802999667,373.9381027999916,373.9563066000119,373.9563066000119,373.9563066000119,375.8803697999683,Foils\002a.jpg,none,n,1.9155345000326633,None,,,,,,,,,00056,001,2026-01-19_11h07.07.462,MST_test,2024.2.0,59.744865510200796,2026-01-19 11h07.21.193260 +0530,
88,0,89,o,1.0650973999872804,None,89,0,88,375.89627959998325,,,,,,,,,,,,,,,,,,,,,,,,,,,,,,,,,,,,,,,,,,,,,,,,,,375.88046730001224,375.89627959998325,376.3812382000033,376.383908000018,376.39859130000696,376.39859130000696,376.39859130000696,377.4693308999995,Objects\124a.jpg,mid,o,1.0650973999872804,None,,,,,,,,,00056,001,2026-01-19_11h07.07.462,MST_test,2024.2.0,59.744865510200796,2026-01-19 11h07.21.193260 +0530,
89,0,90,s,4.492221000022255,None,90,0,89,377.4850543999928,,,,,,,,,,,,,,,,,,,,,,,,,,,,,,,,,,,,,,,,,,,,,,,,,,377.46942460001446,377.4850543999928,377.97024950000923,377.9799752999679,378.00353529996937,378.00353529996937,378.00353529996937,382.503338599985,Objects\167b.jpg,post,s,4.492221000022255,None,,,,,,,,,00056,001,2026-01-19_11h07.07.462,MST_test,2024.2.0,59.744865510200796,2026-01-19 11h07.21.193260 +0530,
90,0,91,n,1.2656895000254735,None,91,0,90,382.5193405000027,,,,,,,,,,,,,,,,,,,,,,,,,,,,,,,,,,,,,,,,,,,,,,,,,,382.50343759998213,382.5193405000027,383.0045855999924,383.0210226000054,383.037834000017,383.037834000017,383.037834000017,384.30969219998224,Objects\269b.jpg,pre,n,1.2656895000254735,None,,,,,,,,,00056,001,2026-01-19_11h07.07.462,MST_test,2024.2.0,59.744865510200796,2026-01-19 11h07.21.193260 +0530,
91,0,92,o,3.5070426000165753,None,92,0,91,384.32579119998263,,,,,,,,,,,,,,,,,,,,,,,,,,,,,,,,,,,,,,,,,,,,,,,,,,384.3097828999744,384.32579119998263,384.8107555999886,384.8186631000135,384.8442619999987,384.8442619999987,384.8442619999987,388.3570582999964,Objects\238a.jpg,pre,o,3.5070426000165753,None,,,,,,,,,00056,001,2026-01-19_11h07.07.462,MST_test,2024.2.0,59.744865510200796,2026-01-19 11h07.21.193260 +0530,
92,0,93,s,1.3322059999918565,None,93,0,92,388.3732955000014,,,,,,,,,,,,,,,,,,,,,,,,,,,,,,,,,,,,,,,,,,,,,,,,,,388.35715389996767,388.3732955000014,388.8584864999866,388.8717099999776,388.8919605999836,388.8919605999836,388.8919605999836,390.2307897999999,Objects\242b.jpg,pre,s,1.3322059999918565,None,,,,,,,,,00056,001,2026-01-19_11h07.07.462,MST_test,2024.2.0,59.744865510200796,2026-01-19 11h07.21.193260 +0530,
93,0,94,s,1.5788848000229336,None,94,0,93,390.2464083000086,,,,,,,,,,,,,,,,,,,,,,,,,,,,,,,,,,,,,,,,,,,,,,,,,,390.2308915000176,390.2464083000086,390.73179429996526,390.7472235999885,390.7648996000062,390.7648996000062,390.7648996000062,392.3546164999716,Objects\178b.jpg,post,s,1.5788848000229336,None,,,,,,,,,00056,001,2026-01-19_11h07.07.462,MST_test,2024.2.0,59.744865510200796,2026-01-19 11h07.21.193260 +0530,
94,0,95,s,1.384464200004004,None,95,0,94,392.37116119998973,,,,,,,,,,,,,,,,,,,,,,,,,,,,,,,,,,,,,,,,,,,,,,,,,,392.3547109999927,392.37116119998973,392.85571289999643,392.86285729997326,392.87159250001423,392.87159250001423,392.87159250001423,394.26128530001733,Objects\350a.jpg,pre,s,1.384464200004004,None,,,,,,,,,00056,001,2026-01-19_11h07.07.462,MST_test,2024.2.0,59.744865510200796,2026-01-19 11h07.21.193260 +0530,
95,0,96,o,1.2198139000101946,None,96,0,95,394.27720159996534,,,,,,,,,,,,,,,,,,,,,,,,,,,,,,,,,,,,,,,,,,,,,,,,,,394.26137630001176,394.27720159996534,394.76238219998777,394.7704313999857,394.7956520000007,394.7956520000007,394.7956520000007,396.01755469996715,Objects\276a.jpg,post,o,1.2198139000101946,None,,,,,,,,,00056,001,2026-01-19_11h07.07.462,MST_test,2024.2.0,59.744865510200796,2026-01-19 11h07.21.193260 +0530,
96,0,97,n,1.2497522999765351,None,97,0,96,396.0333317000186,,,,,,,,,,,,,,,,,,,,,,,,,,,,,,,,,,,,,,,,,,,,,,,,,,396.017647199973,396.0333317000186,396.518534599978,396.5228735000128,396.53507410001475,396.53507410001475,396.53507410001475,397.79012239997974,Objects\384a.jpg,mid,n,1.2497522999765351,None,,,,,,,,,00056,001,2026-01-19_11h07.07.462,MST_test,2024.2.0,59.744865510200796,2026-01-19 11h07.21.193260 +0530,
97,0,98,n,0.8105867999838665,None,98,0,97,397.80620819999604,,,,,,,,,,,,,,,,,,,,,,,,,,,,,,,,,,,,,,,,,,,,,,,,,,397.79021499998635,397.80620819999604,398.291407599987,398.3011108000064,398.3246986999875,398.3246986999875,398.3246986999875,399.14499659999274,Objects\104b.jpg,pre,n,0.8105867999838665,None,,,,,,,,,00056,001,2026-01-19_11h07.07.462,MST_test,2024.2.0,59.744865510200796,2026-01-19 11h07.21.193260 +0530,
98,0,99,s,1.0405926000094041,None,99,0,98,399.1609572999878,,,,,,,,,,,,,,,,,,,,,,,,,,,,,,,,,,,,,,,,,,,,,,,,,,399.14509259996703,399.1609572999878,399.6461502999882,399.6552595999674,399.6794232999673,399.6794232999673,399.6794232999673,400.7336656000116,Objects\355b.jpg,pre,s,1.0405926000094041,None,,,,,,,,,00056,001,2026-01-19_11h07.07.462,MST_test,2024.2.0,59.744865510200796,2026-01-19 11h07.21.193260 +0530,
99,0,100,o,1.2034050999791361,None,100,0,99,400.7498454999877,,,,,,,,,,,,,,,,,,,,,,,,,,,,,,,,,,,,,,,,,,,,,,,,,,400.73376450000796,400.7498454999877,401.2350615999894,401.2425286999787,401.2683444999857,401.2683444999857,401.2683444999857,402.47317720000865,Objects\356a.jpg,mid,o,1.2034050999791361,None,,,,,,,,,00056,001,2026-01-19_11h07.07.462,MST_test,2024.2.0,59.744865510200796,2026-01-19 11h07.21.193260 +0530,
100,0,101,o,0.8722912999801338,None,101,0,100,402.4893990000128,,,,,,,,,,,,,,,,,,,,,,,,,,,,,,,,,,,,,,,,,,,,,,,,,,402.4732774000149,402.4893990000128,402.9743628000142,402.9830700000166,403.0078631999786,403.0078631999786,403.0078631999786,403.8948346999823,Objects\144a.jpg,mid,o,0.8722912999801338,None,,,,,,,,,00056,001,2026-01-19_11h07.07.462,MST_test,2024.2.0,59.744865510200796,2026-01-19 11h07.21.193260 +0530,
101,0,102,o,0.7952785000088625,None,102,0,101,403.9111976000131,,,,,,,,,,,,,,,,,,,,,,,,,,,,,,,,,,,,,,,,,,,,,,,,,,403.8949315000209,403.9111976000131,404.3960113999783,404.4033005000092,404.4128140999819,404.4128140999819,404.4128140999819,405.216240299982,Objects\329a.jpg,mid,o,0.7952785000088625,None,,,,,,,,,00056,001,2026-01-19_11h07.07.462,MST_test,2024.2.0,59.744865510200796,2026-01-19 11h07.21.193260 +0530,
102,0,103,o,1.1931013999856077,None,103,0,102,405.2322076999699,,,,,,,,,,,,,,,,,,,,,,,,,,,,,,,,,,,,,,,,,,,,,,,,,,405.2163363000145,405.2322076999699,405.71728629997233,405.72550389997195,405.75081930001033,405.75081930001033,405.75081930001033,406.95574519998627,Objects\216a.jpg,pre,o,1.1931013999856077,None,,,,,,,,,00056,001,2026-01-19_11h07.07.462,MST_test,2024.2.0,59.744865510200796,2026-01-19 11h07.21.193260 +0530,
103,0,104,s,1.2698802999802865,None,104,0,103,406.9716288999771,,,,,,,,,,,,,,,,,,,,,,,,,,,,,,,,,,,,,,,,,,,,,,,,,,406.9558438999811,406.9716288999771,407.45682929997565,407.4713001999771,407.490112999978,407.490112999978,407.490112999978,408.7620910999831,Objects\327b.jpg,pre,s,1.2698802999802865,None,,,,,,,,,00056,001,2026-01-19_11h07.07.462,MST_test,2024.2.0,59.744865510200796,2026-01-19 11h07.21.193260 +0530,
104,0,105,s,2.936381999985315,None,105,0,104,408.77870269998675,,,,,,,,,,,,,,,,,,,,,,,,,,,,,,,,,,,,,,,,,,,,,,,,,,408.76219109998783,408.77870269998675,409.26321820000885,409.2700668000034,409.2797980000032,409.2797980000032,409.2797980000032,412.2240637000068,Objects\360a.jpg,post,s,2.936381999985315,None,,,,,,,,,00056,001,2026-01-19_11h07.07.462,MST_test,2024.2.0,59.744865510200796,2026-01-19 11h07.21.193260 +0530,
105,0,106,s,1.1368929999880493,None,106,0,105,412.2402545000077,,,,,,,,,,,,,,,,,,,,,,,,,,,,,,,,,,,,,,,,,,,,,,,,,,412.2241891999729,412.2402545000077,412.7254372999887,412.7416974999942,412.75873890001094,412.75873890001094,412.75873890001094,413.8964791999897,Objects\090b.jpg,post,s,1.1368929999880493,None,,,,,,,,,00056,001,2026-01-19_11h07.07.462,MST_test,2024.2.0,59.744865510200796,2026-01-19 11h07.21.193260 +0530,
106,0,107,s,2.6568368999869563,None,107,0,106,413.9128801000188,,,,,,,,,,,,,,,,,,,,,,,,,,,,,,,,,,,,,,,,,,,,,,,,,,413.89657509996323,413.9128801000188,414.3984517999925,414.4079253000091,414.4312712000101,414.4312712000101,414.4312712000101,417.09104749996914,Objects\022b.jpg,mid,s,2.6568368999869563,None,,,,,,,,,00056,001,2026-01-19_11h07.07.462,MST_test,2024.2.0,59.744865510200796,2026-01-19 11h07.21.193260 +0530,
107,0,108,o,1.4704764999914914,None,108,0,107,417.1073990999721,,,,,,,,,,,,,,,,,,,,,,,,,,,,,,,,,,,,,,,,,,,,,,,,,,417.0911469999701,417.1073990999721,417.59237470000517,417.595067999966,417.6091559000197,417.6091559000197,417.6091559000197,419.08138250000775,Objects\137a.jpg,post,o,1.4704764999914914,None,,,,,,,,,00056,001,2026-01-19_11h07.07.462,MST_test,2024.2.0,59.744865510200796,2026-01-19 11h07.21.193260 +0530,
108,0,109,s,0.9036010000272654,None,109,0,108,419.0976143999724,,,,,,,,,,,,,,,,,,,,,,,,,,,,,,,,,,,,,,,,,,,,,,,,,,419.0814770999714,419.0976143999724,419.5828154999763,419.59257779998006,419.61613199999556,419.61613199999556,419.61613199999556,420.53658610000275,Foils\105a.jpg,none,s,0.9036010000272654,None,,,,,,,,,00056,001,2026-01-19_11h07.07.462,MST_test,2024.2.0,59.744865510200796,2026-01-19 11h07.21.193260 +0530,
109,0,110,o,1.081643899960909,None,110,0,109,420.55265039997175,,,,,,,,,,,,,,,,,,,,,,,,,,,,,,,,,,,,,,,,,,,,,,,,,,420.53668379999,420.55265039997175,421.03774960001465,421.04059509997023,421.0543469999684,421.0543469999684,421.0543469999684,422.14197799999965,Objects\129a.jpg,pre,o,1.081643899960909,None,,,,,,,,,00056,001,2026-01-19_11h07.07.462,MST_test,2024.2.0,59.744865510200796,2026-01-19 11h07.21.193260 +0530,
110,0,111,s,0.9550984000088647,None,111,0,110,422.15816290001385,,,,,,,,,,,,,,,,,,,,,,,,,,,,,,,,,,,,,,,,,,,,,,,,,,422.1420769999968,422.15816290001385,422.6435093000182,422.6527869999991,422.67674869997427,422.67674869997427,422.67674869997427,423.64755330001935,Foils\026a.jpg,none,s,0.9550984000088647,None,,,,,,,,,00056,001,2026-01-19_11h07.07.462,MST_test,2024.2.0,59.744865510200796,2026-01-19 11h07.21.193260 +0530,
111,0,112,s,1.905608700006269,None,112,0,111,423.6634176999796,,,,,,,,,,,,,,,,,,,,,,,,,,,,,,,,,,,,,,,,,,,,,,,,,,423.6476548999781,423.6634176999796,424.14862190000713,424.15778800001135,424.18190600001253,424.18190600001253,424.18190600001253,426.08924519998254,Objects\369b.jpg,post,s,1.905608700006269,None,,,,,,,,,00056,001,2026-01-19_11h07.07.462,MST_test,2024.2.0,59.744865510200796,2026-01-19 11h07.21.193260 +0530,
112,0,113,s,1.2391986000002362,None,113,0,112,426.1053215999855,,,,,,,,,,,,,,,,,,,,,,,,,,,,,,,,,,,,,,,,,,,,,,,,,,426.0893410000135,426.1053215999855,426.590792300005,426.6003956000204,426.6239090000163,426.6239090000163,426.6239090000163,427.87884710001526,Foils\057a.jpg,none,s,1.2391986000002362,None,,,,,,,,,00056,001,2026-01-19_11h07.07.462,MST_test,2024.2.0,59.744865510200796,2026-01-19 11h07.21.193260 +0530,
113,0,114,s,0.9551990999607369,None,114,0,113,427.8949022999732,,,,,,,,,,,,,,,,,,,,,,,,,,,,,,,,,,,,,,,,,,,,,,,,,,427.8789448000025,427.8949022999732,428.3801085000159,428.3936826999998,428.41336850001244,428.41336850001244,428.41336850001244,429.38408839999465,Objects\344b.jpg,pre,s,0.9551990999607369,None,,,,,,,,,00056,001,2026-01-19_11h07.07.462,MST_test,2024.2.0,59.744865510200796,2026-01-19 11h07.21.193260 +0530,
114,0,115,s,1.1924618000048213,None,115,0,114,429.4003020999953,,,,,,,,,,,,,,,,,,,,,,,,,,,,,,,,,,,,,,,,,,,,,,,,,,429.3841833000188,429.4003020999953,429.88524470000993,429.89377620001324,429.9189350999659,429.9189350999659,429.9189350999659,431.1235591999721,Objects\071a.jpg,mid,s,1.1924618000048213,None,,,,,,,,,00056,001,2026-01-19_11h07.07.462,MST_test,2024.2.0,59.744865510200796,2026-01-19 11h07.21.193260 +0530,
115,0,116,s,1.0208311000023969,None,116,0,115,431.13960499997484,,,,,,,,,,,,,,,,,,,,,,,,,,,,,,,,,,,,,,,,,,,,,,,,,,431.1236604999867,431.13960499997484,431.62480300001334,431.64079580002,431.65807830000995,431.65807830000995,431.65807830000995,432.68025550001767,Objects\296b.jpg,mid,s,1.0208311000023969,None,,,,,,,,,00056,001,2026-01-19_11h07.07.462,MST_test,2024.2.0,59.744865510200796,2026-01-19 11h07.21.193260 +0530,
116,0,117,n,2.4178114000242203,None,117,0,116,432.6953421999933,,,,,,,,,,,,,,,,,,,,,,,,,,,,,,,,,,,,,,,,,,,,,,,,,,432.68035899999086,432.6953421999933,433.18078749999404,433.1961169000133,433.2139349000063,433.2139349000063,433.2139349000063,435.63942720001796,Foils\049a.jpg,none,n,2.4178114000242203,None,433.2139349000063,,,,,,,,00056,001,2026-01-19_11h07.07.462,MST_test,2024.2.0,59.744865510200796,2026-01-19 11h07.21.193260 +0530,
117,0,118,s,4.112927200039849,None,118,0,117,435.65559939999366,,,,,,,,,,,,,,,,,,,,,,,,,,,,,,,,,,,,,,,,,,,,,,,,,,435.63952139997855,435.65559939999366,436.1407913999865,436.15011749998666,436.1741103999666,436.1741103999666,436.1741103999666,440.2890272999648,Objects\089b.jpg,mid,s,4.112927200039849,None,,,,,,,,,00056,001,2026-01-19_11h07.07.462,MST_test,2024.2.0,59.744865510200796,2026-01-19 11h07.21.193260 +0530,
118,0,119,s,1.5223197999875993,None,119,0,118,440.3051515999832,,,,,,,,,,,,,,,,,,,,,,,,,,,,,,,,,,,,,,,,,,,,,,,,,,440.28912189998664,440.3051515999832,440.7901244999957,440.7976301999879,440.80610109999543,440.80610109999543,440.80610109999543,442.32977169996593,Objects\372a.jpg,pre,s,1.5223197999875993,None,,,,,,,,,00056,001,2026-01-19_11h07.07.462,MST_test,2024.2.0,59.744865510200796,2026-01-19 11h07.21.193260 +0530,
119,0,120,s,1.2394332999829203,None,120,0,119,442.34552759997314,,,,,,,,,,,,,,,,,,,,,,,,,,,,,,,,,,,,,,,,,,,,,,,,,,442.3298669999931,442.34552759997314,442.8309039999731,442.8395706000156,442.86402649997035,442.86402649997035,442.86402649997035,444.11937570001464,Objects\382a.jpg,pre,s,1.2394332999829203,None,,,,,,,,,00056,001,2026-01-19_11h07.07.462,MST_test,2024.2.0,59.744865510200796,2026-01-19 11h07.21.193260 +0530,
120,0,121,s,1.4018708000076003,None,121,0,120,444.1356320999912,,,,,,,,,,,,,,,,,,,,,,,,,,,,,,,,,,,,,,,,,,,,,,,,,,444.1194752000156,444.1356320999912,444.62095239997143,444.63570079999045,444.6535959999892,444.6535959999892,444.6535959999892,446.05910770001356,Objects\025b.jpg,post,s,1.4018708000076003,None,,,,,,,,,00056,001,2026-01-19_11h07.07.462,MST_test,2024.2.0,59.744865510200796,2026-01-19 11h07.21.193260 +0530,
121,0,122,o,1.3741404000320472,None,122,0,121,446.07534849998774,,,,,,,,,,,,,,,,,,,,,,,,,,,,,,,,,,,,,,,,,,,,,,,,,,446.05920600000536,446.07534849998774,446.56030740001006,446.5628438999993,446.5770962999668,446.5770962999668,446.5770962999668,447.96610019996297,Objects\345a.jpg,mid,o,1.3741404000320472,None,,,,,,,,,00056,001,2026-01-19_11h07.07.462,MST_test,2024.2.0,59.744865510200796,2026-01-19 11h07.21.193260 +0530,
122,0,123,n,2.202486400026828,None,123,0,122,447.9820296000107,,,,,,,,,,,,,,,,,,,,,,,,,,,,,,,,,,,,,,,,,,,,,,,,,,447.96619080001255,447.9820296000107,448.4672169999685,448.47657790000085,448.5005153999664,448.5005153999664,448.5005153999664,450.7088679000153,Objects\049b.jpg,mid,n,2.202486400026828,None,,,,,,,,,00056,001,2026-01-19_11h07.07.462,MST_test,2024.2.0,59.744865510200796,2026-01-19 11h07.21.193260 +0530,
123,0,124,s,1.1239913000026718,None,124,0,123,450.7248719999916,,,,,,,,,,,,,,,,,,,,,,,,,,,,,,,,,,,,,,,,,,,,,,,,,,450.70896899997024,450.7248719999916,451.2100629999768,451.21907120000105,451.24332469998626,451.24332469998626,451.24332469998626,452.38139950000914,Foils\066a.jpg,none,s,1.1239913000026718,None,,,,,,,,,00056,001,2026-01-19_11h07.07.462,MST_test,2024.2.0,59.744865510200796,2026-01-19 11h07.21.193260 +0530,
124,0,125,s,1.0122463000006974,None,125,0,124,452.3976400999818,,,,,,,,,,,,,,,,,,,,,,,,,,,,,,,,,,,,,,,,,,,,,,,,,,452.38149409997277,452.3976400999818,452.8824480000185,452.8913719999837,452.91597849997925,452.91597849997925,452.91597849997925,453.93674879998434,Objects\206b.jpg,post,s,1.0122463000006974,None,,,,,,,,,00056,001,2026-01-19_11h07.07.462,MST_test,2024.2.0,59.744865510200796,2026-01-19 11h07.21.193260 +0530,
125,0,126,s,1.3918854999938048,None,126,0,125,453.9529402999906,,,,,,,,,,,,,,,,,,,,,,,,,,,,,,,,,,,,,,,,,,,,,,,,,,453.9368461999693,453.9529402999906,454.4380430000019,454.4474076000042,454.47131100000115,454.47131100000115,454.47131100000115,455.8770937999943,Objects\141b.jpg,post,s,1.3918854999938048,None,,,,,,,,,00056,001,2026-01-19_11h07.07.462,MST_test,2024.2.0,59.744865510200796,2026-01-19 11h07.21.193260 +0530,
126,0,127,o,1.1405410000006668,None,127,0,126,455.8931103000068,,,,,,,,,,,,,,,,,,,,,,,,,,,,,,,,,,,,,,,,,,,,,,,,,,455.87719209998613,455.8931103000068,456.3780469999765,456.38081040000543,456.39483329997165,456.39483329997165,456.39483329997165,457.54937550000614,Objects\241a.jpg,pre,o,1.1405410000006668,None,,,,,,,,,00056,001,2026-01-19_11h07.07.462,MST_test,2024.2.0,59.744865510200796,2026-01-19 11h07.21.193260 +0530,
127,0,128,s,2.3561855999869294,None,128,0,127,457.5655929999775,,,,,,,,,,,,,,,,,,,,,,,,,,,,,,,,,,,,,,,,,,,,,,,,,,457.5494752000086,457.5655929999775,458.05057700001635,458.0534819000168,458.06749039998977,458.06749039998977,458.06749039998977,460.4262651000172,Objects\077a.jpg,pre,s,2.3561855999869294,None,,,,,,,,,00056,001,2026-01-19_11h07.07.462,MST_test,2024.2.0,59.744865510200796,2026-01-19 11h07.21.193260 +0530,
128,0,129,n,1.0147619000053965,None,129,0,128,460.44221459998516,,,,,,,,,,,,,,,,,,,,,,,,,,,,,,,,,,,,,,,,,,,,,,,,,,460.4263609999907,460.44221459998516,460.9274060999742,460.93679669999983,460.96070479997434,460.96070479997434,460.96070479997434,461.98171849997016,Foils\033a.jpg,none,n,1.0147619000053965,None,,,,,,,,,00056,001,2026-01-19_11h07.07.462,MST_test,2024.2.0,59.744865510200796,2026-01-19 11h07.21.193260 +0530,
129,0,130,s,0.9631552000064403,None,130,0,129,461.99766180000734,,,,,,,,,,,,,,,,,,,,,,,,,,,,,,,,,,,,,,,,,,,,,,,,,,461.98182360001374,461.99766180000734,462.4828611999983,462.49277110002004,462.51640909997514,462.51640909997514,462.51640909997514,463.4870853999746,Objects\015b.jpg,pre,s,0.9631552000064403,None,,,,,,,,,00056,001,2026-01-19_11h07.07.462,MST_test,2024.2.0,59.744865510200796,2026-01-19 11h07.21.193260 +0530,
130,0,131,n,1.4814812000258826,None,131,0,130,463.50293429999147,,,,,,,,,,,,,,,,,,,,,,,,,,,,,,,,,,,,,,,,,,,,,,,,,,463.4871777999797,463.50293429999147,463.98826070001815,463.99754040001426,464.0216743000201,464.0216743000201,464.0216743000201,465.5106542999856,Foils\086a.jpg,none,n,1.4814812000258826,None,,,,,,,,,00056,001,2026-01-19_11h07.07.462,MST_test,2024.2.0,59.744865510200796,2026-01-19 11h07.21.193260 +0530,
131,0,132,o,1.3065791999688372,None,132,0,131,465.5267099000048,,,,,,,,,,,,,,,,,,,,,,,,,,,,,,,,,,,,,,,,,,,,,,,,,,465.5107459999854,465.5267099000048,466.0118832999724,466.02121829998214,466.045162800001,466.045162800001,466.045162800001,467.36701759998687,Objects\094b.jpg,mid,o,1.3065791999688372,None,,,,,,,,,00056,001,2026-01-19_11h07.07.462,MST_test,2024.2.0,59.744865510200796,2026-01-19 11h07.21.193260 +0530,
132,0,133,s,1.2826010000426322,None,133,0,132,467.3831909999717,,,,,,,,,,,,,,,,,,,,,,,,,,,,,,,,,,,,,,,,,,,,,,,,,,467.367112500011,467.3831909999717,467.8684164999868,467.87100129999453,467.8850581999868,467.8850581999868,467.8850581999868,469.17349610000383,Objects\047a.jpg,post,s,1.2826010000426322,None,,,,,,,,,00056,001,2026-01-19_11h07.07.462,MST_test,2024.2.0,59.744865510200796,2026-01-19 11h07.21.193260 +0530,
133,0,134,s,1.0914875000016764,None,134,0,133,469.1895043000113,,,,,,,,,,,,,,,,,,,,,,,,,,,,,,,,,,,,,,,,,,,,,,,,,,469.1735875000013,469.1895043000113,469.675767800014,469.68700799997896,469.7081220999826,469.7081220999826,469.7081220999826,470.81287009996595,Objects\184b.jpg,mid,s,1.0914875000016764,None,,,,,,,,,00056,001,2026-01-19_11h07.07.462,MST_test,2024.2.0,59.744865510200796,2026-01-19 11h07.21.193260 +0530,
134,0,135,s,1.3486133000114933,None,135,0,134,470.8287141000037,,,,,,,,,,,,,,,,,,,,,,,,,,,,,,,,,,,,,,,,,,,,,,,,,,470.81296820001444,470.8287141000037,471.31386539997766,471.32491739996476,471.34718290000455,471.34718290000455,471.34718290000455,472.70248249999713,Objects\161b.jpg,mid,s,1.3486133000114933,None,,,,,,,,,00056,001,2026-01-19_11h07.07.462,MST_test,2024.2.0,59.744865510200796,2026-01-19 11h07.21.193260 +0530,
135,0,136,s,1.306171300006099,None,136,0,135,472.71864839998307,,,,,,,,,,,,,,,,,,,,,,,,,,,,,,,,,,,,,,,,,,,,,,,,,,472.70257329999004,472.71864839998307,473.203618599975,473.2201067999704,473.2371267999988,473.2371267999988,473.2371267999988,474.55930720001925,Objects\364b.jpg,pre,s,1.306171300006099,None,,,,,,,,,00056,001,2026-01-19_11h07.07.462,MST_test,2024.2.0,59.744865510200796,2026-01-19 11h07.21.193260 +0530,
136,0,137,s,1.4506385999848135,None,137,0,136,474.57516680000117,,,,,,,,,,,,,,,,,,,,,,,,,,,,,,,,,,,,,,,,,,,,,,,,,,474.5594078999711,474.57516680000117,475.06028390000574,475.06724210001994,475.076439699973,475.076439699973,475.076439699973,476.53238619997865,Objects\235a.jpg,post,s,1.4506385999848135,None,,,,,,,,,00056,001,2026-01-19_11h07.07.462,MST_test,2024.2.0,59.744865510200796,2026-01-19 11h07.21.193260 +0530,
137,0,138,s,1.0606481000431813,None,138,0,137,476.548999199993,,,,,,,,,,,,,,,,,,,,,,,,,,,,,,,,,,,,,,,,,,,,,,,,,,476.5324885000009,476.548999199993,477.0336847999715,477.049049299967,477.06720559997484,477.06720559997484,477.06720559997484,478.1381831999752,Objects\082b.jpg,post,s,1.0606481000431813,None,,,,,,,,,00056,001,2026-01-19_11h07.07.462,MST_test,2024.2.0,59.744865510200796,2026-01-19 11h07.21.193260 +0530,
138,0,139,s,4.406240799988154,None,139,0,138,478.1543674999848,,,,,,,,,,,,,,,,,,,,,,,,,,,,,,,,,,,,,,,,,,,,,,,,,,478.13827409996884,478.1543674999848,478.639306499972,478.64923480001744,478.6728221999947,478.6728221999947,478.6728221999947,483.08882710000034,Objects\237b.jpg,mid,s,4.406240799988154,None,,,,,,,,,00056,001,2026-01-19_11h07.07.462,MST_test,2024.2.0,59.744865510200796,2026-01-19 11h07.21.193260 +0530,
139,0,140,o,2.671832899970468,None,140,0,139,483.10491190000903,,,,,,,,,,,,,,,,,,,,,,,,,,,,,,,,,,,,,,,,,,,,,,,,,,483.0889193000039,483.10491190000903,483.59011990000727,483.598702999996,483.62342209997587,483.62342209997587,483.62342209997587,486.3001206999761,Objects\267a.jpg,mid,o,2.671832899970468,None,,,,,,,,,00056,001,2026-01-19_11h07.07.462,MST_test,2024.2.0,59.744865510200796,2026-01-19 11h07.21.193260 +0530,
140,0,141,s,1.2762762000202201,None,141,0,140,486.3162689000019,,,,,,,,,,,,,,,,,,,,,,,,,,,,,,,,,,,,,,,,,,,,,,,,,,486.30021839996334,486.3162689000019,486.80121499998495,486.8170714000007,486.8347431999864,486.8347431999864,486.8347431999864,488.1231372000184,Objects\196b.jpg,mid,s,1.2762762000202201,None,,,,,,,,,00056,001,2026-01-19_11h07.07.462,MST_test,2024.2.0,59.744865510200796,2026-01-19 11h07.21.193260 +0530,
141,0,142,n,3.7578966000000946,None,142,0,141,488.1393308999832,,,,,,,,,,,,,,,,,,,,,,,,,,,,,,,,,,,,,,,,,,,,,,,,,,488.1232413999969,488.1393308999832,488.62428400001954,488.6339900000021,488.6578318999964,488.6578318999964,488.6578318999964,492.4215424999711,Objects\108b.jpg,pre,n,3.7578966000000946,None,,,,,,,,,00056,001,2026-01-19_11h07.07.462,MST_test,2024.2.0,59.744865510200796,2026-01-19 11h07.21.193260 +0530,
142,0,143,o,1.1396517000393942,None,143,0,142,492.43770629999926,,,,,,,,,,,,,,,,,,,,,,,,,,,,,,,,,,,,,,,,,,,,,,,,,,492.4216407999629,492.43770629999926,492.9228165000095,492.9304776000208,492.95629950001603,492.95629950001603,492.95629950001603,494.1108773999731,Objects\358a.jpg,pre,o,1.1396517000393942,None,,,,,,,,,00056,001,2026-01-19_11h07.07.462,MST_test,2024.2.0,59.744865510200796,2026-01-19 11h07.21.193260 +0530,
143,0,144,o,3.1215564000303857,None,144,0,143,494.12696700001834,,,,,,,,,,,,,,,,,,,,,,,,,,,,,,,,,,,,,,,,,,,,,,,,,,494.1109800999984,494.12696700001834,494.61193209997145,494.6198916999856,494.6454294999712,494.6454294999712,494.6454294999712,497.7736425999901,Objects\007a.jpg,post,o,3.1215564000303857,None,,,,,,,,,00056,001,2026-01-19_11h07.07.462,MST_test,2024.2.0,59.744865510200796,2026-01-19 11h07.21.193260 +0530,
144,0,145,s,1.2756751999841072,None,145,0,144,497.7896730999928,,,,,,,,,,,,,,,,,,,,,,,,,,,,,,,,,,,,,,,,,,,,,,,,,,497.7737422999926,497.7896730999928,498.2748597000027,498.27750299999025,498.2914190000156,498.2914190000156,498.2914190000156,499.5798160000122,Objects\106a.jpg,post,s,1.2756751999841072,None,,,,,,,,,00056,001,2026-01-19_11h07.07.462,MST_test,2024.2.0,59.744865510200796,2026-01-19 11h07.21.193260 +0530,
145,0,146,s,0.9976071999990381,None,146,0,145,499.59599589998834,,,,,,,,,,,,,,,,,,,,,,,,,,,,,,,,,,,,,,,,,,,,,,,,,,499.579914300004,499.59599589998834,500.08118169999216,500.0838702999754,500.0979026000132,500.0979026000132,500.0979026000132,501.1021769999643,Objects\198a.jpg,post,s,0.9976071999990381,None,,,,,,,,,00056,001,2026-01-19_11h07.07.462,MST_test,2024.2.0,59.744865510200796,2026-01-19 11h07.21.193260 +0530,
146,0,147,n,0.9541253999923356,None,147,0,146,501.11812140000984,,,,,,,,,,,,,,,,,,,,,,,,,,,,,,,,,,,,,,,,,,,,,,,,,,501.1022706999793,501.11812140000984,501.60306789999595,501.61227079998935,501.63720449997345,501.63720449997345,501.63720449997345,502.6071532999631,Foils\098a.jpg,none,n,0.9541253999923356,None,,,,,,,,,00056,001,2026-01-19_11h07.07.462,MST_test,2024.2.0,59.744865510200796,2026-01-19 11h07.21.193260 +0530,
147,0,148,s,3.122260300035123,None,148,0,147,502.6232542999787,,,,,,,,,,,,,,,,,,,,,,,,,,,,,,,,,,,,,,,,,,,,,,,,,,502.6072511000093,502.6232542999787,503.108477199974,503.11108010000316,503.1250074999989,503.1250074999989,503.1250074999989,506.2542254999862,Objects\149a.jpg,pre,s,3.122260300035123,None,,,,,,,,,00056,001,2026-01-19_11h07.07.462,MST_test,2024.2.0,59.744865510200796,2026-01-19 11h07.21.193260 +0530,
148,0,149,o,0.98942670004908,None,149,0,148,506.2697661999846,,,,,,,,,,,,,,,,,,,,,,,,,,,,,,,,,,,,,,,,,,,,,,,,,,506.2543290000176,506.2697661999846,506.75494229997275,506.7576655999874,506.77110929996707,506.77110929996707,506.77110929996707,507.7752061999636,Objects\245a.jpg,post,o,0.98942670004908,None,,,,,,,,,00056,001,2026-01-19_11h07.07.462,MST_test,2024.2.0,59.744865510200796,2026-01-19 11h07.21.193260 +0530,
149,0,150,n,2.282267000002321,None,150,0,149,507.7914792000083,,,,,,,,,,,,,,,,,,,,,,,,,,,,,,,,,,,,,,,,,,,,,,,,,,507.7752999999793,507.7914792000083,508.2764276000089,508.2789260999998,508.2932194999885,508.2932194999885,508.2932194999885,510.5852729000035,Objects\075a.jpg,post,n,2.282267000002321,None,,,,,,,,,00056,001,2026-01-19_11h07.07.462,MST_test,2024.2.0,59.744865510200796,2026-01-19 11h07.21.193260 +0530,
,,,,,,,,,,,,,,,,,,,,,,,,,,,,,,,,,,,,,,,,,,,,,,,,,,,,,,,,,,,,,,,,,,,,,,,,,510.5853444999666,510.6013201000169,510.6013201000169,512.5418378000031,space,1.9346287000225857,None,00056,001,2026-01-19_11h07.07.462,MST_test,2024.2.0,59.744865510200796,2026-01-19 11h07.21.193260 +0530,
