thisN,thisTrialN,thisRepN,key_resp_3.keys,key_resp_3.rt,key_resp_3.duration,trials.thisRepN,trials.thisTrialN,trials.thisN,thisRow.t,notes,intro_page.started,text.started,key_resp.started,intro_page.stopped,key_resp.keys,key_resp.rt,key_resp.duration,instructions.started,text_2.started,key_resp_2.started,instructions.stopped,key_resp_2.keys,key_resp_2.rt,key_resp_2.duration,demo1.started,image_1.started,image_2.started,text_7.started,key_resp_6.started,text_9.started,demo1.stopped,key_resp_6.keys,key_resp_6.rt,key_resp_6.duration,demo3.started,image_5.started,image_6.started,text_11.started,text_12.started,key_resp_8.started,demo3.stopped,key_resp_8.keys,key_resp_8.rt,key_resp_8.duration,demo_conclusion.started,text_13.started,key_resp_9.started,demo_conclusion.stopped,key_resp_9.keys,key_resp_9.rt,key_resp_9.duration,start_test.started,text_6.started,key_resp_5.started,start_test.stopped,key_resp_5.keys,key_resp_5.rt,key_resp_5.duration,ISI.started,text_4.started,text_4.stopped,ISI.stopped,routine_1.started,image.started,text_3.started,key_resp_3.started,routine_1.stopped,image_path,position_of_stimuli,trials.key_resp_3.keys,trials.key_resp_3.rt,trials.key_resp_3.duration,End_page.started,text_5.started,key_resp_4.started,End_page.stopped,key_resp_4.keys,key_resp_4.rt,key_resp_4.duration,participant,session,date,expName,psychopyVersion,frameRate,expStart,
,,,,,,,,,,,0.001778099999683036,0.003995400000349036,0.003995400000349036,14.564781699999912,space,14.544849400000203,None,,,,,,,,,,,,,,,,,,,,,,,,,,,,,,,,,,,,,,,,,,,,,,,,,,,,,,,,,,,,,,,00051,001,2026-01-18_17h15.14.453,MST_test,2024.2.0,60.00110402031664,2026-01-18 17h15.27.180850 +0530,
,,,,,,,,,,,,,,,,,,14.56486599999971,14.583972999999787,14.583972999999787,36.27743920000012,space,21.67684400000053,None,,,,,,,,,,,,,,,,,,,,,,,,,,,,,,,,,,,,,,,,,,,,,,,,,,,,,,,,00051,001,2026-01-18_17h15.14.453,MST_test,2024.2.0,60.00110402031664,2026-01-18 17h15.27.180850 +0530,
,,,,,,,,,,,,,,,,,,,,,,,,,36.27748350000002,36.31198620000032,36.31198620000032,36.31198620000032,36.31198620000032,36.31198620000032,50.96141960000023,space,14.637115500000618,None,,,,,,,,,,,,,,,,,,,,,,,,,,,,,,,,,,,,,,,,,,,,,,00051,001,2026-01-18_17h15.14.453,MST_test,2024.2.0,60.00110402031664,2026-01-18 17h15.27.180850 +0530,
,,,,,,,,,,,,,,,,,,,,,,,,,,,,,,,,,,,50.96151660000032,50.97645370000009,50.97645370000009,50.97645370000009,50.97645370000009,50.97645370000009,61.49508530000003,space,10.50824879999982,None,,,,,,,,,,,,,,,,,,,,,,,,,,,,,,,,,,,,00051,001,2026-01-18_17h15.14.453,MST_test,2024.2.0,60.00110402031664,2026-01-18 17h15.27.180850 +0530,
,,,,,,,,,,,,,,,,,,,,,,,,,,,,,,,,,,,,,,,,,,,,,61.49518199999966,61.509545400000206,61.509545400000206,155.01203799999985,space,93.49561830000039,None,,,,,,,,,,,,,,,,,,,,,,,,,,,,,00051,001,2026-01-18_17h15.14.453,MST_test,2024.2.0,60.00110402031664,2026-01-18 17h15.27.180850 +0530,
,,,,,,,,,,,,,,,,,,,,,,,,,,,,,,,,,,,,,,,,,,,,,,,,,,,,155.01223279999977,155.04074909999963,155.04074909999963,184.81129190000047,space,29.75631919999978,None,,,,,,,,,,,,,,,,,,,,,,00051,001,2026-01-18_17h15.14.453,MST_test,2024.2.0,60.00110402031664,2026-01-18 17h15.27.180850 +0530,
0,0,1,o,5.478721899999982,None,1,0,0,184.8258920999997,,,,,,,,,,,,,,,,,,,,,,,,,,,,,,,,,,,,,,,,,,,,,,,,,,184.81749130000026,184.8258920999997,185.32584740000038,185.31041069999992,185.3234411000003,185.32584740000038,185.32584740000038,185.32584740000038,190.81200470000022,Objects\373a.jpg,mid,o,5.478721899999982,None,,,,,,,,00051,001,2026-01-18_17h15.14.453,MST_test,2024.2.0,60.00110402031664,2026-01-18 17h15.27.180850 +0530,
1,0,2,o,2.239138100000673,None,2,0,1,190.82596740000008,,,,,,,,,,,,,,,,,,,,,,,,,,,,,,,,,,,,,,,,,,,,,,,,,,190.81233799999973,190.82596740000008,191.3264368,191.3105169999999,191.3217082000001,191.3264368,191.3264368,191.3264368,193.57783500000005,Objects\015a.jpg,pre,o,2.239138100000673,None,,,,,,,,00051,001,2026-01-18_17h15.14.453,MST_test,2024.2.0,60.00110402031664,2026-01-18 17h15.27.180850 +0530,
2,0,3,o,2.959554200000639,None,3,0,2,193.59324939999988,,,,,,,,,,,,,,,,,,,,,,,,,,,,,,,,,,,,,,,,,,,,,,,,,,193.57818099999986,193.59324939999988,194.1331398000002,194.07706690000032,194.1303767999998,194.1331398000002,194.1331398000002,194.1331398000002,197.09535570000025,Objects\347b.jpg,pre,o,2.959554200000639,None,,,,,,,,00051,001,2026-01-18_17h15.14.453,MST_test,2024.2.0,60.00110402031664,2026-01-18 17h15.27.180850 +0530,
3,0,4,s,6.563370199999554,None,4,0,3,197.1097689999997,,,,,,,,,,,,,,,,,,,,,,,,,,,,,,,,,,,,,,,,,,,,,,,,,,197.0957827000002,197.1097689999997,197.61017979999997,197.5938471999998,197.59965999999986,197.61017979999997,197.61017979999997,197.61017979999997,204.17794890000005,Objects\234b.jpg,post,s,6.563370199999554,None,,,,,,,,00051,001,2026-01-18_17h15.14.453,MST_test,2024.2.0,60.00110402031664,2026-01-18 17h15.27.180850 +0530,
4,0,5,o,6.527904800000215,None,5,0,4,204.19281969999975,,,,,,,,,,,,,,,,,,,,,,,,,,,,,,,,,,,,,,,,,,,,,,,,,,204.1783501,204.19281969999975,204.69284609999977,204.67720480000025,204.68303019999985,204.69284609999977,204.69284609999977,204.69284609999977,211.22831940000015,Objects\357a.jpg,mid,o,6.527904800000215,None,,,,,,,,00051,001,2026-01-18_17h15.14.453,MST_test,2024.2.0,60.00110402031664,2026-01-18 17h15.27.180850 +0530,
5,0,6,s,11.982136100000389,None,6,0,5,211.24280120000003,,,,,,,,,,,,,,,,,,,,,,,,,,,,,,,,,,,,,,,,,,,,,,,,,,211.22869660000015,211.24280120000003,211.74298009999984,211.72754050000003,211.73346860000038,211.74298009999984,211.74298009999984,211.74298009999984,223.72822610000003,Objects\024a.jpg,post,s,11.982136100000389,None,,,,,,,,00051,001,2026-01-18_17h15.14.453,MST_test,2024.2.0,60.00110402031664,2026-01-18 17h15.27.180850 +0530,
6,0,7,o,9.837613499999861,None,7,0,6,223.7426814999999,,,,,,,,,,,,,,,,,,,,,,,,,,,,,,,,,,,,,,,,,,,,,,,,,,223.72861809999995,223.7426814999999,224.28732349999973,224.22724649999964,224.28412690000005,224.28732349999973,224.28732349999973,224.28732349999973,234.12813670000014,Objects\088b.jpg,pre,o,9.837613499999861,None,,,,,,,,00051,001,2026-01-18_17h15.14.453,MST_test,2024.2.0,60.00110402031664,2026-01-18 17h15.27.180850 +0530,
7,0,8,o,4.65696300000036,None,8,0,7,234.1426676000001,,,,,,,,,,,,,,,,,,,,,,,,,,,,,,,,,,,,,,,,,,,,,,,,,,234.1285385000001,234.1426676000001,234.6690080999997,234.62714159999996,234.66654589999962,234.6690080999997,234.6690080999997,234.6690080999997,239.32828580000023,Objects\149b.jpg,pre,o,4.65696300000036,None,,,,,,,,00051,001,2026-01-18_17h15.14.453,MST_test,2024.2.0,60.00110402031664,2026-01-18 17h15.27.180850 +0530,
8,0,9,o,7.063076600000386,None,9,0,8,239.34273029999986,,,,,,,,,,,,,,,,,,,,,,,,,,,,,,,,,,,,,,,,,,,,,,,,,,239.32862120000027,239.34273029999986,239.86273840000013,239.82678360000045,239.86014989999967,239.86273840000013,239.86273840000013,239.86273840000013,246.9282830000002,Objects\309b.jpg,post,o,7.063076600000386,None,,,,,,,,00051,001,2026-01-18_17h15.14.453,MST_test,2024.2.0,60.00110402031664,2026-01-18 17h15.27.180850 +0530,
9,0,10,s,7.3867419999996855,None,10,0,9,246.94269390000045,,,,,,,,,,,,,,,,,,,,,,,,,,,,,,,,,,,,,,,,,,,,,,,,,,246.9287271000003,246.94269390000045,247.47384200000033,247.42728910000005,247.47106989999975,247.47384200000033,247.47384200000033,247.47384200000033,254.87799509999968,Objects\062b.jpg,post,s,7.3867419999996855,None,,,,,,,,00051,001,2026-01-18_17h15.14.453,MST_test,2024.2.0,60.00110402031664,2026-01-18 17h15.27.180850 +0530,
10,0,11,n,3.2467582000008406,None,11,0,10,254.89271670000016,,,,,,,,,,,,,,,,,,,,,,,,,,,,,,,,,,,,,,,,,,,,,,,,,,254.87835499999983,254.89271670000016,255.43921740000042,255.37725709999995,255.43697210000028,255.43921740000042,255.43921740000042,255.43921740000042,258.6945189999997,Objects\383b.jpg,post,n,3.2467582000008406,None,,,,,,,,00051,001,2026-01-18_17h15.14.453,MST_test,2024.2.0,60.00110402031664,2026-01-18 17h15.27.180850 +0530,
11,0,12,n,1.6601713000000018,None,12,0,11,258.7097382000002,,,,,,,,,,,,,,,,,,,,,,,,,,,,,,,,,,,,,,,,,,,,,,,,,,258.6947559,258.7097382000002,259.2097431000002,259.1938621999998,259.2025550999997,259.2097431000002,259.2097431000002,259.2097431000002,260.87820660000034,Foils\033a.jpg,none,n,1.6601713000000018,None,,,,,,,,00051,001,2026-01-18_17h15.14.453,MST_test,2024.2.0,60.00110402031664,2026-01-18 17h15.27.180850 +0530,
12,0,13,n,9.564251599999807,None,13,0,12,260.8928145,,,,,,,,,,,,,,,,,,,,,,,,,,,,,,,,,,,,,,,,,,,,,,,,,,260.8786474999997,260.8928145,261.3929307999997,261.3772792999998,261.38310230000025,261.3929307999997,261.3929307999997,261.3929307999997,270.9610120999996,Objects\193a.jpg,mid,n,9.564251599999807,None,,,,,,,,00051,001,2026-01-18_17h15.14.453,MST_test,2024.2.0,60.00110402031664,2026-01-18 17h15.27.180850 +0530,
13,0,14,o,8.345072000000073,None,14,0,13,270.97594519999984,,,,,,,,,,,,,,,,,,,,,,,,,,,,,,,,,,,,,,,,,,,,,,,,,,270.96125459999985,270.97594519999984,271.4766840000002,271.46036770000046,271.4659521000003,271.4766840000002,271.4766840000002,271.4766840000002,279.8278514000003,Objects\293a.jpg,pre,o,8.345072000000073,None,,,,,,,,00051,001,2026-01-18_17h15.14.453,MST_test,2024.2.0,60.00110402031664,2026-01-18 17h15.27.180850 +0530,
14,0,15,s,8.694414999999935,None,15,0,14,279.8426959999997,,,,,,,,,,,,,,,,,,,,,,,,,,,,,,,,,,,,,,,,,,,,,,,,,,279.8281095000002,279.8426959999997,280.34314150000046,280.3277613999999,280.3369947000001,280.34314150000046,280.34314150000046,280.34314150000046,289.0445556000004,Objects\057b.jpg,mid,s,8.694414999999935,None,,,,,,,,00051,001,2026-01-18_17h15.14.453,MST_test,2024.2.0,60.00110402031664,2026-01-18 17h15.27.180850 +0530,
15,0,16,o,2.389316900000267,None,16,0,15,289.06000829999994,,,,,,,,,,,,,,,,,,,,,,,,,,,,,,,,,,,,,,,,,,,,,,,,,,289.04481719999967,289.06000829999994,289.5595914000005,289.5441436000001,289.5498945999998,289.5595914000005,289.5595914000005,289.5595914000005,291.9617589999998,Objects\093a.jpg,pre,o,2.389316900000267,None,,,,,,,,00051,001,2026-01-18_17h15.14.453,MST_test,2024.2.0,60.00110402031664,2026-01-18 17h15.27.180850 +0530,
16,0,17,o,5.048962599999868,None,17,0,16,291.97605269999985,,,,,,,,,,,,,,,,,,,,,,,,,,,,,,,,,,,,,,,,,,,,,,,,,,291.9620557999997,291.97605269999985,292.4762915000001,292.4608263,292.4665950999997,292.4762915000001,292.4762915000001,292.4762915000001,297.52806580000015,Objects\251a.jpg,mid,o,5.048962599999868,None,,,,,,,,00051,001,2026-01-18_17h15.14.453,MST_test,2024.2.0,60.00110402031664,2026-01-18 17h15.27.180850 +0530,
17,0,18,o,5.193048399999498,None,18,0,17,297.54267470000013,,,,,,,,,,,,,,,,,,,,,,,,,,,,,,,,,,,,,,,,,,,,,,,,,,297.52852040000016,297.54267470000013,298.0432977999999,298.02737330000036,298.03557550000005,298.0432977999999,298.0432977999999,298.0432977999999,303.2446737,Objects\153a.jpg,mid,o,5.193048399999498,None,,,,,,,,00051,001,2026-01-18_17h15.14.453,MST_test,2024.2.0,60.00110402031664,2026-01-18 17h15.27.180850 +0530,
18,0,19,n,1.2133251999994172,None,19,0,18,303.2596346999999,,,,,,,,,,,,,,,,,,,,,,,,,,,,,,,,,,,,,,,,,,,,,,,,,,303.2450778000002,303.2596346999999,303.7599301,303.74414549999983,303.7502998,303.7599301,303.7599301,303.7599301,304.9778488000002,Foils\026a.jpg,none,n,1.2133251999994172,None,,,,,,,,00051,001,2026-01-18_17h15.14.453,MST_test,2024.2.0,60.00110402031664,2026-01-18 17h15.27.180850 +0530,
19,0,20,o,3.319097900000088,None,20,0,19,304.9927402000003,,,,,,,,,,,,,,,,,,,,,,,,,,,,,,,,,,,,,,,,,,,,,,,,,,304.9781559000003,304.9927402000003,305.4931137000003,305.4770054999999,305.4821211999997,305.4931137000003,305.4931137000003,305.4931137000003,308.8279308000001,Objects\202a.jpg,mid,o,3.319097900000088,None,,,,,,,,00051,001,2026-01-18_17h15.14.453,MST_test,2024.2.0,60.00110402031664,2026-01-18 17h15.27.180850 +0530,
20,0,21,o,10.231239800000367,None,21,0,20,308.84283030000006,,,,,,,,,,,,,,,,,,,,,,,,,,,,,,,,,,,,,,,,,,,,,,,,,,308.8283540000002,308.84283030000006,309.3658169,309.32745109999996,309.36275360000036,309.3658169,309.3658169,309.3658169,319.6111512999996,Objects\111b.jpg,mid,o,10.231239800000367,None,,,,,,,,00051,001,2026-01-18_17h15.14.453,MST_test,2024.2.0,60.00110402031664,2026-01-18 17h15.27.180850 +0530,
21,0,22,n,0.9020442999999432,None,22,0,21,319.6259516,,,,,,,,,,,,,,,,,,,,,,,,,,,,,,,,,,,,,,,,,,,,,,,,,,319.6115198999996,319.6259516,320.12629749999996,320.1104035999997,320.1190352000003,320.12629749999996,320.12629749999996,320.12629749999996,321.0446453000004,Foils\009a.jpg,none,n,0.9020442999999432,None,,,,,,,,00051,001,2026-01-18_17h15.14.453,MST_test,2024.2.0,60.00110402031664,2026-01-18 17h15.27.180850 +0530,
22,0,23,o,1.5896213000005446,None,23,0,22,321.05938440000045,,,,,,,,,,,,,,,,,,,,,,,,,,,,,,,,,,,,,,,,,,,,,,,,,,321.04496800000015,321.05938440000045,321.55970400000024,321.54373980000037,321.5515800000003,321.55970400000024,321.55970400000024,321.55970400000024,323.1615545000004,Objects\379a.jpg,mid,o,1.5896213000005446,None,,,,,,,,00051,001,2026-01-18_17h15.14.453,MST_test,2024.2.0,60.00110402031664,2026-01-18 17h15.27.180850 +0530,
23,0,24,n,1.2723902999996426,None,24,0,23,323.17605710000043,,,,,,,,,,,,,,,,,,,,,,,,,,,,,,,,,,,,,,,,,,,,,,,,,,323.1618903999997,323.17605710000043,323.6764272999999,323.6604691000002,323.6669400999999,323.6764272999999,323.6764272999999,323.6764272999999,324.9609521000002,Foils\f6.jpg,none,n,1.2723902999996426,None,,,,,,,,00051,001,2026-01-18_17h15.14.453,MST_test,2024.2.0,60.00110402031664,2026-01-18 17h15.27.180850 +0530,
24,0,25,n,0.9448073000003205,None,25,0,24,324.97608969999965,,,,,,,,,,,,,,,,,,,,,,,,,,,,,,,,,,,,,,,,,,,,,,,,,,324.96128260000023,324.97608969999965,325.4763745999999,325.46059369999966,325.4669388000002,325.4763745999999,325.4763745999999,325.4763745999999,326.42808700000023,Foils\f5.jpg,none,n,0.9448073000003205,None,,,,,,,,00051,001,2026-01-18_17h15.14.453,MST_test,2024.2.0,60.00110402031664,2026-01-18 17h15.27.180850 +0530,
25,0,26,s,7.382866099999774,None,26,0,25,326.4428521,,,,,,,,,,,,,,,,,,,,,,,,,,,,,,,,,,,,,,,,,,,,,,,,,,326.4283693999996,326.4428521,326.94310849999965,326.92720759999975,326.93358739999985,326.94310849999965,326.94310849999965,326.94310849999965,334.32915779999985,Objects\126b.jpg,pre,s,7.382866099999774,None,,,,,,,,00051,001,2026-01-18_17h15.14.453,MST_test,2024.2.0,60.00110402031664,2026-01-18 17h15.27.180850 +0530,
26,0,27,n,1.0660037000006923,None,27,0,26,334.3433765,,,,,,,,,,,,,,,,,,,,,,,,,,,,,,,,,,,,,,,,,,,,,,,,,,334.32950830000027,334.3433765,334.84293140000045,334.8270472000004,334.83248470000035,334.84293140000045,334.84293140000045,334.84293140000045,335.91118240000014,Foils\093b.jpg,none,n,1.0660037000006923,None,,,,,,,,00051,001,2026-01-18_17h15.14.453,MST_test,2024.2.0,60.00110402031664,2026-01-18 17h15.27.180850 +0530,
27,0,28,o,2.1630629999999655,None,28,0,27,335.92598869999983,,,,,,,,,,,,,,,,,,,,,,,,,,,,,,,,,,,,,,,,,,,,,,,,,,335.91147060000003,335.92598869999983,336.4265836000004,336.4105577,336.4161758,336.4265836000004,336.4265836000004,336.4265836000004,338.59462020000046,Objects\133a.jpg,pre,o,2.1630629999999655,None,,,,,,,,00051,001,2026-01-18_17h15.14.453,MST_test,2024.2.0,60.00110402031664,2026-01-18 17h15.27.180850 +0530,
28,0,29,o,2.9430645000002187,None,29,0,28,338.60942129999967,,,,,,,,,,,,,,,,,,,,,,,,,,,,,,,,,,,,,,,,,,,,,,,,,,338.59500149999985,338.60942129999967,339.1097166999998,339.09366950000003,339.0986286999996,339.1097166999998,339.1097166999998,339.1097166999998,342.0616393999999,Objects\089a.jpg,post,o,2.9430645000002187,None,,,,,,,,00051,001,2026-01-18_17h15.14.453,MST_test,2024.2.0,60.00110402031664,2026-01-18 17h15.27.180850 +0530,
29,0,30,o,2.315909599999941,None,30,0,29,342.0763489000001,,,,,,,,,,,,,,,,,,,,,,,,,,,,,,,,,,,,,,,,,,,,,,,,,,342.06197599999996,342.0763489000001,342.57673690000047,342.5609588999996,342.5664477999999,342.57673690000047,342.57673690000047,342.57673690000047,344.8950893000001,Objects\362a.jpg,post,o,2.315909599999941,None,,,,,,,,00051,001,2026-01-18_17h15.14.453,MST_test,2024.2.0,60.00110402031664,2026-01-18 17h15.27.180850 +0530,
30,0,31,n,1.954466400000456,None,31,0,30,344.9093413999999,,,,,,,,,,,,,,,,,,,,,,,,,,,,,,,,,,,,,,,,,,,,,,,,,,344.8955769000004,344.9093413999999,345.4099612,345.3940537999997,345.400893,345.4099612,345.4099612,345.4099612,347.37819730000047,Foils\002a.jpg,none,n,1.954466400000456,None,,,,,,,,00051,001,2026-01-18_17h15.14.453,MST_test,2024.2.0,60.00110402031664,2026-01-18 17h15.27.180850 +0530,
31,0,32,n,3.4944047999997565,None,32,0,31,347.39284210000005,,,,,,,,,,,,,,,,,,,,,,,,,,,,,,,,,,,,,,,,,,,,,,,,,,347.3785095000003,347.39284210000005,347.91856389999975,347.8768798000001,347.91588239999965,347.91856389999975,347.91856389999975,347.91856389999975,351.428089,Foils\049a.jpg,none,n,3.4944047999997565,None,,,,,,,,00051,001,2026-01-18_17h15.14.453,MST_test,2024.2.0,60.00110402031664,2026-01-18 17h15.27.180850 +0530,
32,0,33,n,2.1264068999998926,None,33,0,32,351.4427093000004,,,,,,,,,,,,,,,,,,,,,,,,,,,,,,,,,,,,,,,,,,,,,,,,,,351.4285144000005,351.4427093000004,351.9430222000001,351.9269838,351.9324924000002,351.9430222000001,351.9430222000001,351.9430222000001,354.07791840000027,Foils\073a.jpg,none,n,2.1264068999998926,None,,,,,,,,00051,001,2026-01-18_17h15.14.453,MST_test,2024.2.0,60.00110402031664,2026-01-18 17h15.27.180850 +0530,
33,0,34,n,2.73237699999936,None,34,0,33,354.0927112999998,,,,,,,,,,,,,,,,,,,,,,,,,,,,,,,,,,,,,,,,,,,,,,,,,,354.078168,354.0927112999998,354.59299290000035,354.5772128999997,354.5849446000002,354.59299290000035,354.59299290000035,354.59299290000035,357.32845559999987,Foils\042a.jpg,none,n,2.73237699999936,None,,,,,,,,00051,001,2026-01-18_17h15.14.453,MST_test,2024.2.0,60.00110402031664,2026-01-18 17h15.27.180850 +0530,
34,0,35,s,3.459869499999513,None,35,0,34,357.3427664999999,,,,,,,,,,,,,,,,,,,,,,,,,,,,,,,,,,,,,,,,,,,,,,,,,,357.3287086,357.3427664999999,357.88115629999993,357.82739930000025,357.87821859999985,357.88115629999993,357.88115629999993,357.88115629999993,361.34431680000034,Objects\002b.jpg,mid,s,3.459869499999513,None,,,,,,,,00051,001,2026-01-18_17h15.14.453,MST_test,2024.2.0,60.00110402031664,2026-01-18 17h15.27.180850 +0530,
35,0,36,s,6.912878299999647,None,36,0,35,361.35936390000006,,,,,,,,,,,,,,,,,,,,,,,,,,,,,,,,,,,,,,,,,,,,,,,,,,361.34472389999974,361.35936390000006,361.8598124,361.84380340000007,361.8520718,361.8598124,361.8598124,361.8598124,368.7781212,Objects\023a.jpg,pre,s,6.912878299999647,None,,,,,,,,00051,001,2026-01-18_17h15.14.453,MST_test,2024.2.0,60.00110402031664,2026-01-18 17h15.27.180850 +0530,
36,0,37,n,1.5392539000004035,None,37,0,36,368.79348560000017,,,,,,,,,,,,,,,,,,,,,,,,,,,,,,,,,,,,,,,,,,,,,,,,,,368.7784443999999,368.79348560000017,369.33800789999987,369.27730299999985,369.3351038999999,369.33800789999987,369.33800789999987,369.33800789999987,370.8945512999999,Objects\070b.jpg,post,n,1.5392539000004035,None,,,,,,,,00051,001,2026-01-18_17h15.14.453,MST_test,2024.2.0,60.00110402031664,2026-01-18 17h15.27.180850 +0530,
37,0,38,n,1.8111573999995016,None,38,0,37,370.9094769000003,,,,,,,,,,,,,,,,,,,,,,,,,,,,,,,,,,,,,,,,,,,,,,,,,,370.8947920999999,370.9094769000003,371.40970600000037,371.3938156000004,371.4022653000002,371.40970600000037,371.40970600000037,371.40970600000037,373.2280496000003,Foils\097a.jpg,none,n,1.8111573999995016,None,,,,,,,,00051,001,2026-01-18_17h15.14.453,MST_test,2024.2.0,60.00110402031664,2026-01-18 17h15.27.180850 +0530,
38,0,39,o,7.398469800000385,None,39,0,38,373.24280290000024,,,,,,,,,,,,,,,,,,,,,,,,,,,,,,,,,,,,,,,,,,,,,,,,,,373.2284458000004,373.24280290000024,373.74289490000046,373.7271399000001,373.73486010000033,373.74289490000046,373.74289490000046,373.74289490000046,381.14464279999993,Objects\084a.jpg,mid,o,7.398469800000385,None,,,,,,,,00051,001,2026-01-18_17h15.14.453,MST_test,2024.2.0,60.00110402031664,2026-01-18 17h15.27.180850 +0530,
39,0,40,n,1.6008267000006526,None,40,0,39,381.1593984000001,,,,,,,,,,,,,,,,,,,,,,,,,,,,,,,,,,,,,,,,,,,,,,,,,,381.14491499999986,381.1593984000001,381.65987479999967,381.6437284000003,381.6519298000003,381.65987479999967,381.65987479999967,381.65987479999967,383.27858600000036,Foils\034a.jpg,none,n,1.6008267000006526,None,,,,,,,,00051,001,2026-01-18_17h15.14.453,MST_test,2024.2.0,60.00110402031664,2026-01-18 17h15.27.180850 +0530,
40,0,41,o,4.803174499999841,None,41,0,40,383.29287600000043,,,,,,,,,,,,,,,,,,,,,,,,,,,,,,,,,,,,,,,,,,,,,,,,,,383.2788972999997,383.29287600000043,383.79322760000014,383.7772802999998,383.785312,383.79322760000014,383.79322760000014,383.79322760000014,388.6110706999998,Objects\239a.jpg,mid,o,4.803174499999841,None,,,,,,,,00051,001,2026-01-18_17h15.14.453,MST_test,2024.2.0,60.00110402031664,2026-01-18 17h15.27.180850 +0530,
41,0,42,s,5.870140899999569,None,42,0,41,388.62632659999963,,,,,,,,,,,,,,,,,,,,,,,,,,,,,,,,,,,,,,,,,,,,,,,,,,388.6114032000005,388.62632659999963,389.1263521000001,389.1106861999997,389.1174996,389.1263521000001,389.1263521000001,389.1263521000001,395.01116900000034,Objects\036b.jpg,post,s,5.870140899999569,None,,,,,,,,00051,001,2026-01-18_17h15.14.453,MST_test,2024.2.0,60.00110402031664,2026-01-18 17h15.27.180850 +0530,
42,0,43,o,1.774862100000064,None,43,0,42,395.0263998999999,,,,,,,,,,,,,,,,,,,,,,,,,,,,,,,,,,,,,,,,,,,,,,,,,,395.0114574999998,395.0263998999999,395.52636689999963,395.5103343999999,395.5179385000001,395.52636689999963,395.52636689999963,395.52636689999963,397.31103410000014,Objects\137a.jpg,pre,o,1.774862100000064,None,,,,,,,,00051,001,2026-01-18_17h15.14.453,MST_test,2024.2.0,60.00110402031664,2026-01-18 17h15.27.180850 +0530,
43,0,44,o,2.385201799999777,None,44,0,43,397.32622100000026,,,,,,,,,,,,,,,,,,,,,,,,,,,,,,,,,,,,,,,,,,,,,,,,,,397.31129190000047,397.32622100000026,397.8593077000005,397.8104893999998,397.8561391000003,397.8593077000005,397.8593077000005,397.8593077000005,400.25978159999977,Objects\256b.jpg,mid,o,2.385201799999777,None,,,,,,,,00051,001,2026-01-18_17h15.14.453,MST_test,2024.2.0,60.00110402031664,2026-01-18 17h15.27.180850 +0530,
44,0,45,o,5.708917199999632,None,45,0,44,400.27574110000023,,,,,,,,,,,,,,,,,,,,,,,,,,,,,,,,,,,,,,,,,,,,,,,,,,400.2599081999997,400.27574110000023,400.77629979999983,400.76047070000004,400.7721763999998,400.77629979999983,400.77629979999983,400.77629979999983,406.4948052,Objects\237a.jpg,pre,o,5.708917199999632,None,,,,,,,,00051,001,2026-01-18_17h15.14.453,MST_test,2024.2.0,60.00110402031664,2026-01-18 17h15.27.180850 +0530,
45,0,46,s,4.202818400000069,None,46,0,45,406.5093358000004,,,,,,,,,,,,,,,,,,,,,,,,,,,,,,,,,,,,,,,,,,,,,,,,,,406.4950770000005,406.5093358000004,407.0097691000001,406.9939488,407.00259350000033,407.0097691000001,407.0097691000001,407.0097691000001,411.2280651000001,Objects\010b.jpg,post,s,4.202818400000069,None,,,,,,,,00051,001,2026-01-18_17h15.14.453,MST_test,2024.2.0,60.00110402031664,2026-01-18 17h15.27.180850 +0530,
46,0,47,s,10.492620400000305,None,47,0,46,411.24261970000043,,,,,,,,,,,,,,,,,,,,,,,,,,,,,,,,,,,,,,,,,,,,,,,,,,411.2284335000004,411.24261970000043,411.7680341000005,411.7274038000005,411.76475649999975,411.7680341000005,411.7680341000005,411.7680341000005,422.2777154000005,Objects\158b.jpg,pre,s,10.492620400000305,None,,,,,,,,00051,001,2026-01-18_17h15.14.453,MST_test,2024.2.0,60.00110402031664,2026-01-18 17h15.27.180850 +0530,
47,0,48,n,1.1018309999999474,None,48,0,47,422.2927854999998,,,,,,,,,,,,,,,,,,,,,,,,,,,,,,,,,,,,,,,,,,,,,,,,,,422.2780904000001,422.2927854999998,422.83895070000017,422.776871,422.83583369999997,422.83895070000017,422.83895070000017,422.83895070000017,423.9448235,Objects\242b.jpg,mid,n,1.1018309999999474,None,,,,,,,,00051,001,2026-01-18_17h15.14.453,MST_test,2024.2.0,60.00110402031664,2026-01-18 17h15.27.180850 +0530,
48,0,49,o,1.9773178000004918,None,49,0,48,423.95952579999994,,,,,,,,,,,,,,,,,,,,,,,,,,,,,,,,,,,,,,,,,,,,,,,,,,423.94507260000046,423.95952579999994,424.4600223999996,424.4437662999999,424.4526375000005,424.4600223999996,424.4600223999996,424.4600223999996,426.44460570000047,Objects\086a.jpg,post,o,1.9773178000004918,None,,,,,,,,00051,001,2026-01-18_17h15.14.453,MST_test,2024.2.0,60.00110402031664,2026-01-18 17h15.27.180850 +0530,
49,0,50,s,6.332955699999729,None,50,0,49,426.4592693000004,,,,,,,,,,,,,,,,,,,,,,,,,,,,,,,,,,,,,,,,,,,,,,,,,,426.44485749999967,426.4592693000004,426.9595453000002,426.9441466999997,426.9497543999996,426.9595453000002,426.9595453000002,426.9595453000002,433.29494260000047,Objects\206b.jpg,mid,s,6.332955699999729,None,,,,,,,,00051,001,2026-01-18_17h15.14.453,MST_test,2024.2.0,60.00110402031664,2026-01-18 17h15.27.180850 +0530,
50,0,51,n,3.4512611000000106,None,51,0,50,433.30981359999987,,,,,,,,,,,,,,,,,,,,,,,,,,,,,,,,,,,,,,,,,,,,,,,,,,433.2952578000004,433.30981359999987,433.8099906999996,433.7937152000004,433.79976970000007,433.8099906999996,433.8099906999996,433.8099906999996,437.2788446000004,Foils\018a.jpg,none,n,3.4512611000000106,None,,,,,,,,00051,001,2026-01-18_17h15.14.453,MST_test,2024.2.0,60.00110402031664,2026-01-18 17h15.27.180850 +0530,
51,0,52,s,5.463134900000114,None,52,0,51,437.29295490000004,,,,,,,,,,,,,,,,,,,,,,,,,,,,,,,,,,,,,,,,,,,,,,,,,,437.2791268000001,437.29295490000004,437.8290237000001,437.77744129999974,437.8252674000005,437.8290237000001,437.8290237000001,437.8290237000001,443.2948515999997,Objects\330b.jpg,pre,s,5.463134900000114,None,,,,,,,,00051,001,2026-01-18_17h15.14.453,MST_test,2024.2.0,60.00110402031664,2026-01-18 17h15.27.180850 +0530,
52,0,53,o,1.9315649000000121,None,53,0,52,443.30977359999997,,,,,,,,,,,,,,,,,,,,,,,,,,,,,,,,,,,,,,,,,,,,,,,,,,443.29510279999977,443.30977359999997,443.8097555000004,443.79420910000044,443.80288740000015,443.8097555000004,443.8097555000004,443.8097555000004,445.7446981000003,Objects\183a.jpg,post,o,1.9315649000000121,None,,,,,,,,00051,001,2026-01-18_17h15.14.453,MST_test,2024.2.0,60.00110402031664,2026-01-18 17h15.27.180850 +0530,
53,0,54,o,2.0006418999992093,None,54,0,53,445.75937109999995,,,,,,,,,,,,,,,,,,,,,,,,,,,,,,,,,,,,,,,,,,,,,,,,,,445.7451024000002,445.75937109999995,446.2601811000004,446.24382200000036,446.25188660000003,446.2601811000004,446.2601811000004,446.2601811000004,448.2777765000001,Objects\344a.jpg,mid,o,2.0006418999992093,None,,,,,,,,00051,001,2026-01-18_17h15.14.453,MST_test,2024.2.0,60.00110402031664,2026-01-18 17h15.27.180850 +0530,
54,0,55,n,1.075272799999766,None,55,0,54,448.2930068000005,,,,,,,,,,,,,,,,,,,,,,,,,,,,,,,,,,,,,,,,,,,,,,,,,,448.27800130000014,448.2930068000005,448.79318090000015,448.7771971000002,448.78379980000045,448.79318090000015,448.79318090000015,448.79318090000015,449.8782884000002,Foils\017a.jpg,none,n,1.075272799999766,None,,,,,,,,00051,001,2026-01-18_17h15.14.453,MST_test,2024.2.0,60.00110402031664,2026-01-18 17h15.27.180850 +0530,
55,0,56,s,3.1373137000000497,None,56,0,55,449.89288680000027,,,,,,,,,,,,,,,,,,,,,,,,,,,,,,,,,,,,,,,,,,,,,,,,,,449.87859910000043,449.89288680000027,450.4429633,450.3775002000002,450.4403543999997,450.4429633,450.4429633,450.4429633,453.59508110000024,Objects\317b.jpg,pre,s,3.1373137000000497,None,,,,,,,,00051,001,2026-01-18_17h15.14.453,MST_test,2024.2.0,60.00110402031664,2026-01-18 17h15.27.180850 +0530,
56,0,57,o,3.918461899999784,None,57,0,56,453.6093699000003,,,,,,,,,,,,,,,,,,,,,,,,,,,,,,,,,,,,,,,,,,,,,,,,,,453.5953308999997,453.6093699000003,454.1096238,454.09431330000007,454.10206670000025,454.1096238,454.1096238,454.1096238,458.04494030000023,Objects\143a.jpg,post,o,3.918461899999784,None,,,,,,,,00051,001,2026-01-18_17h15.14.453,MST_test,2024.2.0,60.00110402031664,2026-01-18 17h15.27.180850 +0530,
57,0,58,o,3.189585999999508,None,58,0,57,458.0593724999999,,,,,,,,,,,,,,,,,,,,,,,,,,,,,,,,,,,,,,,,,,,,,,,,,,458.04527599999983,458.0593724999999,458.5597982999998,458.54369700000007,458.54979280000043,458.5597982999998,458.5597982999998,458.5597982999998,461.7612973000005,Objects\118a.jpg,post,o,3.189585999999508,None,,,,,,,,00051,001,2026-01-18_17h15.14.453,MST_test,2024.2.0,60.00110402031664,2026-01-18 17h15.27.180850 +0530,
58,0,59,s,3.717535400000088,None,59,0,58,461.7766532000005,,,,,,,,,,,,,,,,,,,,,,,,,,,,,,,,,,,,,,,,,,,,,,,,,,461.7616187000003,461.7766532000005,462.3037068000003,462.26045840000006,462.3011494000002,462.3037068000003,462.3037068000003,462.3037068000003,466.0282195,Objects\168b.jpg,mid,s,3.717535400000088,None,,,,,,,,00051,001,2026-01-18_17h15.14.453,MST_test,2024.2.0,60.00110402031664,2026-01-18 17h15.27.180850 +0530,
59,0,60,o,3.510872599999857,None,60,0,59,466.04266780000034,,,,,,,,,,,,,,,,,,,,,,,,,,,,,,,,,,,,,,,,,,,,,,,,,,466.02862189999996,466.04266780000034,466.5429716999997,466.5271697999997,466.5346313,466.5429716999997,466.5429716999997,466.5429716999997,470.0612699000003,Objects\163a.jpg,post,o,3.510872599999857,None,,,,,,,,00051,001,2026-01-18_17h15.14.453,MST_test,2024.2.0,60.00110402031664,2026-01-18 17h15.27.180850 +0530,
60,0,61,o,1.7089120999999068,None,61,0,60,470.07614620000004,,,,,,,,,,,,,,,,,,,,,,,,,,,,,,,,,,,,,,,,,,,,,,,,,,470.06166570000005,470.07614620000004,470.5764035000002,470.5604556999997,470.56573430000026,470.5764035000002,470.5764035000002,470.5764035000002,472.2947981999996,Objects\077a.jpg,post,o,1.7089120999999068,None,,,,,,,,00051,001,2026-01-18_17h15.14.453,MST_test,2024.2.0,60.00110402031664,2026-01-18 17h15.27.180850 +0530,
61,0,62,s,4.3600218000001405,None,62,0,61,472.3095235999999,,,,,,,,,,,,,,,,,,,,,,,,,,,,,,,,,,,,,,,,,,,,,,,,,,472.2950487999997,472.3095235999999,472.8450896000004,472.79401289999987,472.8407201,472.8450896000004,472.8450896000004,472.8450896000004,477.211233,Objects\258b.jpg,post,s,4.3600218000001405,None,,,,,,,,00051,001,2026-01-18_17h15.14.453,MST_test,2024.2.0,60.00110402031664,2026-01-18 17h15.27.180850 +0530,
62,0,63,n,0.9174724000004062,None,63,0,62,477.22621530000015,,,,,,,,,,,,,,,,,,,,,,,,,,,,,,,,,,,,,,,,,,,,,,,,,,477.2116552999996,477.22621530000015,477.7265425000005,477.7103103999998,477.7181185999998,477.7265425000005,477.7265425000005,477.7265425000005,478.6613465999999,Foils\058a.jpg,none,n,0.9174724000004062,None,,,,,,,,00051,001,2026-01-18_17h15.14.453,MST_test,2024.2.0,60.00110402031664,2026-01-18 17h15.27.180850 +0530,
63,0,64,n,1.3969186999993326,None,64,0,63,478.67597430000023,,,,,,,,,,,,,,,,,,,,,,,,,,,,,,,,,,,,,,,,,,,,,,,,,,478.6616147000004,478.67597430000023,479.1763535,479.1605714999996,479.16879919999974,479.1763535,479.1763535,479.1763535,480.57813669999996,Foils\101b.jpg,none,n,1.3969186999993326,None,,,,,,,,00051,001,2026-01-18_17h15.14.453,MST_test,2024.2.0,60.00110402031664,2026-01-18 17h15.27.180850 +0530,
64,0,65,s,2.903681900000265,None,65,0,64,480.59263999999985,,,,,,,,,,,,,,,,,,,,,,,,,,,,,,,,,,,,,,,,,,,,,,,,,,480.5785348999998,480.59263999999985,481.0932254999998,481.0773570000001,481.08283140000003,481.0932254999998,481.0932254999998,481.0932254999998,484.0108762,Objects\078a.jpg,post,s,2.903681900000265,None,,,,,,,,00051,001,2026-01-18_17h15.14.453,MST_test,2024.2.0,60.00110402031664,2026-01-18 17h15.27.180850 +0530,
65,0,66,o,6.72539340000003,None,66,0,65,484.0260244000001,,,,,,,,,,,,,,,,,,,,,,,,,,,,,,,,,,,,,,,,,,,,,,,,,,484.0112635000005,484.0260244000001,484.52680580000015,484.5104320999999,484.5179885999996,484.52680580000015,484.52680580000015,484.52680580000015,491.2613787999999,Objects\300a.jpg,mid,o,6.72539340000003,None,,,,,,,,00051,001,2026-01-18_17h15.14.453,MST_test,2024.2.0,60.00110402031664,2026-01-18 17h15.27.180850 +0530,
66,0,67,s,4.0356651000001875,None,67,0,66,491.2763195999996,,,,,,,,,,,,,,,,,,,,,,,,,,,,,,,,,,,,,,,,,,,,,,,,,,491.26182419999986,491.2763195999996,491.7765741000003,491.7603994000001,491.76797629999965,491.7765741000003,491.7765741000003,491.7765741000003,495.8280642,Objects\219b.jpg,mid,s,4.0356651000001875,None,,,,,,,,00051,001,2026-01-18_17h15.14.453,MST_test,2024.2.0,60.00110402031664,2026-01-18 17h15.27.180850 +0530,
67,0,68,n,3.365615599999728,None,68,0,67,495.84277550000024,,,,,,,,,,,,,,,,,,,,,,,,,,,,,,,,,,,,,,,,,,,,,,,,,,495.82838360000005,495.84277550000024,496.3429130000004,496.32702679999966,496.33496079999986,496.3429130000004,496.3429130000004,496.3429130000004,499.7105309999997,Objects\136a.jpg,mid,n,3.365615599999728,None,,,,,,,,00051,001,2026-01-18_17h15.14.453,MST_test,2024.2.0,60.00110402031664,2026-01-18 17h15.27.180850 +0530,
68,0,69,s,2.61775039999975,None,69,0,68,499.72597870000027,,,,,,,,,,,,,,,,,,,,,,,,,,,,,,,,,,,,,,,,,,,,,,,,,,499.7108496000001,499.72597870000027,500.2264482999999,500.2102012000005,500.2166527999998,500.2264482999999,500.2264482999999,500.2264482999999,502.86122109999997,Objects\306a.jpg,post,s,2.61775039999975,None,,,,,,,,00051,001,2026-01-18_17h15.14.453,MST_test,2024.2.0,60.00110402031664,2026-01-18 17h15.27.180850 +0530,
69,0,70,s,3.2080956999998307,None,70,0,69,502.8760564000004,,,,,,,,,,,,,,,,,,,,,,,,,,,,,,,,,,,,,,,,,,,,,,,,,,502.8616337000003,502.8760564000004,503.3890672999996,503.36035449999963,503.38589729999967,503.3890672999996,503.3890672999996,503.3890672999996,506.6115193000005,Objects\038b.jpg,mid,s,3.2080956999998307,None,,,,,,,,00051,001,2026-01-18_17h15.14.453,MST_test,2024.2.0,60.00110402031664,2026-01-18 17h15.27.180850 +0530,
70,0,71,o,2.614744999999857,None,71,0,70,506.6261059999997,,,,,,,,,,,,,,,,,,,,,,,,,,,,,,,,,,,,,,,,,,,,,,,,,,506.61178459999974,506.6261059999997,507.1262552999997,507.1103843000001,507.1184556999997,507.1262552999997,507.1262552999997,507.1262552999997,509.7446018999999,Objects\008a.jpg,mid,o,2.614744999999857,None,,,,,,,,00051,001,2026-01-18_17h15.14.453,MST_test,2024.2.0,60.00110402031664,2026-01-18 17h15.27.180850 +0530,
71,0,72,s,1.8170202000001154,None,72,0,71,509.7592845999998,,,,,,,,,,,,,,,,,,,,,,,,,,,,,,,,,,,,,,,,,,,,,,,,,,509.7451000000001,509.7592845999998,510.2596774000003,510.2437775999997,510.25163040000007,510.2596774000003,510.2596774000003,510.2596774000003,512.0789298999998,Objects\017a.jpg,mid,s,1.8170202000001154,None,,,,,,,,00051,001,2026-01-18_17h15.14.453,MST_test,2024.2.0,60.00110402031664,2026-01-18 17h15.27.180850 +0530,
72,0,73,s,1.5956388000004154,None,73,0,72,512.0927964000002,,,,,,,,,,,,,,,,,,,,,,,,,,,,,,,,,,,,,,,,,,,,,,,,,,512.0793641999999,512.0927964000002,512.5929224000001,512.5775365999998,512.5849434000002,512.5929224000001,512.5929224000001,512.5929224000001,514.1946402000003,Objects\225a.jpg,pre,s,1.5956388000004154,None,,,,,,,,00051,001,2026-01-18_17h15.14.453,MST_test,2024.2.0,60.00110402031664,2026-01-18 17h15.27.180850 +0530,
73,0,74,o,2.0344324000006964,None,74,0,73,514.2092721999998,,,,,,,,,,,,,,,,,,,,,,,,,,,,,,,,,,,,,,,,,,,,,,,,,,514.1949968999998,514.2092721999998,514.7622403000005,514.6937980000002,514.7593570999998,514.7622403000005,514.7622403000005,514.7622403000005,516.8118936999999,Objects\275b.jpg,post,o,2.0344324000006964,None,,,,,,,,00051,001,2026-01-18_17h15.14.453,MST_test,2024.2.0,60.00110402031664,2026-01-18 17h15.27.180850 +0530,
74,0,75,s,1.1397358000003806,None,75,0,74,516.8260941999997,,,,,,,,,,,,,,,,,,,,,,,,,,,,,,,,,,,,,,,,,,,,,,,,,,516.8123087000004,516.8260941999997,517.3450356000003,517.3106545999999,517.3425823999996,517.3450356000003,517.3450356000003,517.3450356000003,518.4945236000003,Objects\212b.jpg,mid,s,1.1397358000003806,None,,,,,,,,00051,001,2026-01-18_17h15.14.453,MST_test,2024.2.0,60.00110402031664,2026-01-18 17h15.27.180850 +0530,
75,0,76,s,2.3632834000000003,None,76,0,75,518.5095500999996,,,,,,,,,,,,,,,,,,,,,,,,,,,,,,,,,,,,,,,,,,,,,,,,,,518.4949293,518.5095500999996,519.0098497999998,518.9944631999997,519.0016704,519.0098497999998,519.0098497999998,519.0098497999998,521.3779132,Objects\292a.jpg,mid,s,2.3632834000000003,None,,,,,,,,00051,001,2026-01-18_17h15.14.453,MST_test,2024.2.0,60.00110402031664,2026-01-18 17h15.27.180850 +0530,
76,0,77,s,2.6957061000002795,None,77,0,76,521.3926653999997,,,,,,,,,,,,,,,,,,,,,,,,,,,,,,,,,,,,,,,,,,,,,,,,,,521.3783105000002,521.3926653999997,521.8931332000002,521.8777734000005,521.8839756999996,521.8931332000002,521.8931332000002,521.8931332000002,524.5946885000003,Objects\195a.jpg,mid,s,2.6957061000002795,None,,,,,,,,00051,001,2026-01-18_17h15.14.453,MST_test,2024.2.0,60.00110402031664,2026-01-18 17h15.27.180850 +0530,
77,0,78,o,1.3439655000001949,None,78,0,77,524.6095686999997,,,,,,,,,,,,,,,,,,,,,,,,,,,,,,,,,,,,,,,,,,,,,,,,,,524.5950248999998,524.6095686999997,525.1096567000004,525.0943135999996,525.1026554,525.1096567000004,525.1096567000004,525.1096567000004,526.4610106999999,Objects\264a.jpg,post,o,1.3439655000001949,None,,,,,,,,00051,001,2026-01-18_17h15.14.453,MST_test,2024.2.0,60.00110402031664,2026-01-18 17h15.27.180850 +0530,
78,0,79,s,2.5435910000005606,None,79,0,78,526.4760788000003,,,,,,,,,,,,,,,,,,,,,,,,,,,,,,,,,,,,,,,,,,,,,,,,,,526.4612654000002,526.4760788000003,527.0050861999998,526.9607440999998,527.0015036000004,527.0050861999998,527.0050861999998,527.0050861999998,529.5613940000003,Objects\297b.jpg,post,s,2.5435910000005606,None,,,,,,,,00051,001,2026-01-18_17h15.14.453,MST_test,2024.2.0,60.00110402031664,2026-01-18 17h15.27.180850 +0530,
79,0,80,o,2.016403600000558,None,80,0,79,529.5763993999999,,,,,,,,,,,,,,,,,,,,,,,,,,,,,,,,,,,,,,,,,,,,,,,,,,529.5617992999996,529.5763993999999,530.0768318999999,530.0603590000001,530.0659988999996,530.0768318999999,530.0768318999999,530.0768318999999,532.0954610999997,Objects\226a.jpg,post,o,2.016403600000558,None,,,,,,,,00051,001,2026-01-18_17h15.14.453,MST_test,2024.2.0,60.00110402031664,2026-01-18 17h15.27.180850 +0530,
80,0,81,n,2.583852499999921,None,81,0,80,532.1092534999998,,,,,,,,,,,,,,,,,,,,,,,,,,,,,,,,,,,,,,,,,,,,,,,,,,532.0957654000003,532.1092534999998,532.6843472,532.5939303000005,532.6813462,532.6843472,532.6843472,532.6843472,535.2780061000003,Objects\110b.jpg,mid,n,2.583852499999921,None,,,,,,,,00051,001,2026-01-18_17h15.14.453,MST_test,2024.2.0,60.00110402031664,2026-01-18 17h15.27.180850 +0530,
81,0,82,n,0.9723512999999002,None,82,0,81,535.2926287,,,,,,,,,,,,,,,,,,,,,,,,,,,,,,,,,,,,,,,,,,,,,,,,,,535.2783061,535.2926287,535.7928517999999,535.7772010999997,535.7834044000001,535.7928517999999,535.7928517999999,535.7928517999999,536.7781642,Foils\081a.jpg,none,n,0.9723512999999002,None,,,,,,,,00051,001,2026-01-18_17h15.14.453,MST_test,2024.2.0,60.00110402031664,2026-01-18 17h15.27.180850 +0530,
82,0,83,s,3.151825099999769,None,83,0,82,536.7926339000005,,,,,,,,,,,,,,,,,,,,,,,,,,,,,,,,,,,,,,,,,,,,,,,,,,536.7785627000003,536.7926339000005,537.3333610999998,537.2771333000001,537.3305743999999,537.3333610999998,537.3333610999998,537.3333610999998,540.4945889,Objects\173b.jpg,post,s,3.151825099999769,None,,,,,,,,00051,001,2026-01-18_17h15.14.453,MST_test,2024.2.0,60.00110402031664,2026-01-18 17h15.27.180850 +0530,
83,0,84,s,1.7929512000000614,None,84,0,83,540.5093212000002,,,,,,,,,,,,,,,,,,,,,,,,,,,,,,,,,,,,,,,,,,,,,,,,,,540.4948512999999,540.5093212000002,541.0358051000003,540.9940425000004,541.0330928000003,541.0358051000003,541.0358051000003,541.0358051000003,542.8444144000005,Objects\101b.jpg,post,s,1.7929512000000614,None,,,,,,,,00051,001,2026-01-18_17h15.14.453,MST_test,2024.2.0,60.00110402031664,2026-01-18 17h15.27.180850 +0530,
84,0,85,s,2.404905499999586,None,85,0,84,542.8594894999997,,,,,,,,,,,,,,,,,,,,,,,,,,,,,,,,,,,,,,,,,,,,,,,,,,542.8447095000001,542.8594894999997,543.3598764999997,543.3436291999997,543.3488907999999,543.3598764999997,543.3598764999997,543.3598764999997,545.7780352,Objects\231a.jpg,pre,s,2.404905499999586,None,,,,,,,,00051,001,2026-01-18_17h15.14.453,MST_test,2024.2.0,60.00110402031664,2026-01-18 17h15.27.180850 +0530,
85,0,86,s,1.4092567000006966,None,86,0,85,545.7926890999997,,,,,,,,,,,,,,,,,,,,,,,,,,,,,,,,,,,,,,,,,,,,,,,,,,545.7783431999997,545.7926890999997,546.3233585999997,546.2770419999997,546.3198470999996,546.3233585999997,546.3233585999997,546.3233585999997,547.7444735999998,Objects\350b.jpg,pre,s,1.4092567000006966,None,,,,,,,,00051,001,2026-01-18_17h15.14.453,MST_test,2024.2.0,60.00110402031664,2026-01-18 17h15.27.180850 +0530,
86,0,87,s,2.0102711999998064,None,87,0,86,547.7592551999996,,,,,,,,,,,,,,,,,,,,,,,,,,,,,,,,,,,,,,,,,,,,,,,,,,547.7447551000005,547.7592551999996,548.3148798000002,548.2436470000002,548.3116593000004,548.3148798000002,548.3148798000002,548.3148798000002,550.3282726999996,Objects\303b.jpg,pre,s,2.0102711999998064,None,,,,,,,,00051,001,2026-01-18_17h15.14.453,MST_test,2024.2.0,60.00110402031664,2026-01-18 17h15.27.180850 +0530,
87,0,88,s,3.514516100000037,None,88,0,87,550.3425821000001,,,,,,,,,,,,,,,,,,,,,,,,,,,,,,,,,,,,,,,,,,,,,,,,,,550.3285040000001,550.3425821000001,550.8431449,550.8269847000001,550.8351714999999,550.8431449,550.8431449,550.8431449,554.3615384000004,Objects\001a.jpg,pre,s,3.514516100000037,None,,,,,,,,00051,001,2026-01-18_17h15.14.453,MST_test,2024.2.0,60.00110402031664,2026-01-18 17h15.27.180850 +0530,
88,0,89,n,1.0645573000001605,None,89,0,88,554.3763891999997,,,,,,,,,,,,,,,,,,,,,,,,,,,,,,,,,,,,,,,,,,,,,,,,,,554.3619009000004,554.3763891999997,554.8763196999998,554.8605617000003,554.8675863999997,554.8763196999998,554.8763196999998,554.8763196999998,555.9445580000001,Foils\020b.jpg,none,n,1.0645573000001605,None,,,,,,,,00051,001,2026-01-18_17h15.14.453,MST_test,2024.2.0,60.00110402031664,2026-01-18 17h15.27.180850 +0530,
89,0,90,n,2.609268599999268,None,90,0,89,555.9593143000002,,,,,,,,,,,,,,,,,,,,,,,,,,,,,,,,,,,,,,,,,,,,,,,,,,555.9448054000004,555.9593143000002,556.4596532000005,556.4437773999998,556.4515437999999,556.4596532000005,556.4596532000005,556.4596532000005,559.0780286999998,Foils\050a.jpg,none,n,2.609268599999268,None,,,,,,,,00051,001,2026-01-18_17h15.14.453,MST_test,2024.2.0,60.00110402031664,2026-01-18 17h15.27.180850 +0530,
90,0,91,s,1.409095800000614,None,91,0,90,559.0927413999998,,,,,,,,,,,,,,,,,,,,,,,,,,,,,,,,,,,,,,,,,,,,,,,,,,559.0783173,559.0927413999998,559.6196157000004,559.5772060999998,559.6164153999998,559.6196157000004,559.6196157000004,559.6196157000004,561.0449035000001,Objects\166b.jpg,pre,s,1.409095800000614,None,,,,,,,,00051,001,2026-01-18_17h15.14.453,MST_test,2024.2.0,60.00110402031664,2026-01-18 17h15.27.180850 +0530,
91,0,92,n,2.2364187000002858,None,92,0,91,561.0594203,,,,,,,,,,,,,,,,,,,,,,,,,,,,,,,,,,,,,,,,,,,,,,,,,,561.0452271000004,561.0594203,561.5596610000002,561.5441296999998,561.5498070000003,561.5596610000002,561.5596610000002,561.5596610000002,563.8113214000005,Foils\066a.jpg,none,n,2.2364187000002858,None,,,,,,,,00051,001,2026-01-18_17h15.14.453,MST_test,2024.2.0,60.00110402031664,2026-01-18 17h15.27.180850 +0530,
92,0,93,o,1.8058797000003324,None,93,0,92,563.8261588000005,,,,,,,,,,,,,,,,,,,,,,,,,,,,,,,,,,,,,,,,,,,,,,,,,,563.8117218999996,563.8261588000005,564.3266181999998,564.3106209999996,564.3188134000002,564.3266181999998,564.3266181999998,564.3266181999998,566.1446948000003,Objects\220a.jpg,mid,o,1.8058797000003324,None,,,,,,,,00051,001,2026-01-18_17h15.14.453,MST_test,2024.2.0,60.00110402031664,2026-01-18 17h15.27.180850 +0530,
93,0,94,o,1.8240691999999399,None,94,0,93,566.1592662000003,,,,,,,,,,,,,,,,,,,,,,,,,,,,,,,,,,,,,,,,,,,,,,,,,,566.1451194000001,566.1592662000003,566.6599377000002,566.6438949000003,566.6491029999997,566.6599377000002,566.6599377000002,566.6599377000002,568.4949182,Objects\056a.jpg,post,o,1.8240691999999399,None,,,,,,,,00051,001,2026-01-18_17h15.14.453,MST_test,2024.2.0,60.00110402031664,2026-01-18 17h15.27.180850 +0530,
94,0,95,s,6.498724199999742,None,95,0,94,568.5094205000005,,,,,,,,,,,,,,,,,,,,,,,,,,,,,,,,,,,,,,,,,,,,,,,,,,568.4953027000001,568.5094205000005,569.0097489999998,568.9938320000001,569.001698,569.0097489999998,569.0097489999998,569.0097489999998,575.5113374000002,Objects\060a.jpg,mid,s,6.498724199999742,None,,,,,,,,00051,001,2026-01-18_17h15.14.453,MST_test,2024.2.0,60.00110402031664,2026-01-18 17h15.27.180850 +0530,
95,0,96,o,1.4875396999996156,None,96,0,95,575.5259578000005,,,,,,,,,,,,,,,,,,,,,,,,,,,,,,,,,,,,,,,,,,,,,,,,,,575.5115648999999,575.5259578000005,576.0376754999998,576.0102115,576.0352714999999,576.0376754999998,576.0376754999998,576.0376754999998,577.5282028000001,Objects\028b.jpg,mid,o,1.4875396999996156,None,,,,,,,,00051,001,2026-01-18_17h15.14.453,MST_test,2024.2.0,60.00110402031664,2026-01-18 17h15.27.180850 +0530,
96,0,97,s,1.6754332000000431,None,97,0,96,577.5427949000004,,,,,,,,,,,,,,,,,,,,,,,,,,,,,,,,,,,,,,,,,,,,,,,,,,577.5284779000003,577.5427949000004,578.0735346000001,578.0271063999999,578.0702891999999,578.0735346000001,578.0735346000001,578.0735346000001,579.7620175000002,Objects\280b.jpg,mid,s,1.6754332000000431,None,,,,,,,,00051,001,2026-01-18_17h15.14.453,MST_test,2024.2.0,60.00110402031664,2026-01-18 17h15.27.180850 +0530,
97,0,98,s,2.110751199999868,None,98,0,97,579.7758670000003,,,,,,,,,,,,,,,,,,,,,,,,,,,,,,,,,,,,,,,,,,,,,,,,,,579.7624329999999,579.7758670000003,580.2939967000002,580.2607053000002,580.2899564999998,580.2939967000002,580.2939967000002,580.2939967000002,582.4119262000004,Objects\199b.jpg,post,s,2.110751199999868,None,,,,,,,,00051,001,2026-01-18_17h15.14.453,MST_test,2024.2.0,60.00110402031664,2026-01-18 17h15.27.180850 +0530,
98,0,99,s,3.540854300000319,None,99,0,98,582.4261496999998,,,,,,,,,,,,,,,,,,,,,,,,,,,,,,,,,,,,,,,,,,,,,,,,,,582.4122851000002,582.4261496999998,582.9516850999998,582.9104766999999,582.9488204999998,582.9516850999998,582.9516850999998,582.9516850999998,586.4944653000002,Objects\335b.jpg,mid,s,3.540854300000319,None,,,,,,,,00051,001,2026-01-18_17h15.14.453,MST_test,2024.2.0,60.00110402031664,2026-01-18 17h15.27.180850 +0530,
99,0,100,s,2.1729906999999002,None,100,0,99,586.5100805000002,,,,,,,,,,,,,,,,,,,,,,,,,,,,,,,,,,,,,,,,,,,,,,,,,,586.4947170000005,586.5100805000002,587.0391393999998,586.9936034000002,587.0363729999999,587.0391393999998,587.0391393999998,587.0391393999998,589.2279385000002,Objects\244b.jpg,post,s,2.1729906999999002,None,,,,,,,,00051,001,2026-01-18_17h15.14.453,MST_test,2024.2.0,60.00110402031664,2026-01-18 17h15.27.180850 +0530,
100,0,101,s,1.8933878000007098,None,101,0,100,589.2426231,,,,,,,,,,,,,,,,,,,,,,,,,,,,,,,,,,,,,,,,,,,,,,,,,,589.2282703000001,589.2426231,589.7438081999999,589.7274091999998,589.7335278999999,589.7438081999999,589.7438081999999,589.7438081999999,591.6452164000002,Objects\245a.jpg,post,s,1.8933878000007098,None,,,,,,,,00051,001,2026-01-18_17h15.14.453,MST_test,2024.2.0,60.00110402031664,2026-01-18 17h15.27.180850 +0530,
101,0,102,o,2.453226800000266,None,102,0,101,591.6599873000005,,,,,,,,,,,,,,,,,,,,,,,,,,,,,,,,,,,,,,,,,,,,,,,,,,591.6455936000002,591.6599873000005,592.1596871000002,592.1454480000002,592.1514391999999,592.1596871000002,592.1596871000002,592.1596871000002,594.6279113999999,Objects\019b.jpg,mid,o,2.453226800000266,None,,,,,,,,00051,001,2026-01-18_17h15.14.453,MST_test,2024.2.0,60.00110402031664,2026-01-18 17h15.27.180850 +0530,
102,0,103,o,1.0694923999999446,None,103,0,102,594.6435266999997,,,,,,,,,,,,,,,,,,,,,,,,,,,,,,,,,,,,,,,,,,,,,,,,,,594.6282351,594.6435266999997,595.1429547999996,595.1271472999997,595.1352925000001,595.1429547999996,595.1429547999996,595.1429547999996,596.2279992000003,Objects\117a.jpg,post,o,1.0694923999999446,None,,,,,,,,00051,001,2026-01-18_17h15.14.453,MST_test,2024.2.0,60.00110402031664,2026-01-18 17h15.27.180850 +0530,
103,0,104,s,1.4055398000000423,None,104,0,103,596.2427653000004,,,,,,,,,,,,,,,,,,,,,,,,,,,,,,,,,,,,,,,,,,,,,,,,,,596.2282759999998,596.2427653000004,596.7434887,596.7272775000001,596.7359606999999,596.7434887,596.7434887,596.7434887,598.1613387999996,Objects\266b.jpg,mid,s,1.4055398000000423,None,,,,,,,,00051,001,2026-01-18_17h15.14.453,MST_test,2024.2.0,60.00110402031664,2026-01-18 17h15.27.180850 +0530,
104,0,105,s,2.17685259999962,None,105,0,104,598.1761428,,,,,,,,,,,,,,,,,,,,,,,,,,,,,,,,,,,,,,,,,,,,,,,,,,598.1616532999997,598.1761428,598.7077854999998,598.6606414999997,598.7044415,598.7077854999998,598.7077854999998,598.7077854999998,600.8948068,Objects\009b.jpg,mid,s,2.17685259999962,None,,,,,,,,00051,001,2026-01-18_17h15.14.453,MST_test,2024.2.0,60.00110402031664,2026-01-18 17h15.27.180850 +0530,
105,0,106,s,3.085320299999694,None,106,0,105,600.9093978000001,,,,,,,,,,,,,,,,,,,,,,,,,,,,,,,,,,,,,,,,,,,,,,,,,,600.8950789,600.9093978000001,601.4401303000004,601.3937617000001,601.4368796999997,601.4401303000004,601.4401303000004,601.4401303000004,604.5282146,Objects\185b.jpg,pre,s,3.085320299999694,None,,,,,,,,00051,001,2026-01-18_17h15.14.453,MST_test,2024.2.0,60.00110402031664,2026-01-18 17h15.27.180850 +0530,
106,0,107,o,1.2169139999996332,None,107,0,106,604.5426152,,,,,,,,,,,,,,,,,,,,,,,,,,,,,,,,,,,,,,,,,,,,,,,,,,604.5284806,604.5426152,605.0429076,605.0272947000003,605.0325505000001,605.0429076,605.0429076,605.0429076,606.2621362999998,Objects\150a.jpg,post,o,1.2169139999996332,None,,,,,,,,00051,001,2026-01-18_17h15.14.453,MST_test,2024.2.0,60.00110402031664,2026-01-18 17h15.27.180850 +0530,
107,0,108,s,1.0825537999999142,None,108,0,107,606.2760802000003,,,,,,,,,,,,,,,,,,,,,,,,,,,,,,,,,,,,,,,,,,,,,,,,,,606.2624939999996,606.2760802000003,606.8096186000002,606.7606458999999,606.8069150000001,606.8096186000002,606.8096186000002,606.8096186000002,607.8948560999997,Objects\068b.jpg,pre,s,1.0825537999999142,None,,,,,,,,00051,001,2026-01-18_17h15.14.453,MST_test,2024.2.0,60.00110402031664,2026-01-18 17h15.27.180850 +0530,
108,0,109,s,1.4349381000001813,None,109,0,108,607.9092957000003,,,,,,,,,,,,,,,,,,,,,,,,,,,,,,,,,,,,,,,,,,,,,,,,,,607.8951646000005,607.9092957000003,608.4094685999999,608.3938330999999,608.4015256000002,608.4094685999999,608.4094685999999,608.4094685999999,609.8617181999998,Objects\187b.jpg,mid,s,1.4349381000001813,None,,,,,,,,00051,001,2026-01-18_17h15.14.453,MST_test,2024.2.0,60.00110402031664,2026-01-18 17h15.27.180850 +0530,
109,0,110,s,1.6712640000005194,None,110,0,109,609.8760369000001,,,,,,,,,,,,,,,,,,,,,,,,,,,,,,,,,,,,,,,,,,,,,,,,,,609.8621394000002,609.8760369000001,610.3968989000005,610.3604194,610.3941783,610.3968989000005,610.3968989000005,610.3968989000005,612.078192,Objects\098b.jpg,mid,s,1.6712640000005194,None,,,,,,,,00051,001,2026-01-18_17h15.14.453,MST_test,2024.2.0,60.00110402031664,2026-01-18 17h15.27.180850 +0530,
110,0,111,s,2.6824037000005774,None,111,0,110,612.0927477000005,,,,,,,,,,,,,,,,,,,,,,,,,,,,,,,,,,,,,,,,,,,,,,,,,,612.0784709,612.0927477000005,612.6102122000002,612.5772321000004,612.6077323,612.6102122000002,612.6102122000002,612.6102122000002,615.2948695000005,Objects\058b.jpg,post,s,2.6824037000005774,None,,,,,,,,00051,001,2026-01-18_17h15.14.453,MST_test,2024.2.0,60.00110402031664,2026-01-18 17h15.27.180850 +0530,
111,0,112,o,1.0823523999997633,None,112,0,111,615.3092876000001,,,,,,,,,,,,,,,,,,,,,,,,,,,,,,,,,,,,,,,,,,,,,,,,,,615.2951576000005,615.3092876000001,615.8097069000005,615.7935716000002,615.7989667000002,615.8097069000005,615.8097069000005,615.8097069000005,616.8948522999999,Objects\286a.jpg,pre,o,1.0823523999997633,None,,,,,,,,00051,001,2026-01-18_17h15.14.453,MST_test,2024.2.0,60.00110402031664,2026-01-18 17h15.27.180850 +0530,
112,0,113,n,1.386862999999721,None,113,0,112,616.9094330999997,,,,,,,,,,,,,,,,,,,,,,,,,,,,,,,,,,,,,,,,,,,,,,,,,,616.8951157000001,616.9094330999997,617.4099748999997,617.3936430000003,617.3990954999999,617.4099748999997,617.4099748999997,617.4099748999997,618.8114397999998,Foils\098a.jpg,none,n,1.386862999999721,None,,,,,,,,00051,001,2026-01-18_17h15.14.453,MST_test,2024.2.0,60.00110402031664,2026-01-18 17h15.27.180850 +0530,
113,0,114,n,1.4147767999993448,None,114,0,113,618.8259822999999,,,,,,,,,,,,,,,,,,,,,,,,,,,,,,,,,,,,,,,,,,,,,,,,,,618.8118068000003,618.8259822999999,619.3263324999998,619.3103837999997,619.3185163999997,619.3263324999998,619.3263324999998,619.3263324999998,620.7446093999997,Foils\090a.jpg,none,n,1.4147767999993448,None,,,,,,,,00051,001,2026-01-18_17h15.14.453,MST_test,2024.2.0,60.00110402031664,2026-01-18 17h15.27.180850 +0530,
114,0,115,o,4.01642720000018,None,115,0,114,620.7592844999999,,,,,,,,,,,,,,,,,,,,,,,,,,,,,,,,,,,,,,,,,,,,,,,,,,620.7449665000004,620.7592844999999,621.2597938999997,621.2437651999999,621.2508610000004,621.2597938999997,621.2597938999997,621.2597938999997,625.2789578000002,Objects\201a.jpg,pre,o,4.01642720000018,None,,,,,,,,00051,001,2026-01-18_17h15.14.453,MST_test,2024.2.0,60.00110402031664,2026-01-18 17h15.27.180850 +0530,
115,0,116,s,1.8729614000003494,None,116,0,115,625.2927056999997,,,,,,,,,,,,,,,,,,,,,,,,,,,,,,,,,,,,,,,,,,,,,,,,,,625.2793475999997,625.2927056999997,625.8281764000003,625.7774545000002,625.8246411,625.8281764000003,625.8281764000003,625.8281764000003,627.7116002000002,Objects\374b.jpg,pre,s,1.8729614000003494,None,,,,,,,,00051,001,2026-01-18_17h15.14.453,MST_test,2024.2.0,60.00110402031664,2026-01-18 17h15.27.180850 +0530,
116,0,117,o,1.1621752000000924,None,117,0,116,627.7260619999997,,,,,,,,,,,,,,,,,,,,,,,,,,,,,,,,,,,,,,,,,,,,,,,,,,627.7119799000002,627.7260619999997,628.2263740999997,628.2108187000003,628.2194602999998,628.2263740999997,628.2263740999997,628.2263740999997,629.3945384999997,Objects\209a.jpg,pre,o,1.1621752000000924,None,,,,,,,,00051,001,2026-01-18_17h15.14.453,MST_test,2024.2.0,60.00110402031664,2026-01-18 17h15.27.180850 +0530,
117,0,118,s,1.4711464000001797,None,118,0,117,629.4093871000005,,,,,,,,,,,,,,,,,,,,,,,,,,,,,,,,,,,,,,,,,,,,,,,,,,629.3948429000002,629.4093871000005,629.9096331000001,629.8938821000002,629.9022897000004,629.9096331000001,629.9096331000001,629.9096331000001,631.3945666,Objects\259a.jpg,pre,s,1.4711464000001797,None,,,,,,,,00051,001,2026-01-18_17h15.14.453,MST_test,2024.2.0,60.00110402031664,2026-01-18 17h15.27.180850 +0530,
118,0,119,s,1.2662937000004604,None,119,0,118,631.4094126,,,,,,,,,,,,,,,,,,,,,,,,,,,,,,,,,,,,,,,,,,,,,,,,,,631.3949531999997,631.4094126,631.9616808999999,631.8938669999998,631.9579026000001,631.9616808999999,631.9616808999999,631.9616808999999,633.2453283000004,Objects\016b.jpg,post,s,1.2662937000004604,None,,,,,,,,00051,001,2026-01-18_17h15.14.453,MST_test,2024.2.0,60.00110402031664,2026-01-18 17h15.27.180850 +0530,
119,0,120,s,1.3419228000002477,None,120,0,119,633.2595592999996,,,,,,,,,,,,,,,,,,,,,,,,,,,,,,,,,,,,,,,,,,,,,,,,,,633.2456058999996,633.2595592999996,633.7595657000002,633.7439325000005,633.7515493000001,633.7595657000002,633.7595657000002,633.7595657000002,635.1113046,Objects\102a.jpg,post,s,1.3419228000002477,None,,,,,,,,00051,001,2026-01-18_17h15.14.453,MST_test,2024.2.0,60.00110402031664,2026-01-18 17h15.27.180850 +0530,
120,0,121,o,1.1061697000004642,None,121,0,120,635.1259319999999,,,,,,,,,,,,,,,,,,,,,,,,,,,,,,,,,,,,,,,,,,,,,,,,,,635.1117015999998,635.1259319999999,635.626252,635.6105967000003,635.6194833,635.626252,635.626252,635.626252,636.7450798999998,Objects\180a.jpg,mid,o,1.1061697000004642,None,,,,,,,,00051,001,2026-01-18_17h15.14.453,MST_test,2024.2.0,60.00110402031664,2026-01-18 17h15.27.180850 +0530,
121,0,122,n,1.7600604999997813,None,122,0,121,636.7593232999998,,,,,,,,,,,,,,,,,,,,,,,,,,,,,,,,,,,,,,,,,,,,,,,,,,636.7453880000003,636.7593232999998,637.2604497000002,637.2439637999996,637.2530772,637.2604497000002,637.2604497000002,637.2604497000002,639.0278163000003,Foils\086a.jpg,none,n,1.7600604999997813,None,,,,,,,,00051,001,2026-01-18_17h15.14.453,MST_test,2024.2.0,60.00110402031664,2026-01-18 17h15.27.180850 +0530,
122,0,123,s,1.1038656000000628,None,123,0,122,639.0426472999998,,,,,,,,,,,,,,,,,,,,,,,,,,,,,,,,,,,,,,,,,,,,,,,,,,639.0280620000003,639.0426472999998,639.5721174,639.5271781000001,639.5692928999997,639.5721174,639.5721174,639.5721174,640.6781965,Objects\346b.jpg,post,s,1.1038656000000628,None,,,,,,,,00051,001,2026-01-18_17h15.14.453,MST_test,2024.2.0,60.00110402031664,2026-01-18 17h15.27.180850 +0530,
123,0,124,s,1.8595474000003378,None,124,0,123,640.6926997,,,,,,,,,,,,,,,,,,,,,,,,,,,,,,,,,,,,,,,,,,,,,,,,,,640.6785384000004,640.6926997,641.1935578000002,641.1770290000004,641.1830637000003,641.1935578000002,641.1935578000002,641.1935578000002,643.0610537000002,Objects\079a.jpg,mid,s,1.8595474000003378,None,,,,,,,,00051,001,2026-01-18_17h15.14.453,MST_test,2024.2.0,60.00110402031664,2026-01-18 17h15.27.180850 +0530,
124,0,125,o,0.92878649999966,None,125,0,124,643.0759748,,,,,,,,,,,,,,,,,,,,,,,,,,,,,,,,,,,,,,,,,,,,,,,,,,643.0613814999997,643.0759748,643.6123157000002,643.5606076000004,643.6082499000004,643.6123157000002,643.6123157000002,643.6123157000002,644.5445798999999,Objects\371b.jpg,pre,o,0.92878649999966,None,,,,,,,,00051,001,2026-01-18_17h15.14.453,MST_test,2024.2.0,60.00110402031664,2026-01-18 17h15.27.180850 +0530,
125,0,126,s,1.9137031000000206,None,126,0,125,644.5594200000005,,,,,,,,,,,,,,,,,,,,,,,,,,,,,,,,,,,,,,,,,,,,,,,,,,644.5449846000001,644.5594200000005,645.059784,645.0437437999999,645.0539860999997,645.059784,645.059784,645.059784,646.9778658000005,Objects\022a.jpg,pre,s,1.9137031000000206,None,,,,,,,,00051,001,2026-01-18_17h15.14.453,MST_test,2024.2.0,60.00110402031664,2026-01-18 17h15.27.180850 +0530,
126,0,127,s,1.5600706999994145,None,127,0,126,646.9925966999999,,,,,,,,,,,,,,,,,,,,,,,,,,,,,,,,,,,,,,,,,,,,,,,,,,646.9781911,646.9925966999999,647.4929959000001,647.4772911,647.4848628999998,647.4929959000001,647.4929959000001,647.4929959000001,649.0613808999997,Objects\154a.jpg,post,s,1.5600706999994145,None,,,,,,,,00051,001,2026-01-18_17h15.14.453,MST_test,2024.2.0,60.00110402031664,2026-01-18 17h15.27.180850 +0530,
127,0,128,s,1.2771812999999383,None,128,0,127,649.0759811999997,,,,,,,,,,,,,,,,,,,,,,,,,,,,,,,,,,,,,,,,,,,,,,,,,,649.0616284999996,649.0759811999997,649.6233285999997,649.5605531000001,649.6205269000002,649.6233285999997,649.6233285999997,649.6233285999997,650.9112554000003,Objects\119b.jpg,pre,s,1.2771812999999383,None,,,,,,,,00051,001,2026-01-18_17h15.14.453,MST_test,2024.2.0,60.00110402031664,2026-01-18 17h15.27.180850 +0530,
128,0,129,s,3.338735799999995,None,129,0,128,650.9259848000002,,,,,,,,,,,,,,,,,,,,,,,,,,,,,,,,,,,,,,,,,,,,,,,,,,650.9116679999997,650.9259848000002,651.4262762999997,651.4103513,651.4158995999996,651.4262762999997,651.4262762999997,651.4262762999997,654.7793664999999,Objects\033a.jpg,pre,s,3.338735799999995,None,,,,,,,,00051,001,2026-01-18_17h15.14.453,MST_test,2024.2.0,60.00110402031664,2026-01-18 17h15.27.180850 +0530,
129,0,130,o,1.1592403999993621,None,130,0,129,654.7926473999996,,,,,,,,,,,,,,,,,,,,,,,,,,,,,,,,,,,,,,,,,,,,,,,,,,654.7797062,654.7926473999996,655.2931392999999,655.2771056000001,655.2851384000005,655.2931392999999,655.2931392999999,655.2931392999999,656.4621005999998,Objects\310a.jpg,pre,o,1.1592403999993621,None,,,,,,,,00051,001,2026-01-18_17h15.14.453,MST_test,2024.2.0,60.00110402031664,2026-01-18 17h15.27.180850 +0530,
130,0,131,n,2.6604684000003544,None,131,0,130,656.4760293999998,,,,,,,,,,,,,,,,,,,,,,,,,,,,,,,,,,,,,,,,,,,,,,,,,,656.4624123000003,656.4760293999998,656.9768301000004,656.9601333999999,656.9688892000004,656.9768301000004,656.9768301000004,656.9768301000004,659.6444093,Objects\049b.jpg,pre,n,2.6604684000003544,None,,,,,,,,00051,001,2026-01-18_17h15.14.453,MST_test,2024.2.0,60.00110402031664,2026-01-18 17h15.27.180850 +0530,
131,0,132,n,1.8978101000002425,None,132,0,131,659.6594985000002,,,,,,,,,,,,,,,,,,,,,,,,,,,,,,,,,,,,,,,,,,,,,,,,,,659.6446856000002,659.6594985000002,660.1942672000005,660.1438355999999,660.1513524000002,660.1942672000005,660.1942672000005,660.1942672000005,662.0949762999999,Foils\113a.jpg,none,n,1.8978101000002425,None,,,,,,,,00051,001,2026-01-18_17h15.14.453,MST_test,2024.2.0,60.00110402031664,2026-01-18 17h15.27.180850 +0530,
132,0,133,s,2.147168700000293,None,133,0,132,662.1092771000003,,,,,,,,,,,,,,,,,,,,,,,,,,,,,,,,,,,,,,,,,,,,,,,,,,662.0954159000003,662.1092771000003,662.6099875,662.5940323000004,662.5995670000002,662.6099875,662.6099875,662.6099875,664.7607915999997,Foils\057a.jpg,none,s,2.147168700000293,None,,,,,,,,00051,001,2026-01-18_17h15.14.453,MST_test,2024.2.0,60.00110402031664,2026-01-18 17h15.27.180850 +0530,
133,0,134,s,1.2158623999994234,None,134,0,133,664.7760355999999,,,,,,,,,,,,,,,,,,,,,,,,,,,,,,,,,,,,,,,,,,,,,,,,,,664.7611218000002,664.7760355999999,665.2764870999999,665.2604154999999,665.2653756999998,665.2764870999999,665.2764870999999,665.2764870999999,666.4946295,Objects\360b.jpg,pre,s,1.2158623999994234,None,,,,,,,,00051,001,2026-01-18_17h15.14.453,MST_test,2024.2.0,60.00110402031664,2026-01-18 17h15.27.180850 +0530,
134,0,135,n,0.9623228999998901,None,135,0,134,666.5094191999997,,,,,,,,,,,,,,,,,,,,,,,,,,,,,,,,,,,,,,,,,,,,,,,,,,666.4949019000005,666.5094191999997,667.0097543000002,666.9940477,667.0005241999997,667.0097543000002,667.0097543000002,667.0097543000002,667.9776958000002,Foils\065a.jpg,none,n,0.9623228999998901,None,,,,,,,,00051,001,2026-01-18_17h15.14.453,MST_test,2024.2.0,60.00110402031664,2026-01-18 17h15.27.180850 +0530,
135,0,136,n,1.9508904000003895,None,136,0,135,667.9927742,,,,,,,,,,,,,,,,,,,,,,,,,,,,,,,,,,,,,,,,,,,,,,,,,,667.9780018000001,667.9927742,668.4932164000002,668.477433,668.4864071000002,668.4932164000002,668.4932164000002,668.4932164000002,670.4456315999996,Foils\105a.jpg,none,n,1.9508904000003895,None,,,,,,,,00051,001,2026-01-18_17h15.14.453,MST_test,2024.2.0,60.00110402031664,2026-01-18 17h15.27.180850 +0530,
136,0,137,s,3.1170147000002544,None,137,0,136,670.4594273000002,,,,,,,,,,,,,,,,,,,,,,,,,,,,,,,,,,,,,,,,,,,,,,,,,,670.4458286999998,670.4594273000002,670.9595804999999,670.9444206999997,670.9528916999998,670.9595804999999,670.9595804999999,670.9595804999999,674.0783962000005,Objects\059b.jpg,mid,s,3.1170147000002544,None,,,,,,,,00051,001,2026-01-18_17h15.14.453,MST_test,2024.2.0,60.00110402031664,2026-01-18 17h15.27.180850 +0530,
137,0,138,n,1.0356320000000778,None,138,0,137,674.0927905999997,,,,,,,,,,,,,,,,,,,,,,,,,,,,,,,,,,,,,,,,,,,,,,,,,,674.0787885999998,674.0927905999997,674.5933012000005,674.5773918000004,674.5826582,674.5933012000005,674.5933012000005,674.5933012000005,675.6447641000004,Foils\106a.jpg,none,n,1.0356320000000778,None,,,,,,,,00051,001,2026-01-18_17h15.14.453,MST_test,2024.2.0,60.00110402031664,2026-01-18 17h15.27.180850 +0530,
138,0,139,n,2.666974900000241,None,139,0,138,675.6594219999997,,,,,,,,,,,,,,,,,,,,,,,,,,,,,,,,,,,,,,,,,,,,,,,,,,675.6452424999998,675.6594219999997,676.1936373999997,676.1437435999997,676.1908027,676.1936373999997,676.1936373999997,676.1936373999997,678.8775701000004,Objects\217b.jpg,pre,n,2.666974900000241,None,,,,,,,,00051,001,2026-01-18_17h15.14.453,MST_test,2024.2.0,60.00110402031664,2026-01-18 17h15.27.180850 +0530,
139,0,140,o,1.796143999999913,None,140,0,139,678.892914,,,,,,,,,,,,,,,,,,,,,,,,,,,,,,,,,,,,,,,,,,,,,,,,,,678.8778560000001,678.892914,679.3931075999999,679.3770485000005,679.3854122000002,679.3931075999999,679.3931075999999,679.3931075999999,681.1950030999997,Objects\296a.jpg,pre,o,1.796143999999913,None,,,,,,,,00051,001,2026-01-18_17h15.14.453,MST_test,2024.2.0,60.00110402031664,2026-01-18 17h15.27.180850 +0530,
140,0,141,n,1.3503356000001077,None,141,0,140,681.2095769999996,,,,,,,,,,,,,,,,,,,,,,,,,,,,,,,,,,,,,,,,,,,,,,,,,,681.1953567,681.2095769999996,681.7098087000004,681.6936953000004,681.7018405999997,681.7098087000004,681.7098087000004,681.7098087000004,683.0620823999998,Foils\010a.jpg,none,n,1.3503356000001077,None,,,,,,,,00051,001,2026-01-18_17h15.14.453,MST_test,2024.2.0,60.00110402031664,2026-01-18 17h15.27.180850 +0530,
141,0,142,n,2.093035700000655,None,142,0,141,683.0763500000003,,,,,,,,,,,,,,,,,,,,,,,,,,,,,,,,,,,,,,,,,,,,,,,,,,683.0623691999999,683.0763500000003,683.5764095000004,683.5602930000005,683.5670041000003,683.5764095000004,683.5764095000004,683.5764095000004,685.6776437999997,Foils\f7.jpg,none,n,2.093035700000655,None,,,,,,,,00051,001,2026-01-18_17h15.14.453,MST_test,2024.2.0,60.00110402031664,2026-01-18 17h15.27.180850 +0530,
142,0,143,s,2.0437201999993704,None,143,0,142,685.6935949999997,,,,,,,,,,,,,,,,,,,,,,,,,,,,,,,,,,,,,,,,,,,,,,,,,,685.6780116999998,685.6935949999997,686.2172812999997,686.1771206000003,686.2142553000003,686.2172812999997,686.2172812999997,686.2172812999997,688.2774925000003,Objects\262b.jpg,pre,s,2.0437201999993704,None,,,,,,,,00051,001,2026-01-18_17h15.14.453,MST_test,2024.2.0,60.00110402031664,2026-01-18 17h15.27.180850 +0530,
143,0,144,s,2.396048200000223,None,144,0,143,688.2926690000004,,,,,,,,,,,,,,,,,,,,,,,,,,,,,,,,,,,,,,,,,,,,,,,,,,688.2777450000003,688.2926690000004,688.7932450999997,688.7769963999999,688.7844573000002,688.7932450999997,688.7932450999997,688.7932450999997,691.1948678999997,Objects\353b.jpg,pre,s,2.396048200000223,None,,,,,,,,00051,001,2026-01-18_17h15.14.453,MST_test,2024.2.0,60.00110402031664,2026-01-18 17h15.27.180850 +0530,
144,0,145,s,2.9432088000003205,None,145,0,144,691.2095611000004,,,,,,,,,,,,,,,,,,,,,,,,,,,,,,,,,,,,,,,,,,,,,,,,,,691.1951643000002,691.2095611000004,691.7421387000004,691.6937993000001,691.7393015999996,691.7421387000004,691.7421387000004,691.7421387000004,694.694939,Objects\031b.jpg,post,s,2.9432088000003205,None,,,,,,,,00051,001,2026-01-18_17h15.14.453,MST_test,2024.2.0,60.00110402031664,2026-01-18 17h15.27.180850 +0530,
145,0,146,s,2.253809199999523,None,146,0,145,694.7093961,,,,,,,,,,,,,,,,,,,,,,,,,,,,,,,,,,,,,,,,,,,,,,,,,,694.6952890000002,694.7093961,695.2153208,695.1936501,695.2122909,695.2153208,695.2153208,695.2153208,697.4777997000001,Objects\241b.jpg,post,s,2.253809199999523,None,,,,,,,,00051,001,2026-01-18_17h15.14.453,MST_test,2024.2.0,60.00110402031664,2026-01-18 17h15.27.180850 +0530,
146,0,147,o,1.4195221999998466,None,147,0,146,697.4925968999996,,,,,,,,,,,,,,,,,,,,,,,,,,,,,,,,,,,,,,,,,,,,,,,,,,697.4780364999997,697.4925968999996,697.9928554999997,697.9772378999996,697.9857411000003,697.9928554999997,697.9928554999997,697.9928554999997,699.4282455000002,Objects\045a.jpg,post,o,1.4195221999998466,None,,,,,,,,00051,001,2026-01-18_17h15.14.453,MST_test,2024.2.0,60.00110402031664,2026-01-18 17h15.27.180850 +0530,
147,0,148,s,1.2165336999996725,None,148,0,147,699.4431015,,,,,,,,,,,,,,,,,,,,,,,,,,,,,,,,,,,,,,,,,,,,,,,,,,699.4285485,699.4431015,699.9957082999999,699.9273184000003,699.9923592000005,699.9957082999999,699.9957082999999,699.9957082999999,701.2277968999997,Objects\039b.jpg,post,s,1.2165336999996725,None,,,,,,,,00051,001,2026-01-18_17h15.14.453,MST_test,2024.2.0,60.00110402031664,2026-01-18 17h15.27.180850 +0530,
148,0,149,s,2.9177782999995543,None,149,0,148,701.2427135999997,,,,,,,,,,,,,,,,,,,,,,,,,,,,,,,,,,,,,,,,,,,,,,,,,,701.2280332999999,701.2427135999997,701.7431236000002,701.7270398000001,701.7393106,701.7431236000002,701.7431236000002,701.7431236000002,704.6778265000003,Objects\248a.jpg,pre,s,2.9177782999995543,None,,,,,,,,00051,001,2026-01-18_17h15.14.453,MST_test,2024.2.0,60.00110402031664,2026-01-18 17h15.27.180850 +0530,
149,0,150,s,1.4436605000000782,None,150,0,149,704.6929866,,,,,,,,,,,,,,,,,,,,,,,,,,,,,,,,,,,,,,,,,,,,,,,,,,704.6780590999997,704.6929866,705.1932749999996,705.1769936999999,705.1852073,705.1932749999996,705.1932749999996,705.1932749999996,706.6450924999999,Objects\114a.jpg,pre,s,1.4436605000000782,None,,,,,,,,00051,001,2026-01-18_17h15.14.453,MST_test,2024.2.0,60.00110402031664,2026-01-18 17h15.27.180850 +0530,
,,,,,,,,,,,,,,,,,,,,,,,,,,,,,,,,,,,,,,,,,,,,,,,,,,,,,,,,,,,,,,,,,,,,,,,,,706.645305,706.6597529000001,706.6597529000001,710.3945807999999,space,3.721872600000097,None,00051,001,2026-01-18_17h15.14.453,MST_test,2024.2.0,60.00110402031664,2026-01-18 17h15.27.180850 +0530,
