Sl_no,image_path,thisN,thisTrialN,thisRepN,key_resp_5.keys,key_resp_5.rt,key_resp_5.duration,key_resp_7.keys,key_resp_7.rt,key_resp_7.duration,key_resp_9.keys,key_resp_9.rt,key_resp_9.duration,key_resp_8.keys,key_resp_8.rt,key_resp_8.duration,practice.thisRepN,practice.thisTrialN,practice.thisN,trials.thisRepN,trials.thisTrialN,trials.thisN,thisRow.t,notes,welcome_page.started,text.started,key_resp.started,welcome_page.stopped,key_resp.keys,key_resp.rt,key_resp.duration,instructions.started,ins.started,key_resp_2.started,instructions.stopped,key_resp_2.keys,key_resp_2.rt,key_resp_2.duration,objects_only_instruction.started,text_3.started,key_resp_3.started,objects_only_instruction.stopped,key_resp_3.keys,key_resp_3.rt,key_resp_3.duration,ISI.started,text_4.started,ISI.stopped,practice_block.started,image.started,key_resp_5.started,text_5.started,practice_block.stopped,practice.key_resp_5.keys,practice.key_resp_5.rt,practice.key_resp_5.duration,indoor_outdoor.started,indoor_outdoor.stopped,practice.key_resp_7.keys,text_7.started,key_resp_7.started,practice.key_resp_7.rt,practice.key_resp_7.duration,practice_to_main.started,text_2.started,key_resp_4.started,practice_to_main.stopped,key_resp_4.keys,key_resp_4.rt,key_resp_4.duration,objects.started,image_2.started,text_9.started,key_resp_9.started,objects.stopped,category,trials.key_resp_9.keys,trials.key_resp_9.rt,trials.key_resp_9.duration,encoding_task.started,encoding_task.stopped,trials.key_resp_8.keys,text_8.started,key_resp_8.started,trials.key_resp_8.rt,trials.key_resp_8.duration,text_4.stopped,end_experiment.started,text_6.started,key_resp_6.started,end_experiment.stopped,key_resp_6.keys,key_resp_6.rt,key_resp_6.duration,list_of_stimuli,encoding_task_accuracy,participant,session,date,expName,psychopyVersion,frameRate,expStart,
,,,,,,,,,,,,,,,,,,,,,,,,,0.014557200018316507,0.031099800020456314,0.031099800020456314,666.1127103000181,space,666.0298084999667,None,,,,,,,,,,,,,,,,,,,,,,,,,,,,,,,,,,,,,,,,,,,,,,,,,,,,,,,,,,,,,,,,,,00056,001,2026-01-19_10h30.41.083,MST_task,2024.2.0,59.79184067396507,2026-01-19 10h31.14.456227 +0530,
,,,,,,,,,,,,,,,,,,,,,,,,,,,,,,,,666.1127624000073,666.1325270999805,666.1325270999805,686.7382223000168,space,20.592833600006998,None,,,,,,,,,,,,,,,,,,,,,,,,,,,,,,,,,,,,,,,,,,,,,,,,,,,,,,,,,,,00056,001,2026-01-19_10h30.41.083,MST_task,2024.2.0,59.79184067396507,2026-01-19 10h31.14.456227 +0530,
,,,,,,,,,,,,,,,,,,,,,,,,,,,,,,,,,,,,,,,686.7382536000223,686.7542917000246,686.7542917000246,720.2558058999712,space,33.49000679998426,None,,,,,,,,,,,,,,,,,,,,,,,,,,,,,,,,,,,,,,,,,,,,,,,,,,,,00056,001,2026-01-19_10h30.41.083,MST_task,2024.2.0,59.79184067396507,2026-01-19 10h31.14.456227 +0530,
2,practice_images/031a.jpg,0,0,1,f,2.877634799981024,None,None,,,,,,,,,1,0,0,,,,720.2885628999793,,,,,,,,,,,,,,,,,,,,,,,720.2754682999803,720.2885628999793,720.7570468999911,720.7742820999702,720.7903050999739,720.7903050999739,720.7903050999739,723.7675072000129,f,2.877634799981024,None,723.7687581999926,723.7687772000208,None,,,,,,,,,,,,,,,,,,,,,,,,,,,,,,,,,,,,,,00056,001,2026-01-19_10h30.41.083,MST_task,2024.2.0,59.79184067396507,2026-01-19 10h31.14.456227 +0530,
1,practice_images/013a.jpg,1,1,1,j,2.077433100028429,0.12077310000313446,None,,,,,,,,,1,1,1,,,,723.7841415000148,,,,,,,,,,,,,,,,,,,,,,,723.768845500017,723.7841415000148,724.2691400999902,724.2778655000147,724.3026367999846,724.3026367999846,724.3026367999846,727.2798048999975,j,2.077433100028429,0.12077310000313446,727.2798465000233,727.2798588000005,None,,,,,,,,,,,,,,,,,,,,,,,,,,,,,,,,,,,,,,00056,001,2026-01-19_10h30.41.083,MST_task,2024.2.0,59.79184067396507,2026-01-19 10h31.14.456227 +0530,
10,practice_images/182a.jpg,2,2,1,f,2.215917600027751,0.1034182999865152,None,,,,,,,,,1,2,2,,,,727.296937200008,,,,,,,,,,,,,,,,,,,,,,,727.279931899975,727.296937200008,727.7815224999795,727.7900097999955,727.7975296999793,727.7975296999793,727.7975296999793,730.7922145000193,f,2.215917600027751,0.1034182999865152,730.7922521000146,730.7922646999941,None,,,,,,,,,,,,,,,,,,,,,,,,,,,,,,,,,,,,,,00056,001,2026-01-19_10h30.41.083,MST_task,2024.2.0,59.79184067396507,2026-01-19 10h31.14.456227 +0530,
5,practice_images/139a.jpg,3,3,1,f,2.886779499996919,0.08817040000576526,None,,,,,,,,,1,3,3,,,,730.8088085000054,,,,,,,,,,,,,,,,,,,,,,,730.7923324999865,730.8088085000054,731.2941416000249,731.302204800013,731.3097298999783,731.3097298999783,731.3097298999783,734.3045476999832,f,2.886779499996919,0.08817040000576526,734.3049736000248,734.3049915999873,None,,,,,,,,,,,,,,,,,,,,,,,,,,,,,,,,,,,,,,00056,001,2026-01-19_10h30.41.083,MST_task,2024.2.0,59.79184067396507,2026-01-19 10h31.14.456227 +0530,
3,practice_images/037a.jpg,4,4,1,f,1.4302559000207111,0.08918969996739179,None,,,,,,,,,1,4,4,,,,734.3210739999777,,,,,,,,,,,,,,,,,,,,,,,734.3050628000055,734.3210739999777,734.8066219000029,734.8147169000003,734.8224784000195,734.8224784000195,734.8224784000195,737.8172483000089,f,1.4302559000207111,0.08918969996739179,737.8172911999864,737.8173067999887,None,,,,,,,,,,,,,,,,,,,,,,,,,,,,,,,,,,,,,,00056,001,2026-01-19_10h30.41.083,MST_task,2024.2.0,59.79184067396507,2026-01-19 10h31.14.456227 +0530,
6,practice_images/158a.jpg,5,5,1,j,2.5170149000477977,0.13609689997974783,None,,,,,,,,,1,5,5,,,,737.8334041999769,,,,,,,,,,,,,,,,,,,,,,,737.8173812999739,737.8334041999769,738.3185672999825,738.32903730002,738.3519477000227,738.3519477000227,738.3519477000227,741.32897219999,j,2.5170149000477977,0.13609689997974783,741.3306840999867,741.3307025000104,None,,,,,,,,,,,,,,,,,,,,,,,,,,,,,,,,,,,,,,00056,001,2026-01-19_10h30.41.083,MST_task,2024.2.0,59.79184067396507,2026-01-19 10h31.14.456227 +0530,
8,practice_images/178a.jpg,6,6,1,f,1.3240184999885969,0.12023020000196993,None,,,,,,,,,1,6,6,,,,741.3455090000061,,,,,,,,,,,,,,,,,,,,,,,741.330770200002,741.3455090000061,741.8307485000114,741.8417084999965,741.8644062000094,741.8644062000094,741.8644062000094,744.8418235999998,f,1.3240184999885969,0.12023020000196993,744.8418921999983,744.8419189000269,None,,,,,,,,,,,,,,,,,,,,,,,,,,,,,,,,,,,,,,00056,001,2026-01-19_10h30.41.083,MST_task,2024.2.0,59.79184067396507,2026-01-19 10h31.14.456227 +0530,
7,practice_images/166a.jpg,7,7,1,None,,,j,0.22610069997608662,None,,,,,,,1,7,7,,,,744.858100900019,,,,,,,,,,,,,,,,,,,,,,,744.8419963999768,744.858100900019,745.3430903999833,745.3525479999953,745.3766270999913,745.3766270999913,745.3766270999913,748.3537874000031,None,,,748.3538210000261,748.604826499999,j,748.3702942000236,748.3702942000236,0.22610069997608662,None,,,,,,,,,,,,,,,,,,,,,,,,,,,,,,,,,,00056,001,2026-01-19_10h30.41.083,MST_task,2024.2.0,59.79184067396507,2026-01-19 10h31.14.456227 +0530,
9,practice_images/180a.jpg,8,8,1,j,1.2584481000085361,0.11138419999042526,None,,,,,,,,,1,8,8,,,,748.6213428999763,,,,,,,,,,,,,,,,,,,,,,,748.6049114000052,748.6213428999763,749.1062480999972,749.1144140000106,749.1221458999789,749.1221458999789,749.1221458999789,752.1167492999812,j,1.2584481000085361,0.11138419999042526,752.1170534999692,752.1170701999799,None,,,,,,,,,,,,,,,,,,,,,,,,,,,,,,,,,,,,,,00056,001,2026-01-19_10h30.41.083,MST_task,2024.2.0,59.79184067396507,2026-01-19 10h31.14.456227 +0530,
4,practice_images/002b.jpg,9,9,1,j,1.6807549000368454,0.1273843999952078,None,,,,,,,,,1,9,9,,,,752.1332950000069,,,,,,,,,,,,,,,,,,,,,,,752.1171429000096,752.1332950000069,752.6184997999808,752.6273822999792,752.651783999987,752.651783999987,752.651783999987,755.6289658999885,j,1.6807549000368454,0.1273843999952078,755.6290041999891,755.6290162000223,None,,,,,,,,,,,,,,,,,,,,,,,,,,,,,,,,,,,,,,00056,001,2026-01-19_10h30.41.083,MST_task,2024.2.0,59.79184067396507,2026-01-19 10h31.14.456227 +0530,
,,,,,,,,,,,,,,,,,,,,,,,,,,,,,,,,,,,,,,,,,,,,,,,,,,,,,,,,,,,,,,,,755.6290984000079,755.6459955999744,755.6459955999744,774.6627593999729,space,19.00679290003609,None,,,,,,,,,,,,,,,,,,,,,,,,,,,00056,001,2026-01-19_10h30.41.083,MST_task,2024.2.0,59.79184067396507,2026-01-19 10h31.14.456227 +0530,
,Objects\245a.jpg,0,0,1,,,,,,,f,2.246265499969013,0.1363806999870576,None,,,,,,1,0,0,774.6790323000168,,,,,,,,,,,,,,,,,,,,,,,774.6636039000005,774.6790323000168,775.1640653000213,,,,,,,,,,,,,,,,,,,,,,,775.1818422999931,775.1984707000083,775.1984707000083,775.1984707000083,778.1746963000041,indoor,f,2.246265499969013,0.1363806999870576,778.1761774999904,778.1761976999696,None,,,,,,,,,,,,,,,00056,001,2026-01-19_10h30.41.083,MST_task,2024.2.0,59.79184067396507,2026-01-19 10h31.14.456227 +0530,
,Objects\246a.jpg,1,0,2,,,,,,,f,2.150977800018154,0.1201530999969691,None,,,,,,2,0,1,778.191330200003,,,,,,,,,,,,,,,,,,,,,,,778.1762703999993,778.191330200003,778.6763001999934,,,,,,,,,,,,,,,,,,,,,,,778.6859238999896,778.7098127999925,778.7098127999925,778.7098127999925,781.6869664000114,indoor,f,2.150977800018154,0.1201530999969691,781.687010099995,781.6870220999699,None,,,,,,,,,,,,,,,00056,001,2026-01-19_10h30.41.083,MST_task,2024.2.0,59.79184067396507,2026-01-19 10h31.14.456227 +0530,
,Objects\070a.jpg,2,0,3,,,,,,,f,1.1105824999976903,0.13610820000758395,None,,,,,,3,0,2,781.7034996000002,,,,,,,,,,,,,,,,,,,,,,,781.6870917999768,781.7034996000002,782.1888808999793,,,,,,,,,,,,,,,,,,,,,,,782.1983935000026,782.2220480000251,782.2220480000251,782.2220480000251,785.199245100026,indoor,f,1.1105824999976903,0.13610820000758395,785.1993391999858,785.1993908999721,None,,,,,,,,,,,,,,,00056,001,2026-01-19_10h30.41.083,MST_task,2024.2.0,59.79184067396507,2026-01-19 10h31.14.456227 +0530,
,Objects\302a.jpg,3,0,4,,,,,,,f,1.9332930999808013,0.11999860004289076,None,,,,,,4,0,3,785.2159230000107,,,,,,,,,,,,,,,,,,,,,,,785.1995031000115,785.2159230000107,785.7009119999711,,,,,,,,,,,,,,,,,,,,,,,785.7173819000018,785.7352891999763,785.7352891999763,785.7352891999763,788.7114484999911,indoor,f,1.9332930999808013,0.11999860004289076,788.7114910000237,788.7115025999956,None,,,,,,,,,,,,,,,00056,001,2026-01-19_10h30.41.083,MST_task,2024.2.0,59.79184067396507,2026-01-19 10h31.14.456227 +0530,
,Objects\142a.jpg,4,0,5,,,,,,,f,1.4380956999957561,0.1437902000034228,None,,,,,,5,0,4,788.7283462000196,,,,,,,,,,,,,,,,,,,,,,,788.7115715999971,788.7283462000196,789.2133581999806,,,,,,,,,,,,,,,,,,,,,,,789.2301825999748,789.2468225000193,789.2468225000193,789.2468225000193,792.2239665000234,indoor,f,1.4380956999957561,0.1437902000034228,792.2240094000008,792.224021299975,None,,,,,,,,,,,,,,,00056,001,2026-01-19_10h30.41.083,MST_task,2024.2.0,59.79184067396507,2026-01-19 10h31.14.456227 +0530,
,Objects\282a.jpg,5,0,6,,,,,,,None,,,j,0.10804879997158423,None,,,,6,0,5,792.2405218000058,,,,,,,,,,,,,,,,,,,,,,,792.2240895999712,792.2405218000058,792.7258093999699,,,,,,,,,,,,,,,,,,,,,,,792.7358845999697,792.7590048999991,792.7590048999991,792.7590048999991,795.7360688999761,indoor,None,,,795.7361220999737,795.8705631999765,j,795.7528087000246,795.7528087000246,0.10804879997158423,None,,,,,,,,,,,00056,001,2026-01-19_10h30.41.083,MST_task,2024.2.0,59.79184067396507,2026-01-19 10h31.14.456227 +0530,
,Objects\129a.jpg,6,0,7,,,,,,,f,1.6639181000064127,0.1350852000177838,None,,,,,,7,0,6,795.8866474999813,,,,,,,,,,,,,,,,,,,,,,,795.8706577999983,795.8866474999813,796.3716022999724,,,,,,,,,,,,,,,,,,,,,,,796.3812143999967,796.405108499981,796.405108499981,796.405108499981,799.3822615999961,indoor,f,1.6639181000064127,0.1350852000177838,799.3823057999834,799.3823182000197,None,,,,,,,,,,,,,,,00056,001,2026-01-19_10h30.41.083,MST_task,2024.2.0,59.79184067396507,2026-01-19 10h31.14.456227 +0530,
,Objects\067a.jpg,7,0,8,,,,,,,j,1.7346619999734685,0.12778310000430793,None,,,,,,8,0,7,799.3988008999731,,,,,,,,,,,,,,,,,,,,,,,799.3823908999912,799.3988008999731,799.8840114999912,,,,,,,,,,,,,,,,,,,,,,,799.9044649999705,799.9174156999798,799.9174156999798,799.9174156999798,802.8947517999914,shoe,j,1.7346619999734685,0.12778310000430793,802.8967880000127,802.8968066999805,None,,,,,,,,,,,,,,,00056,001,2026-01-19_10h30.41.083,MST_task,2024.2.0,59.79184067396507,2026-01-19 10h31.14.456227 +0530,
,Objects\219a.jpg,8,0,9,,,,,,,f,1.558892700006254,0.1278852000250481,None,,,,,,9,0,8,802.9111489999923,,,,,,,,,,,,,,,,,,,,,,,802.8968774999958,802.9111489999923,803.3969510999741,,,,,,,,,,,,,,,,,,,,,,,803.4089073999785,803.4295907000196,803.4295907000196,803.4295907000196,806.4070503999828,shoe,f,1.558892700006254,0.1278852000250481,806.4070933000185,806.4071057999972,None,,,,,803.4295907000196,,,,,,,,,,00056,001,2026-01-19_10h30.41.083,MST_task,2024.2.0,59.79184067396507,2026-01-19 10h31.14.456227 +0530,
,Objects\240a.jpg,9,0,10,,,,,,,f,1.7740860000485554,0.11259819997940212,None,,,,,,10,0,9,806.4233937999816,,,,,,,,,,,,,,,,,,,,,,,806.4071722999797,806.4233937999816,806.9087472999818,,,,,,,,,,,,,,,,,,,,,,,806.9261039000121,806.9418754000217,806.9418754000217,806.9418754000217,809.9190424000262,shoe,f,1.7740860000485554,0.11259819997940212,809.9192139999941,809.919229399995,None,,,,,,,,,,,,,,,00056,001,2026-01-19_10h30.41.083,MST_task,2024.2.0,59.79184067396507,2026-01-19 10h31.14.456227 +0530,
,Objects\212a.jpg,10,0,11,,,,,,,j,1.66177589999279,0.12004700000397861,None,,,,,,11,0,10,809.935833399999,,,,,,,,,,,,,,,,,,,,,,,809.9193008000148,809.935833399999,810.4208599000121,,,,,,,,,,,,,,,,,,,,,,,810.4371313999873,810.4545244000037,810.4545244000037,810.4545244000037,813.431426599971,shoe,j,1.66177589999279,0.12004700000397861,813.4317326999735,813.4317457000143,None,,,,,,,,,,,,,,,00056,001,2026-01-19_10h30.41.083,MST_task,2024.2.0,59.79184067396507,2026-01-19 10h31.14.456227 +0530,
,Objects\050a.jpg,11,0,12,,,,,,,f,1.0227865000488237,0.14457279996713623,None,,,,,,12,0,11,813.4480031999992,,,,,,,,,,,,,,,,,,,,,,,813.4318166999728,813.4480031999992,813.933236300014,,,,,,,,,,,,,,,,,,,,,,,813.9494669000269,813.9664828000241,813.9664828000241,813.9664828000241,816.9437588999863,shoe,f,1.0227865000488237,0.14457279996713623,816.9438018000219,816.9438137999969,None,,,,,,,,,,,,,,,00056,001,2026-01-19_10h30.41.083,MST_task,2024.2.0,59.79184067396507,2026-01-19 10h31.14.456227 +0530,
,Objects\300a.jpg,12,0,13,,,,,,,f,0.9409785000025295,0.1297041000216268,None,,,,,,13,0,12,816.960423099983,,,,,,,,,,,,,,,,,,,,,,,816.943883400003,816.960423099983,817.4453884999966,,,,,,,,,,,,,,,,,,,,,,,817.4600902000093,817.4788910999778,817.4788910999778,817.4788910999778,820.456032200018,shoe,f,0.9409785000025295,0.1297041000216268,820.4562211000011,820.4562342999852,None,,,,,,,,,,,,,,,00056,001,2026-01-19_10h30.41.083,MST_task,2024.2.0,59.79184067396507,2026-01-19 10h31.14.456227 +0530,
,Objects\248a.jpg,13,0,14,,,,,,,f,0.7249741000123322,0.1443415000103414,None,,,,,,14,0,13,820.4725973000168,,,,,,,,,,,,,,,,,,,,,,,820.4563068000134,820.4725973000168,820.9579939999967,,,,,,,,,,,,,,,,,,,,,,,820.975233300007,820.9910619999864,820.9910619999864,820.9910619999864,823.9685275999946,shoe,f,0.7249741000123322,0.1443415000103414,823.9685695000226,823.9685811999952,None,,,,,,,,,,,,,,,00056,001,2026-01-19_10h30.41.083,MST_task,2024.2.0,59.79184067396507,2026-01-19 10h31.14.456227 +0530,
,Objects\073a.jpg,14,0,15,,,,,,,f,1.469400100002531,0.1277861000271514,None,,,,,,15,0,14,823.9849001999828,,,,,,,,,,,,,,,,,,,,,,,823.9686517000082,823.9849001999828,824.4704071999877,,,,,,,,,,,,,,,,,,,,,,,824.48811809998,824.5033587000216,824.5033587000216,824.5033587000216,827.480524500017,indoor,f,1.469400100002531,0.1277861000271514,827.4819085000199,827.4819276999915,None,,,,,,,,,,,,,,,00056,001,2026-01-19_10h30.41.083,MST_task,2024.2.0,59.79184067396507,2026-01-19 10h31.14.456227 +0530,
,Objects\095a.jpg,15,0,16,,,,,,,f,0.8052009000093676,0.14367860002676025,None,,,,,,16,0,15,827.4973116000183,,,,,,,,,,,,,,,,,,,,,,,827.4819994000136,827.4973116000183,827.9823223999701,,,,,,,,,,,,,,,,,,,,,,,827.9926815999788,828.015791999991,828.015791999991,828.015791999991,830.9929589999956,indoor,f,0.8052009000093676,0.14367860002676025,830.9933937999886,830.9934068999719,None,,,,,,,,,,,,,,,00056,001,2026-01-19_10h30.41.083,MST_task,2024.2.0,59.79184067396507,2026-01-19 10h31.14.456227 +0530,
,Objects\207a.jpg,16,0,17,,,,,,,f,1.1080939999665134,0.12850320001598448,None,,,,,,17,0,16,831.0094975000247,,,,,,,,,,,,,,,,,,,,,,,830.9934790999978,831.0094975000247,831.4948378999834,,,,,,,,,,,,,,,,,,,,,,,831.5093272000086,831.5279710000032,831.5279710000032,831.5279710000032,834.5050431999844,indoor,f,1.1080939999665134,0.12850320001598448,834.5050882999785,834.5051004000125,None,,,,,,,,,,,,,,,00056,001,2026-01-19_10h30.41.083,MST_task,2024.2.0,59.79184067396507,2026-01-19 10h31.14.456227 +0530,
,Objects\126a.jpg,17,0,18,,,,,,,f,1.8045764999696985,0.14343340002233163,None,,,,,,18,0,17,834.5215101999929,,,,,,,,,,,,,,,,,,,,,,,834.5051728999824,834.5215101999929,835.0067038999987,,,,,,,,,,,,,,,,,,,,,,,835.0215265000006,835.0399466999806,835.0399466999806,835.0399466999806,838.0170748999808,indoor,f,1.8045764999696985,0.14343340002233163,838.0171319000074,838.0171440999839,None,,,,,,,,,,,,,,,00056,001,2026-01-19_10h30.41.083,MST_task,2024.2.0,59.79184067396507,2026-01-19 10h31.14.456227 +0530,
,Objects\336a.jpg,18,0,19,,,,,,,f,1.036358500015922,0.14345989999128506,None,,,,,,19,0,18,838.0339197000139,,,,,,,,,,,,,,,,,,,,,,,838.0172132999869,838.0339197000139,838.519047299982,,,,,,,,,,,,,,,,,,,,,,,838.5358324000263,838.5523596999701,838.5523596999701,838.5523596999701,841.5295783000183,indoor,f,1.036358500015922,0.14345989999128506,841.5296233000117,841.5296354999882,None,,,,,,,,,,,,,,,00056,001,2026-01-19_10h30.41.083,MST_task,2024.2.0,59.79184067396507,2026-01-19 10h31.14.456227 +0530,
,Objects\292a.jpg,19,0,20,,,,,,,f,1.8594967999961227,0.13618239999050274,None,,,,,,20,0,19,841.5462212999701,,,,,,,,,,,,,,,,,,,,,,,841.5299713999848,841.5462212999701,842.0311930999742,,,,,,,,,,,,,,,,,,,,,,,842.0446926999721,842.0646581000183,842.0646581000183,842.0646581000183,845.0420122999931,indoor,f,1.8594967999961227,0.13618239999050274,845.0420682000113,845.0420813999954,None,,,,,,,,,,,,,,,00056,001,2026-01-19_10h30.41.083,MST_task,2024.2.0,59.79184067396507,2026-01-19 10h31.14.456227 +0530,
,Objects\358a.jpg,20,0,21,,,,,,,f,1.5950032999971882,0.12067159998696297,None,,,,,,21,0,20,845.0583955000038,,,,,,,,,,,,,,,,,,,,,,,845.0421518000076,845.0583955000038,845.5436121000093,,,,,,,,,,,,,,,,,,,,,,,845.5581817000057,845.5768354000174,845.5768354000174,845.5768354000174,848.5539262000239,indoor,f,1.5950032999971882,0.12067159998696297,848.5539694000036,848.5539818999823,None,,,,,,,,,,,,,,,00056,001,2026-01-19_10h30.41.083,MST_task,2024.2.0,59.79184067396507,2026-01-19 10h31.14.456227 +0530,
,Objects\195a.jpg,21,0,22,,,,,,,f,2.43514309998136,0.047995899978559464,None,,,,,,22,0,21,848.5708141999785,,,,,,,,,,,,,,,,,,,,,,,848.5540573999751,848.5708141999785,849.0558040000033,,,,,,,,,,,,,,,,,,,,,,,849.072430900007,849.0894610999967,849.0894610999967,849.0894610999967,852.066400700016,shoe,f,2.43514309998136,0.047995899978559464,852.067850499996,852.0678701999714,None,,,,,,,,,,,,,,,00056,001,2026-01-19_10h30.41.083,MST_task,2024.2.0,59.79184067396507,2026-01-19 10h31.14.456227 +0530,
,Objects\021a.jpg,22,0,23,,,,,,,f,1.8826340000377968,0.09727369999745861,None,,,,,,23,0,22,852.0829852999886,,,,,,,,,,,,,,,,,,,,,,,852.0679421999957,852.0829852999886,852.5681946999975,,,,,,,,,,,,,,,,,,,,,,,852.5843676999793,852.6013540999847,852.6013540999847,852.6013540999847,855.5785774000105,shoe,f,1.8826340000377968,0.09727369999745861,855.5786261999747,855.5786387000117,None,,,,,,,,,,,,,,,00056,001,2026-01-19_10h30.41.083,MST_task,2024.2.0,59.79184067396507,2026-01-19 10h31.14.456227 +0530,
,Objects\261a.jpg,23,0,24,,,,,,,f,1.1871534999809228,0.1192859000293538,None,,,,,,24,0,23,855.5954796000151,,,,,,,,,,,,,,,,,,,,,,,855.5787104999763,855.5954796000151,856.0804211000213,,,,,,,,,,,,,,,,,,,,,,,856.0950176999904,856.1138484000112,856.1138484000112,856.1138484000112,859.0910605000099,shoe,f,1.1871534999809228,0.1192859000293538,859.0911157000228,859.0911307000206,None,,,,,,,,,,,,,,,00056,001,2026-01-19_10h30.41.083,MST_task,2024.2.0,59.79184067396507,2026-01-19 10h31.14.456227 +0530,
,Objects\296a.jpg,24,0,25,,,,,,,j,1.8022910000290722,0.12051709997467697,None,,,,,,25,0,24,859.1078506999766,,,,,,,,,,,,,,,,,,,,,,,859.0912235999713,859.1078506999766,859.5928390999907,,,,,,,,,,,,,,,,,,,,,,,859.6096227000235,859.6262366999872,859.6262366999872,859.6262366999872,862.603318599984,shoe,j,1.8022910000290722,0.12051709997467697,862.6033621000242,862.6033738999977,None,,,,,,,,,,,,,,,00056,001,2026-01-19_10h30.41.083,MST_task,2024.2.0,59.79184067396507,2026-01-19 10h31.14.456227 +0530,
,Objects\076a.jpg,25,0,26,,,,,,,f,1.3065048000426032,0.15146359999198467,None,,,,,,26,0,25,862.6199005999952,,,,,,,,,,,,,,,,,,,,,,,862.6034440000076,862.6199005999952,863.1051059999736,,,,,,,,,,,,,,,,,,,,,,,863.1192920000176,863.1383364999783,863.1383364999783,863.1383364999783,866.1154989000061,shoe,f,1.3065048000426032,0.15146359999198467,866.1155556999729,866.1155676000053,None,,,,,,,,,,,,,,,00056,001,2026-01-19_10h30.41.083,MST_task,2024.2.0,59.79184067396507,2026-01-19 10h31.14.456227 +0530,
,Objects\044a.jpg,26,0,27,,,,,,,f,1.4579914000350982,0.11227599997073412,None,,,,,,27,0,26,866.1325423999806,,,,,,,,,,,,,,,,,,,,,,,866.115821000014,866.1325423999806,866.6172781999921,,,,,,,,,,,,,,,,,,,,,,,866.627903799992,866.6507584999781,866.6507584999781,866.6507584999781,869.6280818000087,shoe,f,1.4579914000350982,0.11227599997073412,869.6281340999994,869.6281472999835,None,,,,,,,,,,,,,,,00056,001,2026-01-19_10h30.41.083,MST_task,2024.2.0,59.79184067396507,2026-01-19 10h31.14.456227 +0530,
,Objects\355a.jpg,27,0,28,,,,,,,f,2.7536637999583036,0.12854780000634491,None,,,,,,28,0,27,869.6445094000082,,,,,,,,,,,,,,,,,,,,,,,869.6282286000205,869.6445094000082,870.1298323000083,,,,,,,,,,,,,,,,,,,,,,,870.1447771000094,870.1630173000158,870.1630173000158,870.1630173000158,873.1401023999788,shoe,f,2.7536637999583036,0.12854780000634491,873.1401454000152,873.1401573999901,None,,,,,,,,,,,,,,,00056,001,2026-01-19_10h30.41.083,MST_task,2024.2.0,59.79184067396507,2026-01-19 10h31.14.456227 +0530,
,Objects\244a.jpg,28,0,29,,,,,,,f,2.0734074999927543,0.12748379999538884,None,,,,,,29,0,28,873.1569108000258,,,,,,,,,,,,,,,,,,,,,,,873.1402314999723,873.1569108000258,873.6421017000102,,,,,,,,,,,,,,,,,,,,,,,873.6560069000116,873.6753483000211,873.6753483000211,873.6753483000211,876.6525404999848,indoor,f,2.0734074999927543,0.12748379999538884,876.6537676000153,876.6537878999952,None,,,,,,,,,,,,,,,00056,001,2026-01-19_10h30.41.083,MST_task,2024.2.0,59.79184067396507,2026-01-19 10h31.14.456227 +0530,
,Objects\316a.jpg,29,0,30,,,,,,,f,2.3368005999946035,0.1200105999596417,None,,,,,,30,0,29,876.6693662999896,,,,,,,,,,,,,,,,,,,,,,,876.65387129999,876.6693662999896,877.1542142999824,,,,,,,,,,,,,,,,,,,,,,,877.1684412999894,877.1879332999815,877.1879332999815,877.1879332999815,880.1648024999886,indoor,f,2.3368005999946035,0.1200105999596417,880.1651257000049,880.1651385999867,None,,,,,,,,,,,,,,,00056,001,2026-01-19_10h30.41.083,MST_task,2024.2.0,59.79184067396507,2026-01-19 10h31.14.456227 +0530,
,Objects\060a.jpg,30,0,31,,,,,,,f,1.5925128999515437,0.12817180005367845,None,,,,,,31,0,30,880.181385200005,,,,,,,,,,,,,,,,,,,,,,,880.1652130999719,880.181385200005,880.6665968999732,,,,,,,,,,,,,,,,,,,,,,,880.6825838999939,880.6998231000034,880.6998231000034,880.6998231000034,883.6769813999999,indoor,f,1.5925128999515437,0.12817180005367845,883.6770250999834,883.6770374000189,None,,,,,,,,,,,,,,,00056,001,2026-01-19_10h30.41.083,MST_task,2024.2.0,59.79184067396507,2026-01-19 10h31.14.456227 +0530,
,Objects\267a.jpg,31,0,32,,,,,,,f,1.432333100005053,0.13599380000960082,None,,,,,,32,0,31,883.6938086000155,,,,,,,,,,,,,,,,,,,,,,,883.6771103999927,883.6938086000155,884.1787825999781,,,,,,,,,,,,,,,,,,,,,,,884.19407149998,884.2122494999785,884.2122494999785,884.2122494999785,887.1895794000011,indoor,f,1.432333100005053,0.13599380000960082,887.1897728000185,887.1897972999723,None,,,,,,,,,,,,,,,00056,001,2026-01-19_10h30.41.083,MST_task,2024.2.0,59.79184067396507,2026-01-19 10h31.14.456227 +0530,
,Objects\118a.jpg,32,0,33,,,,,,,j,1.1684900000109337,0.13530369999352843,None,,,,,,33,0,32,887.2061012000195,,,,,,,,,,,,,,,,,,,,,,,887.1898706000065,887.2061012000195,887.6911939000129,,,,,,,,,,,,,,,,,,,,,,,887.706219899992,887.7244333999697,887.7244333999697,887.7244333999697,890.701699999976,indoor,j,1.1684900000109337,0.13530369999352843,890.7017552999896,890.7017678999691,None,,,,,,,,,,,,,,,00056,001,2026-01-19_10h30.41.083,MST_task,2024.2.0,59.79184067396507,2026-01-19 10h31.14.456227 +0530,
,Objects\171a.jpg,33,0,34,,,,,,,f,1.3764004999538884,0.15918740001507103,None,,,,,,34,0,33,890.7184106999775,,,,,,,,,,,,,,,,,,,,,,,890.701986,890.7184106999775,891.2033832999878,,,,,,,,,,,,,,,,,,,,,,,891.2130176000064,891.2368465000181,891.2368465000181,891.2368465000181,894.2138617999735,indoor,f,1.3764004999538884,0.15918740001507103,894.2139147999696,894.2139263999998,None,,,,,,,,,,,,,,,00056,001,2026-01-19_10h30.41.083,MST_task,2024.2.0,59.79184067396507,2026-01-19 10h31.14.456227 +0530,
,Objects\287a.jpg,34,0,35,,,,,,,f,1.1674467999837361,0.10406139999395236,None,,,,,,35,0,34,894.2306956999819,,,,,,,,,,,,,,,,,,,,,,,894.2139963000081,894.2306956999819,894.7156697000028,,,,,,,,,,,,,,,,,,,,,,,894.7290521999821,894.7491444000043,894.7491444000043,894.7491444000043,897.7273386999732,indoor,f,1.1674467999837361,0.10406139999395236,897.7273903000169,897.7274026999949,None,,,,,,,,,,,,,,,00056,001,2026-01-19_10h30.41.083,MST_task,2024.2.0,59.79184067396507,2026-01-19 10h31.14.456227 +0530,
,Objects\075a.jpg,35,0,36,,,,,,,f,1.3830608000280336,0.1439638999872841,None,,,,,,36,0,35,897.742900000012,,,,,,,,,,,,,,,,,,,,,,,897.7274790999945,897.742900000012,898.2280867000227,,,,,,,,,,,,,,,,,,,,,,,898.2453324000235,898.2613417999819,898.2613417999819,898.2613417999819,901.2384649000014,shoe,f,1.3830608000280336,0.1439638999872841,901.2406498999917,901.240669300023,None,,,,,,,,,,,,,,,00056,001,2026-01-19_10h30.41.083,MST_task,2024.2.0,59.79184067396507,2026-01-19 10h31.14.456227 +0530,
,Objects\290a.jpg,36,0,37,,,,,,,j,1.406419500010088,0.11361569998553023,None,,,,,,37,0,36,901.2553987000138,,,,,,,,,,,,,,,,,,,,,,,901.2407770999707,901.2553987000138,901.7407445000135,,,,,,,,,,,,,,,,,,,,,,,901.7562961999793,901.7737408999819,901.7737408999819,901.7737408999819,904.7516132000019,shoe,j,1.406419500010088,0.11361569998553023,904.7516547999694,904.7516674000071,None,,,,,901.7737408999819,,,,,,,,,,00056,001,2026-01-19_10h30.41.083,MST_task,2024.2.0,59.79184067396507,2026-01-19 10h31.14.456227 +0530,
,Objects\205a.jpg,37,0,38,,,,,,,j,1.4620413000229746,0.1198560000048019,None,,,,,,38,0,37,904.7676490999875,,,,,,,,,,,,,,,,,,,,,,,904.7517357000033,904.7676490999875,905.2528089000261,,,,,,,,,,,,,,,,,,,,,,,905.2691845999798,905.2859219000093,905.2859219000093,905.2859219000093,908.2630528999725,shoe,j,1.4620413000229746,0.1198560000048019,908.2631051000208,908.2631170999957,None,,,,,,,,,,,,,,,00056,001,2026-01-19_10h30.41.083,MST_task,2024.2.0,59.79184067396507,2026-01-19 10h31.14.456227 +0530,
,Objects\092a.jpg,38,0,39,,,,,,,f,1.3428038000129163,0.1285968999727629,None,,,,,,39,0,38,908.2798948999844,,,,,,,,,,,,,,,,,,,,,,,908.2631871000049,908.2798948999844,908.7648752999958,,,,,,,,,,,,,,,,,,,,,,,908.7793883000268,908.7983342999942,908.7983342999942,908.7983342999942,911.7753642000025,shoe,f,1.3428038000129163,0.1285968999727629,911.7754205000238,911.7754319999949,None,,,,,,,,,,,,,,,00056,001,2026-01-19_10h30.41.083,MST_task,2024.2.0,59.79184067396507,2026-01-19 10h31.14.456227 +0530,
,Objects\040a.jpg,39,0,40,,,,,,,f,1.6057084000203758,0.10514449997572228,None,,,,,,40,0,39,911.7922884,,,,,,,,,,,,,,,,,,,,,,,911.7758218999952,911.7922884,912.2771591999917,,,,,,,,,,,,,,,,,,,,,,,912.2866280999733,912.3106395999785,912.3106395999785,912.3106395999785,915.2878074999899,shoe,f,1.6057084000203758,0.10514449997572228,915.2881238000118,915.2881364999921,None,,,,,,,,,,,,,,,00056,001,2026-01-19_10h30.41.083,MST_task,2024.2.0,59.79184067396507,2026-01-19 10h31.14.456227 +0530,
,Objects\197a.jpg,40,0,41,,,,,,,j,1.0710232999990694,0.14210140000795946,None,,,,,,41,0,40,915.3043788999785,,,,,,,,,,,,,,,,,,,,,,,915.2882086000172,915.3043788999785,915.7896015999722,,,,,,,,,,,,,,,,,,,,,,,915.7992483000271,915.8228204000043,915.8228204000043,915.8228204000043,918.7999814000214,shoe,j,1.0710232999990694,0.14210140000795946,918.800023799995,918.8000351000228,None,,,,,,,,,,,,,,,00056,001,2026-01-19_10h30.41.083,MST_task,2024.2.0,59.79184067396507,2026-01-19 10h31.14.456227 +0530,
,Objects\344a.jpg,41,0,42,,,,,,,j,1.4858095000381581,0.12740659998962656,None,,,,,,42,0,41,918.8169198000105,,,,,,,,,,,,,,,,,,,,,,,918.8001431999728,918.8169198000105,919.3017706000246,,,,,,,,,,,,,,,,,,,,,,,919.3160106000141,919.3352327999892,919.3352327999892,919.3352327999892,922.3134200000204,shoe,j,1.4858095000381581,0.12740659998962656,922.3134734000196,922.3134866000037,None,,,,,,,,,,,,,,,00056,001,2026-01-19_10h30.41.083,MST_task,2024.2.0,59.79184067396507,2026-01-19 10h31.14.456227 +0530,
,Objects\099a.jpg,42,0,43,,,,,,,j,1.5725118999835104,0.128493600001093,None,,,,,,43,0,42,922.3293952000095,,,,,,,,,,,,,,,,,,,,,,,922.3135632000049,922.3293952000095,922.8150791000226,,,,,,,,,,,,,,,,,,,,,,,922.8326990000205,922.8474370000185,922.8474370000185,922.8474370000185,925.8242499000044,indoor,j,1.5725118999835104,0.128493600001093,925.8262536000111,925.8262776000192,None,,,,,,,,,,,,,,,00056,001,2026-01-19_10h30.41.083,MST_task,2024.2.0,59.79184067396507,2026-01-19 10h31.14.456227 +0530,
,Objects\037a.jpg,43,0,44,,,,,,,f,1.3092252999776974,0.1510689000133425,None,,,,,,44,0,43,925.8418424000265,,,,,,,,,,,,,,,,,,,,,,,925.8263581999927,925.8418424000265,926.3263762000133,,,,,,,,,,,,,,,,,,,,,,,926.3380101000075,926.3599904999719,926.3599904999719,926.3599904999719,929.3368738999707,indoor,f,1.3092252999776974,0.1510689000133425,929.3369278999744,929.3369401000091,None,,,,,,,,,,,,,,,00056,001,2026-01-19_10h30.41.083,MST_task,2024.2.0,59.79184067396507,2026-01-19 10h31.14.456227 +0530,
,Objects\153a.jpg,44,0,45,,,,,,,f,1.076489600003697,0.159414800000377,None,,,,,,45,0,44,929.3538340000086,,,,,,,,,,,,,,,,,,,,,,,929.3370276999776,929.3538340000086,929.838659400004,,,,,,,,,,,,,,,,,,,,,,,929.8477024000022,929.8722624999937,929.8722624999937,929.8722624999937,932.84944000002,indoor,f,1.076489600003697,0.159414800000377,932.849482199992,932.8494942000252,None,,,,,,,,,,,,,,,00056,001,2026-01-19_10h30.41.083,MST_task,2024.2.0,59.79184067396507,2026-01-19 10h31.14.456227 +0530,
,Objects\018a.jpg,45,0,46,,,,,,,j,1.7252521000336856,0.13514059997396544,None,,,,,,46,0,45,932.8663599999854,,,,,,,,,,,,,,,,,,,,,,,932.8495847000158,932.8663599999854,933.3513906999724,,,,,,,,,,,,,,,,,,,,,,,933.3611333000008,933.3844821000239,933.3844821000239,933.3844821000239,936.3614610999939,indoor,j,1.7252521000336856,0.13514059997396544,936.3615170000121,936.3615288999863,None,,,,,,,,,,,,,,,00056,001,2026-01-19_10h30.41.083,MST_task,2024.2.0,59.79184067396507,2026-01-19 10h31.14.456227 +0530,
,Objects\043a.jpg,46,0,47,,,,,,,f,1.6359324000077322,0.11238849995424971,None,,,,,,47,0,46,936.3782950000023,,,,,,,,,,,,,,,,,,,,,,,936.3615991999977,936.3782950000023,936.8632923000259,,,,,,,,,,,,,,,,,,,,,,,936.8745302999741,936.8967458999832,936.8967458999832,936.8967458999832,939.8742596000084,indoor,f,1.6359324000077322,0.11238849995424971,939.8743258999893,939.8743405999849,None,,,,,,,,,,,,,,,00056,001,2026-01-19_10h30.41.083,MST_task,2024.2.0,59.79184067396507,2026-01-19 10h31.14.456227 +0530,
,Objects\217a.jpg,47,0,48,,,,,,,f,2.091913999989629,0.12064410001039505,None,,,,,,48,0,47,939.8905906999717,,,,,,,,,,,,,,,,,,,,,,,939.8744181999937,939.8905906999717,940.3760147999856,,,,,,,,,,,,,,,,,,,,,,,940.3918923999881,940.4089098999975,940.4089098999975,940.4089098999975,943.3860973999836,indoor,f,2.091913999989629,0.12064410001039505,943.3861546000117,943.3861664999858,None,,,,,,,,,,,,,,,00056,001,2026-01-19_10h30.41.083,MST_task,2024.2.0,59.79184067396507,2026-01-19 10h31.14.456227 +0530,
,Objects\238a.jpg,48,0,49,,,,,,,f,1.8033574000000954,0.11235640000086278,None,,,,,,49,0,48,943.4028945000027,,,,,,,,,,,,,,,,,,,,,,,943.3863848000183,943.4028945000027,943.887930100027,,,,,,,,,,,,,,,,,,,,,,,943.9030198000255,943.921327500022,943.921327500022,943.921327500022,946.8983555000159,indoor,f,1.8033574000000954,0.11235640000086278,946.8984126999858,946.8984245000174,None,,,,,,,,,,,,,,,00056,001,2026-01-19_10h30.41.083,MST_task,2024.2.0,59.79184067396507,2026-01-19 10h31.14.456227 +0530,
,Objects\137a.jpg,49,0,50,,,,,,,j,1.8582988000125624,0.10403869999572635,None,,,,,,50,0,49,946.9151981999748,,,,,,,,,,,,,,,,,,,,,,,946.8984977999935,946.9151981999748,947.4004023000016,,,,,,,,,,,,,,,,,,,,,,,947.4174840999767,947.4336341000162,947.4336341000162,947.4336341000162,950.410893000022,shoe,j,1.8582988000125624,0.10403869999572635,950.4127690999885,950.4127882000175,None,,,,,,,,,,,,,,,00056,001,2026-01-19_10h30.41.083,MST_task,2024.2.0,59.79184067396507,2026-01-19 10h31.14.456227 +0530,
,Objects\309a.jpg,50,0,51,,,,,,,f,1.2582271000137553,0.14444989996263757,None,,,,,,51,0,50,950.4273736000177,,,,,,,,,,,,,,,,,,,,,,,950.4128586999723,950.4273736000177,950.912891999993,,,,,,,,,,,,,,,,,,,,,,,950.9268147000112,950.9458030000096,950.9458030000096,950.9458030000096,953.9229572999757,shoe,f,1.2582271000137553,0.14444989996263757,953.9230055999942,953.9230193999829,None,,,,,950.9458030000096,,,,,,,,,,00056,001,2026-01-19_10h30.41.083,MST_task,2024.2.0,59.79184067396507,2026-01-19 10h31.14.456227 +0530,
,Objects\321a.jpg,51,0,52,,,,,,,f,1.2743915999890305,0.11974809999810532,None,,,,,,52,0,51,953.9397862000042,,,,,,,,,,,,,,,,,,,,,,,953.9232332999818,953.9397862000042,954.424746899982,,,,,,,,,,,,,,,,,,,,,,,954.438716100005,954.4582299999893,954.4582299999893,954.4582299999893,957.4354187999852,shoe,f,1.2743915999890305,0.11974809999810532,957.4354620000231,957.435473599995,None,,,,,,,,,,,,,,,00056,001,2026-01-19_10h30.41.083,MST_task,2024.2.0,59.79184067396507,2026-01-19 10h31.14.456227 +0530,
,Objects\161a.jpg,52,0,53,,,,,,,f,1.2584419999620877,0.11934460001066327,None,,,,,,53,0,52,957.4525704000262,,,,,,,,,,,,,,,,,,,,,,,957.4355695000268,957.4525704000262,957.9371888000169,,,,,,,,,,,,,,,,,,,,,,,957.9521997999982,957.9704163999995,957.9704163999995,957.9704163999995,960.9475520999986,shoe,f,1.2584419999620877,0.11934460001066327,960.947601300024,960.9476131999982,None,,,,,,,,,,,,,,,00056,001,2026-01-19_10h30.41.083,MST_task,2024.2.0,59.79184067396507,2026-01-19 10h31.14.456227 +0530,
,Objects\120a.jpg,53,0,54,,,,,,,f,1.6259745999705046,0.11963620001915842,None,,,,,,54,0,53,960.9643667999771,,,,,,,,,,,,,,,,,,,,,,,960.9476840000134,960.9643667999771,961.4494640000048,,,,,,,,,,,,,,,,,,,,,,,961.4589478999842,961.4828371999902,961.4828371999902,961.4828371999902,964.4598573999829,shoe,f,1.6259745999705046,0.11963620001915842,964.4598999000154,964.4599342999863,None,,,,,,,,,,,,,,,00056,001,2026-01-19_10h30.41.083,MST_task,2024.2.0,59.79184067396507,2026-01-19 10h31.14.456227 +0530,
,Objects\275a.jpg,54,0,55,,,,,,,f,1.4409554000012577,0.13584080000873655,None,,,,,,55,0,54,964.4770783999702,,,,,,,,,,,,,,,,,,,,,,,964.4600147000165,964.4770783999702,964.9618092000019,,,,,,,,,,,,,,,,,,,,,,,964.9756227000034,964.9951282999828,964.9951282999828,964.9951282999828,967.972357599996,shoe,f,1.4409554000012577,0.13584080000873655,967.9723996000248,967.9724113999982,None,,,,,,,,,,,,,,,00056,001,2026-01-19_10h30.41.083,MST_task,2024.2.0,59.79184067396507,2026-01-19 10h31.14.456227 +0530,
,Objects\279a.jpg,55,0,56,,,,,,,j,1.2574390000081621,0.15209619997767732,None,,,,,,56,0,55,967.9889912999934,,,,,,,,,,,,,,,,,,,,,,,967.9724808000028,967.9889912999934,968.4739648000104,,,,,,,,,,,,,,,,,,,,,,,968.4885856999899,968.5075457000057,968.5075457000057,968.5075457000057,971.4845727999927,shoe,j,1.2574390000081621,0.15209619997767732,971.4852301999927,971.4852818999789,None,,,,,,,,,,,,,,,00056,001,2026-01-19_10h30.41.083,MST_task,2024.2.0,59.79184067396507,2026-01-19 10h31.14.456227 +0530,
,Objects\117a.jpg,56,0,57,,,,,,,f,1.6015157999936491,0.13578489999054,None,,,,,,57,0,56,971.5011714000138,,,,,,,,,,,,,,,,,,,,,,,971.4854833999998,971.5011714000138,971.986457800027,,,,,,,,,,,,,,,,,,,,,,,971.9967839000165,972.0196129999822,972.0196129999822,972.0196129999822,974.9969303000253,indoor,f,1.6015157999936491,0.13578489999054,974.9989467000123,974.9989659999846,None,,,,,,,,,,,,,,,00056,001,2026-01-19_10h30.41.083,MST_task,2024.2.0,59.79184067396507,2026-01-19 10h31.14.456227 +0530,
,Objects\019a.jpg,57,0,58,,,,,,,f,1.6806974000064656,0.14391789998626336,None,,,,,,58,0,57,975.0137045999872,,,,,,,,,,,,,,,,,,,,,,,974.9990388000151,975.0137045999872,975.4990485999733,,,,,,,,,,,,,,,,,,,,,,,975.5092531000264,975.532033000025,975.532033000025,975.532033000025,978.5091807999997,indoor,f,1.6806974000064656,0.14391789998626336,978.5092234999756,978.5092367000179,None,,,,,975.532033000025,,,,,,,,,,00056,001,2026-01-19_10h30.41.083,MST_task,2024.2.0,59.79184067396507,2026-01-19 10h31.14.456227 +0530,
,Objects\230a.jpg,58,0,59,,,,,,,j,1.5834599999943748,0.12976080004591495,None,,,,,,59,0,58,978.5258791000233,,,,,,,,,,,,,,,,,,,,,,,978.5093066000263,978.5258791000233,979.0109664999763,,,,,,,,,,,,,,,,,,,,,,,979.0270542000071,979.0443266999791,979.0443266999791,979.0443266999791,982.0214882,indoor,j,1.5834599999943748,0.12976080004591495,982.0215285000158,982.0215658000088,None,,,,,,,,,,,,,,,00056,001,2026-01-19_10h30.41.083,MST_task,2024.2.0,59.79184067396507,2026-01-19 10h31.14.456227 +0530,
,Objects\293a.jpg,59,0,60,,,,,,,f,1.7112756000133231,0.13720380002632737,None,,,,,,60,0,59,982.0382060999982,,,,,,,,,,,,,,,,,,,,,,,982.021650300012,982.0382060999982,982.5232826999854,,,,,,,,,,,,,,,,,,,,,,,982.5364739000215,982.5564966999809,982.5564966999809,982.5564966999809,985.5336475999793,indoor,f,1.7112756000133231,0.13720380002632737,985.5336893000058,985.5337307999725,None,,,,,,,,,,,,,,,00056,001,2026-01-19_10h30.41.083,MST_task,2024.2.0,59.79184067396507,2026-01-19 10h31.14.456227 +0530,
,Objects\214a.jpg,60,0,61,,,,,,,f,1.8790761000127532,0.10405650001484901,None,,,,,,61,0,60,985.5504850000143,,,,,,,,,,,,,,,,,,,,,,,985.5338095999905,985.5504850000143,986.0354488000157,,,,,,,,,,,,,,,,,,,,,,,986.0525866000098,986.0689331999747,986.0689331999747,986.0689331999747,989.0460602000239,indoor,f,1.8790761000127532,0.10405650001484901,989.0462485000025,989.0462615999859,None,,,,,,,,,,,,,,,00056,001,2026-01-19_10h30.41.083,MST_task,2024.2.0,59.79184067396507,2026-01-19 10h31.14.456227 +0530,
,Objects\111a.jpg,61,0,62,,,,,,,f,1.7030795000027865,0.11990079999668524,None,,,,,,62,0,61,989.0626619000104,,,,,,,,,,,,,,,,,,,,,,,989.0463306999882,989.0626619000104,989.5478712000186,,,,,,,,,,,,,,,,,,,,,,,989.5588558000163,989.5811059999978,989.5811059999978,989.5811059999978,992.5582238999777,indoor,f,1.7030795000027865,0.11990079999668524,992.5582681000233,992.5582812000066,None,,,,,,,,,,,,,,,00056,001,2026-01-19_10h30.41.083,MST_task,2024.2.0,59.79184067396507,2026-01-19 10h31.14.456227 +0530,
,Objects\242a.jpg,62,0,63,,,,,,,j,1.9025750999571756,0.12053479999303818,None,,,,,,63,0,62,992.5750802999828,,,,,,,,,,,,,,,,,,,,,,,992.5583516000188,992.5750802999828,993.0600593999843,,,,,,,,,,,,,,,,,,,,,,,993.0698942000163,993.0936616000254,993.0936616000254,993.0936616000254,996.0706623999868,indoor,j,1.9025750999571756,0.12053479999303818,996.0707040000125,996.0707156999852,None,,,,,,,,,,,,,,,00056,001,2026-01-19_10h30.41.083,MST_task,2024.2.0,59.79184067396507,2026-01-19 10h31.14.456227 +0530,
,Objects\134a.jpg,63,0,64,,,,,,,j,1.4698747000074945,0.16046290000667796,None,,,,,,64,0,63,996.0873402999714,,,,,,,,,,,,,,,,,,,,,,,996.0707857999951,996.0873402999714,996.5729480999871,,,,,,,,,,,,,,,,,,,,,,,996.5847763000056,996.6061259999988,996.6061259999988,996.6061259999988,999.5841939999955,shoe,j,1.4698747000074945,0.16046290000667796,999.5868722000159,999.5868924999959,None,,,,,,,,,,,,,,,00056,001,2026-01-19_10h30.41.083,MST_task,2024.2.0,59.79184067396507,2026-01-19 10h31.14.456227 +0530,
,Objects\002a.jpg,64,0,65,,,,,,,f,1.6381083999876864,0.11156420002225786,None,,,,,,65,0,64,999.5995225000079,,,,,,,,,,,,,,,,,,,,,,,999.5870105000213,999.5995225000079,1000.0851366000134,,,,,,,,,,,,,,,,,,,,,,,1000.095099899976,1000.1181264999905,1000.1181264999905,1000.1181264999905,1003.0951503000106,shoe,f,1.6381083999876864,0.11156420002225786,1003.095191099972,1003.0952313999878,None,,,,,1000.1181264999905,,,,,,,,,,00056,001,2026-01-19_10h30.41.083,MST_task,2024.2.0,59.79184067396507,2026-01-19 10h31.14.456227 +0530,
,Objects\298a.jpg,65,0,66,,,,,,,f,2.501320300041698,0.14413969998713583,None,,,,,,66,0,65,1003.1119665000006,,,,,,,,,,,,,,,,,,,,,,,1003.0953437999706,1003.1119665000006,1003.5971188999829,,,,,,,,,,,,,,,,,,,,,,,1003.6072339999955,1003.6306521000224,1003.6306521000224,1003.6306521000224,1006.6075539999874,shoe,f,2.501320300041698,0.14413969998713583,1006.6077521999832,1006.6077650000225,None,,,,,,,,,,,,,,,00056,001,2026-01-19_10h30.41.083,MST_task,2024.2.0,59.79184067396507,2026-01-19 10h31.14.456227 +0530,
,Objects\026a.jpg,66,0,67,,,,,,,f,1.9981484999880195,0.1435050999862142,None,,,,,,67,0,66,1006.6241557999747,,,,,,,,,,,,,,,,,,,,,,,1006.6078343000263,1006.6241557999747,1007.1098860999919,,,,,,,,,,,,,,,,,,,,,,,1007.119574500015,1007.1425987000111,1007.1425987000111,1007.1425987000111,1010.1197346000117,shoe,f,1.9981484999880195,0.1435050999862142,1010.1197886000155,1010.1198002999881,None,,,,,,,,,,,,,,,00056,001,2026-01-19_10h30.41.083,MST_task,2024.2.0,59.79184067396507,2026-01-19 10h31.14.456227 +0530,
,Objects\051a.jpg,67,0,68,,,,,,,j,1.3497853000299074,0.15131629997631535,None,,,,,,68,0,67,1010.1365797999897,,,,,,,,,,,,,,,,,,,,,,,1010.1200637000147,1010.1365797999897,1010.6216248999699,,,,,,,,,,,,,,,,,,,,,,,1010.6314832000062,1010.6550241999794,1010.6550241999794,1010.6550241999794,1013.6321740999701,shoe,j,1.3497853000299074,0.15131629997631535,1013.632214799989,1013.6322266000207,None,,,,,,,,,,,,,,,00056,001,2026-01-19_10h30.41.083,MST_task,2024.2.0,59.79184067396507,2026-01-19 10h31.14.456227 +0530,
,Objects\229a.jpg,68,0,69,,,,,,,f,1.8452815999626182,0.11990910000167787,None,,,,,,69,0,68,1013.6487513000029,,,,,,,,,,,,,,,,,,,,,,,1013.6322960000252,1013.6487513000029,1014.1341458000243,,,,,,,,,,,,,,,,,,,,,,,1014.1507301999955,1014.167190600012,1014.167190600012,1014.167190600012,1017.1445535999956,shoe,f,1.8452815999626182,0.11990910000167787,1017.1445952000213,1017.1446069999947,None,,,,,,,,,,,,,,,00056,001,2026-01-19_10h30.41.083,MST_task,2024.2.0,59.79184067396507,2026-01-19 10h31.14.456227 +0530,
,Objects\340a.jpg,69,0,70,,,,,,,f,0.9883633999852464,0.13575620000483468,None,,,,,,70,0,69,1017.1610569999903,,,,,,,,,,,,,,,,,,,,,,,1017.1447182000265,1017.1610569999903,1017.6464331999887,,,,,,,,,,,,,,,,,,,,,,,1017.6614709999994,1017.679985499999,1017.679985499999,1017.679985499999,1020.6568277999759,shoe,f,0.9883633999852464,0.13575620000483468,1020.656868799997,1020.6568808999727,None,,,,,,,,,,,,,,,00056,001,2026-01-19_10h30.41.083,MST_task,2024.2.0,59.79184067396507,2026-01-19 10h31.14.456227 +0530,
,Objects\082a.jpg,70,0,71,,,,,,,j,1.4844352999934927,0.14436869998462498,None,,,,,,71,0,70,1020.6736444000271,,,,,,,,,,,,,,,,,,,,,,,1020.656951699988,1020.6736444000271,1021.1585846000235,,,,,,,,,,,,,,,,,,,,,,,1021.1742453000043,1021.1920798000065,1021.1920798000065,1021.1920798000065,1024.1697335999925,indoor,j,1.4844352999934927,0.14436869998462498,1024.1711550999898,1024.171175299969,None,,,,,,,,,,,,,,,00056,001,2026-01-19_10h30.41.083,MST_task,2024.2.0,59.79184067396507,2026-01-19 10h31.14.456227 +0530,
,Objects\233a.jpg,71,0,72,,,,,,,f,2.4128581999684684,0.1273382999934256,None,,,,,,72,0,71,1024.1863828999922,,,,,,,,,,,,,,,,,,,,,,,1024.1712486000033,1024.1863828999922,1024.671116499987,,,,,,,,,,,,,,,,,,,,,,,1024.6847655000165,1024.7042865999974,1024.7042865999974,1024.7042865999974,1027.6812482000096,indoor,f,2.4128581999684684,0.1273382999934256,1027.6812891999725,1027.6813269999693,None,,,,,1024.7042865999974,,,,,,,,,,00056,001,2026-01-19_10h30.41.083,MST_task,2024.2.0,59.79184067396507,2026-01-19 10h31.14.456227 +0530,
,Objects\130a.jpg,72,0,73,,,,,,,f,1.3078530000057071,0.15242749999742955,None,,,,,,73,0,72,1027.6980658000102,,,,,,,,,,,,,,,,,,,,,,,1027.681401800015,1027.6980658000102,1028.18367150001,,,,,,,,,,,,,,,,,,,,,,,1028.1981826000265,1028.2165090999915,1028.2165090999915,1028.2165090999915,1031.1936527999933,indoor,f,1.3078530000057071,0.15242749999742955,1031.1939822999993,1031.1939950999804,None,,,,,,,,,,,,,,,00056,001,2026-01-19_10h30.41.083,MST_task,2024.2.0,59.79184067396507,2026-01-19 10h31.14.456227 +0530,
,Objects\356a.jpg,73,0,74,,,,,,,f,1.7555876999977045,0.13613030000124127,None,,,,,,74,0,73,1031.210258600011,,,,,,,,,,,,,,,,,,,,,,,1031.1940660999971,1031.210258600011,1031.6954893000075,,,,,,,,,,,,,,,,,,,,,,,1031.709847900027,1031.7286927999812,1031.7286927999812,1031.7286927999812,1034.7059473000118,indoor,f,1.7555876999977045,0.13613030000124127,1034.7060327000218,1034.7060461000074,None,,,,,,,,,,,,,,,00056,001,2026-01-19_10h30.41.083,MST_task,2024.2.0,59.79184067396507,2026-01-19 10h31.14.456227 +0530,
,Objects\193a.jpg,74,0,75,,,,,,,f,1.474870300036855,0.15332009998383,None,,,,,,75,0,74,1034.7225388999796,,,,,,,,,,,,,,,,,,,,,,,1034.706117200025,1034.7225388999796,1035.2077824000153,,,,,,,,,,,,,,,,,,,,,,,1035.2239519999712,1035.2409968000138,1035.2409968000138,1035.2409968000138,1038.2182519999915,indoor,f,1.474870300036855,0.15332009998383,1038.218309900025,1038.218321799999,None,,,,,,,,,,,,,,,00056,001,2026-01-19_10h30.41.083,MST_task,2024.2.0,59.79184067396507,2026-01-19 10h31.14.456227 +0530,
,Objects\227a.jpg,75,0,76,,,,,,,f,1.8117442000075243,0.11901510000461712,None,,,,,,76,0,75,1038.234963099996,,,,,,,,,,,,,,,,,,,,,,,1038.218533999985,1038.234963099996,1038.7199457000243,,,,,,,,,,,,,,,,,,,,,,,1038.7330674999976,1038.7535740999738,1038.7535740999738,1038.7535740999738,1041.7305410000263,indoor,f,1.8117442000075243,0.11901510000461712,1041.7305837000022,1041.7305954999756,None,,,,,,,,,,,,,,,00056,001,2026-01-19_10h30.41.083,MST_task,2024.2.0,59.79184067396507,2026-01-19 10h31.14.456227 +0530,
,Objects\216a.jpg,76,0,77,,,,,,,f,1.8275379999540746,0.1425300000119023,None,,,,,,77,0,76,1041.7471354000154,,,,,,,,,,,,,,,,,,,,,,,1041.7306669999962,1041.7471354000154,1042.2323578000069,,,,,,,,,,,,,,,,,,,,,,,1042.2420973000117,1042.2656954000122,1042.2656954000122,1042.2656954000122,1045.2427382000023,indoor,f,1.8275379999540746,0.1425300000119023,1045.2427799999714,1045.2427916000015,None,,,,,,,,,,,,,,,00056,001,2026-01-19_10h30.41.083,MST_task,2024.2.0,59.79184067396507,2026-01-19 10h31.14.456227 +0530,
,Objects\319a.jpg,77,0,78,,,,,,,f,1.3149288999848068,0.14293410000391304,None,,,,,,78,0,77,1045.2595687999856,,,,,,,,,,,,,,,,,,,,,,,1045.2428621000145,1045.2595687999856,1045.7446213000221,,,,,,,,,,,,,,,,,,,,,,,1045.7612227000063,1045.7781292999862,1045.7781292999862,1045.7781292999862,1048.7552988000098,shoe,f,1.3149288999848068,0.14293410000391304,1048.7567726999987,1048.7567916000262,None,,,,,,,,,,,,,,,00056,001,2026-01-19_10h30.41.083,MST_task,2024.2.0,59.79184067396507,2026-01-19 10h31.14.456227 +0530,
,Objects\341a.jpg,78,0,79,,,,,,,f,1.7140874999458902,0.12739860004512593,None,,,,,,79,0,78,1048.7719108000165,,,,,,,,,,,,,,,,,,,,,,,1048.756927600014,1048.7719108000165,1049.2572534999927,,,,,,,,,,,,,,,,,,,,,,,1049.2752697999822,1049.290441500023,1049.290441500023,1049.290441500023,1052.2675144000095,shoe,f,1.7140874999458902,0.12739860004512593,1052.2675562999793,1052.2675684000133,None,,,,,,,,,,,,,,,00056,001,2026-01-19_10h30.41.083,MST_task,2024.2.0,59.79184067396507,2026-01-19 10h31.14.456227 +0530,
,Objects\125a.jpg,79,0,80,,,,,,,j,1.0900322999805212,0.151268900022842,None,,,,,,80,0,79,1052.284043200023,,,,,,,,,,,,,,,,,,,,,,,1052.2676973000052,1052.284043200023,1052.7692684999784,,,,,,,,,,,,,,,,,,,,,,,1052.779262600001,1052.8026074999943,1052.8026074999943,1052.8026074999943,1055.7796441999963,shoe,j,1.0900322999805212,0.151268900022842,1055.779686499969,1055.7796987000038,None,,,,,,,,,,,,,,,00056,001,2026-01-19_10h30.41.083,MST_task,2024.2.0,59.79184067396507,2026-01-19 10h31.14.456227 +0530,
,Objects\384a.jpg,80,0,81,,,,,,,f,1.304929899983108,0.1290844000177458,None,,,,,,81,0,80,1055.7966025000205,,,,,,,,,,,,,,,,,,,,,,,1055.7798391000251,1055.7966025000205,1056.2816018000012,,,,,,,,,,,,,,,,,,,,,,,1056.2925678999745,1056.3149057999835,1056.3149057999835,1056.3149057999835,1059.292325699993,shoe,f,1.304929899983108,0.1290844000177458,1059.292365900008,1059.2923772999784,None,,,,,,,,,,,,,,,00056,001,2026-01-19_10h30.41.083,MST_task,2024.2.0,59.79184067396507,2026-01-19 10h31.14.456227 +0530,
,Objects\053a.jpg,81,0,82,,,,,,,f,1.2808224000036716,0.16005330003099516,None,,,,,,82,0,81,1059.3094215000165,,,,,,,,,,,,,,,,,,,,,,,1059.292449600005,1059.3094215000165,1059.793858500023,,,,,,,,,,,,,,,,,,,,,,,1059.8040680999984,1059.8270945000113,1059.8270945000113,1059.8270945000113,1062.8042306000134,shoe,f,1.2808224000036716,0.16005330003099516,1062.8042730999878,1062.8042854000232,None,,,,,,,,,,,,,,,00056,001,2026-01-19_10h30.41.083,MST_task,2024.2.0,59.79184067396507,2026-01-19 10h31.14.456227 +0530,
,Objects\236a.jpg,82,0,83,,,,,,,j,1.4895903000142425,0.14319159998558462,None,,,,,,83,0,82,1062.8210543000023,,,,,,,,,,,,,,,,,,,,,,,1062.8043908000109,1062.8210543000023,1063.3060822000261,,,,,,,,,,,,,,,,,,,,,,,1063.3230838999734,1063.3395030000247,1063.3395030000247,1063.3395030000247,1066.316763699986,shoe,j,1.4895903000142425,0.14319159998558462,1066.3168032999965,1066.3168149999692,None,,,,,,,,,,,,,,,00056,001,2026-01-19_10h30.41.083,MST_task,2024.2.0,59.79184067396507,2026-01-19 10h31.14.456227 +0530,
,Objects\056a.jpg,83,0,84,,,,,,,f,1.2491476999712177,0.12696929997764528,None,,,,,,84,0,83,1066.333395500027,,,,,,,,,,,,,,,,,,,,,,,1066.3168834000244,1066.333395500027,1066.818482999981,,,,,,,,,,,,,,,,,,,,,,,1066.834586300014,1066.8516920999973,1066.8516920999973,1066.8516920999973,1069.828942799999,shoe,f,1.2491476999712177,0.12696929997764528,1069.8289829000132,1069.8289944999851,None,,,,,,,,,,,,,,,00056,001,2026-01-19_10h30.41.083,MST_task,2024.2.0,59.79184067396507,2026-01-19 10h31.14.456227 +0530,
,Objects\365a.jpg,84,0,85,,,,,,,f,1.7687645999831147,0.11207010003272444,None,,,,,,85,0,84,1069.8455697000027,,,,,,,,,,,,,,,,,,,,,,,1069.829066300008,1069.8455697000027,1070.3307687999913,,,,,,,,,,,,,,,,,,,,,,,1070.3454909999855,1070.3639841999975,1070.3639841999975,1070.3639841999975,1073.3411618000246,indoor,f,1.7687645999831147,0.11207010003272444,1073.3424661000026,1073.3424922999693,None,,,,,,,,,,,,,,,00056,001,2026-01-19_10h30.41.083,MST_task,2024.2.0,59.79184067396507,2026-01-19 10h31.14.456227 +0530,
,Objects\101a.jpg,85,0,86,,,,,,,f,2.0636001999955624,0.12019230000441894,None,,,,,,86,0,85,1073.357947600016,,,,,,,,,,,,,,,,,,,,,,,1073.342564999999,1073.357947600016,1073.8431151999976,,,,,,,,,,,,,,,,,,,,,,,1073.8575196000165,1073.8765186999808,1073.8765186999808,1073.8765186999808,1076.8538207000238,indoor,f,2.0636001999955624,0.12019230000441894,1076.8538800000097,1076.8538936999976,None,,,,,,,,,,,,,,,00056,001,2026-01-19_10h30.41.083,MST_task,2024.2.0,59.79184067396507,2026-01-19 10h31.14.456227 +0530,
,Objects\046a.jpg,86,0,87,,,,,,,f,1.87258780002594,0.11143119999906048,None,,,,,,87,0,86,1076.8701334000216,,,,,,,,,,,,,,,,,,,,,,,1076.8539652000181,1076.8701334000216,1077.355332200008,,,,,,,,,,,,,,,,,,,,,,,1077.3671145000262,1077.388354099996,1077.388354099996,1077.388354099996,1080.3657823000103,indoor,f,1.87258780002594,0.11143119999906048,1080.3658260999946,1080.365838000027,None,,,,,,,,,,,,,,,00056,001,2026-01-19_10h30.41.083,MST_task,2024.2.0,59.79184067396507,2026-01-19 10h31.14.456227 +0530,
,Objects\071a.jpg,87,0,88,,,,,,,j,1.9514900000067428,0.13574469997547567,None,,,,,,88,0,87,1080.382553500007,,,,,,,,,,,,,,,,,,,,,,,1080.3660760999774,1080.382553500007,1080.8681216000114,,,,,,,,,,,,,,,,,,,,,,,1080.877505099983,1080.9009949999745,1080.9009949999745,1080.9009949999745,1083.8782778999885,indoor,j,1.9514900000067428,0.13574469997547567,1083.8783206000226,1083.8783320999937,None,,,,,,,,,,,,,,,00056,001,2026-01-19_10h30.41.083,MST_task,2024.2.0,59.79184067396507,2026-01-19 10h31.14.456227 +0530,
,Objects\303a.jpg,88,0,89,,,,,,,j,1.7894925000146031,0.16102549998322502,None,,,,,,89,0,88,1083.894741599972,,,,,,,,,,,,,,,,,,,,,,,1083.878401599999,1083.894741599972,1084.3799510999816,,,,,,,,,,,,,,,,,,,,,,,1084.399369199993,1084.4143844000064,1084.4143844000064,1084.4143844000064,1087.3904457999743,indoor,j,1.7894925000146031,0.16102549998322502,1087.3904886000091,1087.390500599984,None,,,,,,,,,,,,,,,00056,001,2026-01-19_10h30.41.083,MST_task,2024.2.0,59.79184067396507,2026-01-19 10h31.14.456227 +0530,
,Objects\163a.jpg,89,0,90,,,,,,,j,1.6230911999591626,0.13642799999797717,None,,,,,,90,0,89,1087.4072030999814,,,,,,,,,,,,,,,,,,,,,,,1087.3905817000195,1087.4072030999814,1087.8929318999872,,,,,,,,,,,,,,,,,,,,,,,1087.9075673000189,1087.9254782000207,1087.9254782000207,1087.9254782000207,1090.9026575000025,indoor,j,1.6230911999591626,0.13642799999797717,1090.9027111000032,1090.902723199979,None,,,,,,,,,,,,,,,00056,001,2026-01-19_10h30.41.083,MST_task,2024.2.0,59.79184067396507,2026-01-19 10h31.14.456227 +0530,
,Objects\151a.jpg,90,0,91,,,,,,,f,1.61438939999789,0.12861349998274818,None,,,,,,91,0,90,1090.9197081999737,,,,,,,,,,,,,,,,,,,,,,,1090.9029407000053,1090.9197081999737,1091.4044298999943,,,,,,,,,,,,,,,,,,,,,,,1091.4139504000195,1091.437889199995,1091.437889199995,1091.437889199995,1094.4150466999854,indoor,f,1.61438939999789,0.12861349998274818,1094.4150874000043,1094.4150993999792,None,,,,,,,,,,,,,,,00056,001,2026-01-19_10h30.41.083,MST_task,2024.2.0,59.79184067396507,2026-01-19 10h31.14.456227 +0530,
,Objects\276a.jpg,91,0,92,,,,,,,f,1.5588624000083655,0.1194592000101693,None,,,,,,92,0,91,1094.4318013999728,,,,,,,,,,,,,,,,,,,,,,,1094.4151698999922,1094.4318013999728,1094.9170635999762,,,,,,,,,,,,,,,,,,,,,,,1094.9278038999764,1094.950242299994,1094.950242299994,1094.950242299994,1097.9275044000242,shoe,f,1.5588624000083655,0.1194592000101693,1097.9291964999866,1097.929215400014,None,,,,,,,,,,,,,,,00056,001,2026-01-19_10h30.41.083,MST_task,2024.2.0,59.79184067396507,2026-01-19 10h31.14.456227 +0530,
,Objects\159a.jpg,92,0,93,,,,,,,f,1.3894703999976628,0.12093409994849935,None,,,,,,93,0,92,1097.944090200006,,,,,,,,,,,,,,,,,,,,,,,1097.9292868999764,1097.944090200006,1098.4294150000205,,,,,,,,,,,,,,,,,,,,,,,1098.4388285999885,1098.4625381000224,1098.4625381000224,1098.4625381000224,1101.4397263000137,shoe,f,1.3894703999976628,0.12093409994849935,1101.4397825999768,1101.439795000013,None,,,,,,,,,,,,,,,00056,001,2026-01-19_10h30.41.083,MST_task,2024.2.0,59.79184067396507,2026-01-19 10h31.14.456227 +0530,
,Objects\152a.jpg,93,0,94,,,,,,,f,1.7335684999707155,0.12793720001354814,None,,,,,,94,0,93,1101.4565163999796,,,,,,,,,,,,,,,,,,,,,,,1101.4399056999828,1101.4565163999796,1101.941463999974,,,,,,,,,,,,,,,,,,,,,,,1101.9509817999788,1101.9749814000097,1101.9749814000097,1101.9749814000097,1104.9520287999767,shoe,f,1.7335684999707155,0.12793720001354814,1104.952075899986,1104.9520886000246,None,,,,,,,,,,,,,,,00056,001,2026-01-19_10h30.41.083,MST_task,2024.2.0,59.79184067396507,2026-01-19 10h31.14.456227 +0530,
,Objects\285a.jpg,94,0,95,,,,,,,f,1.0289993999758735,0.16076060000341386,None,,,,,,95,0,94,1104.9688095999882,,,,,,,,,,,,,,,,,,,,,,,1104.9521978999837,1104.9688095999882,1105.453787299979,,,,,,,,,,,,,,,,,,,,,,,1105.4637788999826,1105.4872050000122,1105.4872050000122,1105.4872050000122,1108.464449000021,shoe,f,1.0289993999758735,0.16076060000341386,1108.4645006000064,1108.4645126999822,None,,,,,,,,,,,,,,,00056,001,2026-01-19_10h30.41.083,MST_task,2024.2.0,59.79184067396507,2026-01-19 10h31.14.456227 +0530,
,Objects\272a.jpg,95,0,96,,,,,,,f,1.5476601999835111,0.14444380003260449,None,,,,,,96,0,95,1108.480839499971,,,,,,,,,,,,,,,,,,,,,,,1108.464584100002,1108.480839499971,1108.9660453000106,,,,,,,,,,,,,,,,,,,,,,,1108.9822567999945,1109.0000847000047,1109.0000847000047,1109.0000847000047,1111.9764574000146,shoe,f,1.5476601999835111,0.14444380003260449,1111.976499499986,1111.9765113000176,None,,,,,,,,,,,,,,,00056,001,2026-01-19_10h30.41.083,MST_task,2024.2.0,59.79184067396507,2026-01-19 10h31.14.456227 +0530,
,Objects\133a.jpg,96,0,97,,,,,,,f,2.453001099987887,0.11954250000417233,None,,,,,,97,0,96,1111.993244400015,,,,,,,,,,,,,,,,,,,,,,,1111.9766227999935,1111.993244400015,1112.4787851999863,,,,,,,,,,,,,,,,,,,,,,,1112.4961204999709,1112.5116959000006,1112.5116959000006,1112.5116959000006,1115.4890000000014,shoe,f,2.453001099987887,0.11954250000417233,1115.4890450999956,1115.4890570999705,None,,,,,,,,,,,,,,,00056,001,2026-01-19_10h30.41.083,MST_task,2024.2.0,59.79184067396507,2026-01-19 10h31.14.456227 +0530,
,Objects\353a.jpg,97,0,98,,,,,,,f,1.9083506000461057,0.12028549995739013,None,,,,,,98,0,97,1115.5056869999971,,,,,,,,,,,,,,,,,,,,,,,1115.4891253000242,1115.5056869999971,1115.9906494999886,,,,,,,,,,,,,,,,,,,,,,,1116.004098400008,1116.0239827000187,1116.0239827000187,1116.0239827000187,1119.0010807000217,shoe,f,1.9083506000461057,0.12028549995739013,1119.0011284999782,1119.0011418000213,None,,,,,,,,,,,,,,,00056,001,2026-01-19_10h30.41.083,MST_task,2024.2.0,59.79184067396507,2026-01-19 10h31.14.456227 +0530,
,Objects\068a.jpg,98,0,99,,,,,,,j,1.6037364000221714,0.11964170000283048,None,,,,,,99,0,98,1119.0178496000008,,,,,,,,,,,,,,,,,,,,,,,1119.001220599981,1119.0178496000008,1119.5029503999976,,,,,,,,,,,,,,,,,,,,,,,1119.5195982999867,1119.5364497000119,1119.5364497000119,1119.5364497000119,1122.5133443999803,indoor,j,1.6037364000221714,0.11964170000283048,1122.514568099985,1122.5145874000154,None,,,,,,,,,,,,,,,00056,001,2026-01-19_10h30.41.083,MST_task,2024.2.0,59.79184067396507,2026-01-19 10h31.14.456227 +0530,
,Objects\354a.jpg,99,0,100,,,,,,,f,1.7308602000121027,0.12803089997032657,None,,,,,,100,0,99,1122.5306274999748,,,,,,,,,,,,,,,,,,,,,,,1122.5146611999953,1122.5306274999748,1123.0152356000035,,,,,,,,,,,,,,,,,,,,,,,1123.0288430000073,1123.049680199998,1123.049680199998,1123.049680199998,1126.025780499971,indoor,f,1.7308602000121027,0.12803089997032657,1126.0258222999983,1126.025833999971,None,,,,,,,,,,,,,,,00056,001,2026-01-19_10h30.41.083,MST_task,2024.2.0,59.79184067396507,2026-01-19 10h31.14.456227 +0530,
,Objects\307a.jpg,100,0,101,,,,,,,f,1.9481883999542333,0.11168540001381189,None,,,,,,101,0,100,1126.0423210000154,,,,,,,,,,,,,,,,,,,,,,,1126.0259026999702,1126.0423210000154,1126.5275438000099,,,,,,,,,,,,,,,,,,,,,,,1126.5415866000112,1126.5609071999788,1126.5609071999788,1126.5609071999788,1129.5379117000266,indoor,f,1.9481883999542333,0.11168540001381189,1129.5379549000063,1129.537967399985,None,,,,,,,,,,,,,,,00056,001,2026-01-19_10h30.41.083,MST_task,2024.2.0,59.79184067396507,2026-01-19 10h31.14.456227 +0530,
,Objects\270a.jpg,101,0,102,,,,,,,j,1.3467227999935858,0.17644359997939318,None,,,,,,102,0,101,1129.5548984999768,,,,,,,,,,,,,,,,,,,,,,,1129.538625599991,1129.5548984999768,1130.0398251999868,,,,,,,,,,,,,,,,,,,,,,,1130.0535891000181,1130.0732072999817,1130.0732072999817,1130.0732072999817,1133.0504695000127,indoor,j,1.3467227999935858,0.17644359997939318,1133.0505357999937,1133.050550199987,None,,,,,,,,,,,,,,,00056,001,2026-01-19_10h30.41.083,MST_task,2024.2.0,59.79184067396507,2026-01-19 10h31.14.456227 +0530,
,Objects\215a.jpg,102,0,103,,,,,,,f,1.2431765000219457,0.15200199995888397,None,,,,,,103,0,102,1133.06691579998,,,,,,,,,,,,,,,,,,,,,,,1133.050622700015,1133.06691579998,1133.552128500014,,,,,,,,,,,,,,,,,,,,,,,1133.5666910000145,1133.5854227999807,1133.5854227999807,1133.5854227999807,1136.5625185000245,indoor,f,1.2431765000219457,0.15200199995888397,1136.5625594999874,1136.562596499978,None,,,,,,,,,,,,,,,00056,001,2026-01-19_10h30.41.083,MST_task,2024.2.0,59.79184067396507,2026-01-19 10h31.14.456227 +0530,
,Objects\328a.jpg,103,0,104,,,,,,,j,1.9466852999757975,0.13660030002938583,None,,,,,,104,0,103,1136.5794192000176,,,,,,,,,,,,,,,,,,,,,,,1136.5629399999743,1136.5794192000176,1137.0643623999786,,,,,,,,,,,,,,,,,,,,,,,1137.0744413000066,1137.0977790000034,1137.0977790000034,1137.0977790000034,1140.0748185999691,indoor,j,1.9466852999757975,0.13660030002938583,1140.074868900003,1140.0748805999756,None,,,,,,,,,,,,,,,00056,001,2026-01-19_10h30.41.083,MST_task,2024.2.0,59.79184067396507,2026-01-19 10h31.14.456227 +0530,
,Objects\015a.jpg,104,0,105,,,,,,,f,1.3555259000277147,0.14229169994359836,None,,,,,,105,0,104,1140.0916359000257,,,,,,,,,,,,,,,,,,,,,,,1140.0752134000068,1140.0916359000257,1140.576591500023,,,,,,,,,,,,,,,,,,,,,,,1140.5869724000222,1140.6100773999933,1140.6100773999933,1140.6100773999933,1143.5872449000017,indoor,f,1.3555259000277147,0.14229169994359836,1143.5874536000192,1143.5874699999695,None,,,,,,,,,,,,,,,00056,001,2026-01-19_10h30.41.083,MST_task,2024.2.0,59.79184067396507,2026-01-19 10h31.14.456227 +0530,
,Objects\106a.jpg,105,0,106,,,,,,,f,1.6576242999872193,0.1365716999862343,None,,,,,,106,0,105,1143.6038299999782,,,,,,,,,,,,,,,,,,,,,,,1143.5875404999824,1143.6038299999782,1144.0890256999992,,,,,,,,,,,,,,,,,,,,,,,1144.09968569997,1144.1222569000092,1144.1222569000092,1144.1222569000092,1147.099402300024,shoe,f,1.6576242999872193,0.1365716999862343,1147.1012682999717,1147.1012870999984,None,,,,,,,,,,,,,,,00056,001,2026-01-19_10h30.41.083,MST_task,2024.2.0,59.79184067396507,2026-01-19 10h31.14.456227 +0530,
,Objects\247a.jpg,106,0,107,,,,,,,f,1.073385399999097,0.14489180000964552,None,,,,,,107,0,106,1147.1163611999946,,,,,,,,,,,,,,,,,,,,,,,1147.1013961000135,1147.1163611999946,1147.6017328000162,,,,,,,,,,,,,,,,,,,,,,,1147.6159611999756,1147.634678100003,1147.634678100003,1147.634678100003,1150.6118298000074,shoe,f,1.073385399999097,0.14489180000964552,1150.612157399999,1150.6121711999876,None,,,,,1147.634678100003,,,,,,,,,,00056,001,2026-01-19_10h30.41.083,MST_task,2024.2.0,59.79184067396507,2026-01-19 10h31.14.456227 +0530,
,Objects\155a.jpg,107,0,108,,,,,,,f,1.0732255000039004,0.1355850999825634,None,,,,,,108,0,107,1150.628406599979,,,,,,,,,,,,,,,,,,,,,,,1150.6122408999945,1150.628406599979,1151.1136341000092,,,,,,,,,,,,,,,,,,,,,,,1151.1282669000211,1151.14693789999,1151.14693789999,1151.14693789999,1154.124010999978,shoe,f,1.0732255000039004,0.1355850999825634,1154.1240522000007,1154.1240638999734,None,,,,,,,,,,,,,,,00056,001,2026-01-19_10h30.41.083,MST_task,2024.2.0,59.79184067396507,2026-01-19 10h31.14.456227 +0530,
,Objects\196a.jpg,108,0,109,,,,,,,f,1.2411786000011489,0.14409150002757087,None,,,,,,109,0,108,1154.1408323000069,,,,,,,,,,,,,,,,,,,,,,,1154.1241774000227,1154.1408323000069,1154.6258433000185,,,,,,,,,,,,,,,,,,,,,,,1154.6365164999734,1154.6592806000262,1154.6592806000262,1154.6592806000262,1157.6363145000068,shoe,f,1.2411786000011489,0.14409150002757087,1157.6363544000196,1157.6363660999923,None,,,,,,,,,,,,,,,00056,001,2026-01-19_10h30.41.083,MST_task,2024.2.0,59.79184067396507,2026-01-19 10h31.14.456227 +0530,
,Objects\379a.jpg,109,0,110,,,,,,,j,1.168371100036893,0.1367264000000432,None,,,,,,110,0,109,1157.6531314000022,,,,,,,,,,,,,,,,,,,,,,,1157.6364609000157,1157.6531314000022,1158.138248000003,,,,,,,,,,,,,,,,,,,,,,,1158.1481462999946,1158.1715880000265,1158.1715880000265,1158.1715880000265,1161.14872930001,shoe,j,1.168371100036893,0.1367264000000432,1161.1487863999791,1161.148810099985,None,,,,,,,,,,,,,,,00056,001,2026-01-19_10h30.41.083,MST_task,2024.2.0,59.79184067396507,2026-01-19 10h31.14.456227 +0530,
,Objects\284a.jpg,110,0,111,,,,,,,f,1.0488960999646224,0.13547910004854202,None,,,,,,111,0,110,1161.165305099974,,,,,,,,,,,,,,,,,,,,,,,1161.1490032000002,1161.165305099974,1161.650707599998,,,,,,,,,,,,,,,,,,,,,,,1161.6645298000076,1161.6837471000035,1161.6837471000035,1161.6837471000035,1164.660894199973,shoe,f,1.0488960999646224,0.13547910004854202,1164.6609363000025,1164.6609732999932,None,,,,,,,,,,,,,,,00056,001,2026-01-19_10h30.41.083,MST_task,2024.2.0,59.79184067396507,2026-01-19 10h31.14.456227 +0530,
,Objects\273a.jpg,111,0,112,,,,,,,j,1.584093599987682,0.12801390001550317,None,,,,,,112,0,111,1164.6778158000088,,,,,,,,,,,,,,,,,,,,,,,1164.6610558999819,1164.6778158000088,1165.162736999977,,,,,,,,,,,,,,,,,,,,,,,1165.1788242000039,1165.1961793000228,1165.1961793000228,1165.1961793000228,1168.173601699993,shoe,j,1.584093599987682,0.12801390001550317,1168.1736460999819,1168.1736579000135,None,,,,,,,,,,,,,,,00056,001,2026-01-19_10h30.41.083,MST_task,2024.2.0,59.79184067396507,2026-01-19 10h31.14.456227 +0530,
,Objects\361a.jpg,112,0,113,,,,,,,f,1.8159468999947421,0.14398629998322576,None,,,,,,113,0,112,1168.190616899985,,,,,,,,,,,,,,,,,,,,,,,1168.1737319999957,1168.190616899985,1168.6758640999906,,,,,,,,,,,,,,,,,,,,,,,1168.6865497999825,1168.708586200024,1168.708586200024,1168.708586200024,1171.6856454000226,indoor,f,1.8159468999947421,0.14398629998322576,1171.6868560999865,1171.6868736000033,None,,,,,,,,,,,,,,,00056,001,2026-01-19_10h30.41.083,MST_task,2024.2.0,59.79184067396507,2026-01-19 10h31.14.456227 +0530,
,Objects\234a.jpg,113,0,114,,,,,,,j,2.056386799959,0.11085930000990629,None,,,,,,114,0,113,1171.702325100021,,,,,,,,,,,,,,,,,,,,,,,1171.6869445000193,1171.702325100021,1172.1872950000106,,,,,,,,,,,,,,,,,,,,,,,1172.198329899984,1172.2207778000156,1172.2207778000156,1172.2207778000156,1175.1979500000016,indoor,j,2.056386799959,0.11085930000990629,1175.1979969000095,1175.1980092999875,None,,,,,,,,,,,,,,,00056,001,2026-01-19_10h30.41.083,MST_task,2024.2.0,59.79184067396507,2026-01-19 10h31.14.456227 +0530,
,Objects\308a.jpg,114,0,115,,,,,,,f,1.6388450000085868,0.12843550002435222,None,,,,,,115,0,114,1175.2151509000105,,,,,,,,,,,,,,,,,,,,,,,1175.198084099975,1175.2151509000105,1175.6996261000168,,,,,,,,,,,,,,,,,,,,,,,1175.7090275000082,1175.7330741999904,1175.7330741999904,1175.7330741999904,1178.71050809999,indoor,f,1.6388450000085868,0.12843550002435222,1178.7105534999864,1178.710565700021,None,,,,,,,,,,,,,,,00056,001,2026-01-19_10h30.41.083,MST_task,2024.2.0,59.79184067396507,2026-01-19 10h31.14.456227 +0530,
,Objects\250a.jpg,115,0,116,,,,,,,j,2.503404699964449,0.12801240000408143,None,,,,,,116,0,115,1178.7268070999999,,,,,,,,,,,,,,,,,,,,,,,1178.7106374999858,1178.7268070999999,1179.212351299997,,,,,,,,,,,,,,,,,,,,,,,1179.2264272000175,1179.2452557000215,1179.2452557000215,1179.2452557000215,1182.2225754000247,indoor,j,2.503404699964449,0.12801240000408143,1182.2226160999853,1182.2226282000192,None,,,,,,,,,,,,,,,00056,001,2026-01-19_10h30.41.083,MST_task,2024.2.0,59.79184067396507,2026-01-19 10h31.14.456227 +0530,
,Objects\348a.jpg,116,0,117,,,,,,,j,2.101994700031355,0.12836149998474866,None,,,,,,117,0,116,1182.2393940999755,,,,,,,,,,,,,,,,,,,,,,,1182.2226987999748,1182.2393940999755,1182.725420999981,,,,,,,,,,,,,,,,,,,,,,,1182.7391974999919,1182.7578300000168,1182.7578300000168,1182.7578300000168,1185.7350997999893,indoor,j,2.101994700031355,0.12836149998474866,1185.7351630000048,1185.7351747999783,None,,,,,,,,,,,,,,,00056,001,2026-01-19_10h30.41.083,MST_task,2024.2.0,59.79184067396507,2026-01-19 10h31.14.456227 +0530,
,Objects\268a.jpg,117,0,118,,,,,,,f,1.8633838000241667,0.1352379999589175,None,,,,,,118,0,117,1185.7514135999954,,,,,,,,,,,,,,,,,,,,,,,1185.7352504999726,1185.7514135999954,1186.2368665999966,,,,,,,,,,,,,,,,,,,,,,,1186.2500873000245,1186.2698425999843,1186.2698425999843,1186.2698425999843,1189.2470215000212,indoor,f,1.8633838000241667,0.1352379999589175,1189.2470759999705,1189.2470881000045,None,,,,,,,,,,,,,,,00056,001,2026-01-19_10h30.41.083,MST_task,2024.2.0,59.79184067396507,2026-01-19 10h31.14.456227 +0530,
,Objects\330a.jpg,118,0,119,,,,,,,j,1.598371300031431,0.1362440999946557,None,,,,,,119,0,118,1189.2638116999879,,,,,,,,,,,,,,,,,,,,,,,1189.247441900021,1189.2638116999879,1189.7489563999698,,,,,,,,,,,,,,,,,,,,,,,1189.7646330000134,1189.7822675000061,1189.7822675000061,1189.7822675000061,1192.7592948999954,indoor,j,1.598371300031431,0.1362440999946557,1192.7593364000204,1192.7593481999938,None,,,,,,,,,,,,,,,00056,001,2026-01-19_10h30.41.083,MST_task,2024.2.0,59.79184067396507,2026-01-19 10h31.14.456227 +0530,
,Objects\342a.jpg,119,0,120,,,,,,,f,1.397878399991896,0.11998889996903017,None,,,,,,120,0,119,1192.776231100026,,,,,,,,,,,,,,,,,,,,,,,1192.7594179000007,1192.776231100026,1193.2611043999786,,,,,,,,,,,,,,,,,,,,,,,1193.277131800016,1193.2950429000193,1193.2950429000193,1193.2950429000193,1196.2719964999706,shoe,f,1.397878399991896,0.11998889996903017,1196.2738928999752,1196.2739119000034,None,,,,,,,,,,,,,,,00056,001,2026-01-19_10h30.41.083,MST_task,2024.2.0,59.79184067396507,2026-01-19 10h31.14.456227 +0530,
,Objects\185a.jpg,120,0,121,,,,,,,f,1.9584092000150122,0.1432314999983646,None,,,,,,121,0,120,1196.2883025999763,,,,,,,,,,,,,,,,,,,,,,,1196.2739824000164,1196.2883025999763,1196.7737237000256,,,,,,,,,,,,,,,,,,,,,,,1196.7833659999887,1196.8068268999923,1196.8068268999923,1196.8068268999923,1199.7838883000077,shoe,f,1.9584092000150122,0.1432314999983646,1199.7839297999744,1199.7839424000122,None,,,,,1196.8068268999923,,,,,,,,,,00056,001,2026-01-19_10h30.41.083,MST_task,2024.2.0,59.79184067396507,2026-01-19 10h31.14.456227 +0530,
,Objects\222a.jpg,121,0,122,,,,,,,j,1.517510699981358,0.12756990001071244,None,,,,,,122,0,121,1199.8007150000194,,,,,,,,,,,,,,,,,,,,,,,1199.78445430001,1199.8007150000194,1200.285719699983,,,,,,,,,,,,,,,,,,,,,,,1200.3031311000232,1200.3191816000035,1200.3191816000035,1200.3191816000035,1203.296499499993,shoe,j,1.517510699981358,0.12756990001071244,1203.2965416000225,1203.2965536999982,None,,,,,,,,,,,,,,,00056,001,2026-01-19_10h30.41.083,MST_task,2024.2.0,59.79184067396507,2026-01-19 10h31.14.456227 +0530,
,Objects\225a.jpg,122,0,123,,,,,,,f,1.0768051000195555,0.15198989998316392,None,,,,,,123,0,122,1203.3128998000175,,,,,,,,,,,,,,,,,,,,,,,1203.2966233000043,1203.3128998000175,1203.798106000002,,,,,,,,,,,,,,,,,,,,,,,1203.8128227000125,1203.8313348999945,1203.8313348999945,1203.8313348999945,1206.8084948000032,shoe,f,1.0768051000195555,0.15198989998316392,1206.8085367999738,1206.8085489000077,None,,,,,,,,,,,,,,,00056,001,2026-01-19_10h30.41.083,MST_task,2024.2.0,59.79184067396507,2026-01-19 10h31.14.456227 +0530,
,Objects\377a.jpg,123,0,124,,,,,,,j,1.4689069000305608,0.14351889997487888,None,,,,,,124,0,123,1206.8254765999736,,,,,,,,,,,,,,,,,,,,,,,1206.808656100009,1206.8254765999736,1207.3107412999962,,,,,,,,,,,,,,,,,,,,,,,1207.3244938999997,1207.3436411999865,1207.3436411999865,1207.3436411999865,1210.3207785999984,shoe,j,1.4689069000305608,0.14351889997487888,1210.3208321999991,1210.3208440999733,None,,,,,,,,,,,,,,,00056,001,2026-01-19_10h30.41.083,MST_task,2024.2.0,59.79184067396507,2026-01-19 10h31.14.456227 +0530,
,Objects\226a.jpg,124,0,125,,,,,,,f,1.5726665999973193,0.12768350000260398,None,,,,,,125,0,124,1210.3376140000182,,,,,,,,,,,,,,,,,,,,,,,1210.3211024000193,1210.3376140000182,1210.8226393000223,,,,,,,,,,,,,,,,,,,,,,,1210.8385504999897,1210.856053000025,1210.856053000025,1210.856053000025,1213.8334189999732,shoe,f,1.5726665999973193,0.12768350000260398,1213.8334593999898,1213.8334711000207,None,,,,,,,,,,,,,,,00056,001,2026-01-19_10h30.41.083,MST_task,2024.2.0,59.79184067396507,2026-01-19 10h31.14.456227 +0530,
,Objects\350a.jpg,125,0,126,,,,,,,j,1.45189109997591,0.1446960000321269,None,,,,,,126,0,125,1213.849797200004,,,,,,,,,,,,,,,,,,,,,,,1213.8335407000268,1213.849797200004,1214.3350077000214,,,,,,,,,,,,,,,,,,,,,,,1214.3499790999922,1214.3682303000242,1214.3682303000242,1214.3682303000242,1217.3454715000116,shoe,j,1.45189109997591,0.1446960000321269,1217.3455123999738,1217.3455247000093,None,,,,,,,,,,,,,,,00056,001,2026-01-19_10h30.41.083,MST_task,2024.2.0,59.79184067396507,2026-01-19 10h31.14.456227 +0530,
,Objects\369a.jpg,126,0,127,,,,,,,f,1.6591733999666758,0.15199179999763146,None,,,,,,127,0,126,1217.3623813000158,,,,,,,,,,,,,,,,,,,,,,,1217.3455966999754,1217.3623813000158,1217.8471837000106,,,,,,,,,,,,,,,,,,,,,,,1217.864413400006,1217.8806574000046,1217.8806574000046,1217.8806574000046,1220.8579830999952,indoor,f,1.6591733999666758,0.15199179999763146,1220.8592936000205,1220.8593116999837,None,,,,,,,,,,,,,,,00056,001,2026-01-19_10h30.41.083,MST_task,2024.2.0,59.79184067396507,2026-01-19 10h31.14.456227 +0530,
,Objects\186a.jpg,127,0,128,,,,,,,f,2.379186399979517,0.1200372000457719,None,,,,,,128,0,127,1220.8744034999982,,,,,,,,,,,,,,,,,,,,,,,1220.8593934000237,1220.8744034999982,1221.3602835999918,,,,,,,,,,,,,,,,,,,,,,,1221.369879100006,1221.3928387999767,1221.3928387999767,1221.3928387999767,1224.369975699985,indoor,f,2.379186399979517,0.1200372000457719,1224.370017600013,1224.3700292999856,None,,,,,,,,,,,,,,,00056,001,2026-01-19_10h30.41.083,MST_task,2024.2.0,59.79184067396507,2026-01-19 10h31.14.456227 +0530,
,Objects\097a.jpg,128,0,129,,,,,,,j,1.0266138999722898,0.16019329999107867,None,,,,,,129,0,128,1224.3868066999712,,,,,,,,,,,,,,,,,,,,,,,1224.3702891999856,1224.3868066999712,1224.8719254999887,,,,,,,,,,,,,,,,,,,,,,,1224.8813259999733,1224.9051414999994,1224.9051414999994,1224.9051414999994,1227.8827190999873,indoor,j,1.0266138999722898,0.16019329999107867,1227.8827961999923,1227.882809099974,None,,,,,,,,,,,,,,,00056,001,2026-01-19_10h30.41.083,MST_task,2024.2.0,59.79184067396507,2026-01-19 10h31.14.456227 +0530,
,Objects\128a.jpg,129,0,130,,,,,,,f,2.066280300030485,0.11202210001647472,None,,,,,,130,0,129,1227.899412699975,,,,,,,,,,,,,,,,,,,,,,,1227.882888799999,1227.899412699975,1228.384649100015,,,,,,,,,,,,,,,,,,,,,,,1228.3943687999854,1228.418088699982,1228.418088699982,1228.418088699982,1231.39465620002,indoor,f,2.066280300030485,0.11202210001647472,1231.394699700002,1231.3947115999763,None,,,,,,,,,,,,,,,00056,001,2026-01-19_10h30.41.083,MST_task,2024.2.0,59.79184067396507,2026-01-19 10h31.14.456227 +0530,
,Objects\093a.jpg,130,0,131,,,,,,,j,1.2510040000197478,0.12054329999955371,None,,,,,,131,0,130,1231.4119696000125,,,,,,,,,,,,,,,,,,,,,,,1231.394790499995,1231.4119696000125,1231.8965788999922,,,,,,,,,,,,,,,,,,,,,,,1231.907712300017,1231.9299977999763,1231.9299977999763,1231.9299977999763,1234.907143199991,indoor,j,1.2510040000197478,0.12054329999955371,1234.907185100019,1234.907196699991,None,,,,,,,,,,,,,,,00056,001,2026-01-19_10h30.41.083,MST_task,2024.2.0,59.79184067396507,2026-01-19 10h31.14.456227 +0530,
,Objects\210a.jpg,131,0,132,,,,,,,j,1.729898499965202,0.14391720003914088,None,,,,,,132,0,131,1234.9236164999893,,,,,,,,,,,,,,,,,,,,,,,1234.907265499991,1234.9236164999893,1235.4088084999821,,,,,,,,,,,,,,,,,,,,,,,1235.4225731000188,1235.4420312999864,1235.4420312999864,1235.4420312999864,1238.4192380000022,indoor,j,1.729898499965202,0.14391720003914088,1238.4192922000075,1238.4193041999824,None,,,,,,,,,,,,,,,00056,001,2026-01-19_10h30.41.083,MST_task,2024.2.0,59.79184067396507,2026-01-19 10h31.14.456227 +0530,
,Objects\009a.jpg,132,0,133,,,,,,,f,1.2174895000061952,0.12857589998748153,None,,,,,,133,0,132,1238.436012900027,,,,,,,,,,,,,,,,,,,,,,,1238.4193751999992,1238.436012900027,1238.9209633999853,,,,,,,,,,,,,,,,,,,,,,,1238.9367632999783,1238.9544661000255,1238.9544661000255,1238.9544661000255,1241.932104300009,indoor,f,1.2174895000061952,0.12857589998748153,1241.9321521000238,1241.932163999998,None,,,,,,,,,,,,,,,00056,001,2026-01-19_10h30.41.083,MST_task,2024.2.0,59.79184067396507,2026-01-19 10h31.14.456227 +0530,
,Objects\172a.jpg,133,0,134,,,,,,,j,1.1776758999913,0.13653170003090054,None,,,,,,134,0,133,1241.9481878000079,,,,,,,,,,,,,,,,,,,,,,,1241.9322343000094,1241.9481878000079,1242.433217999991,,,,,,,,,,,,,,,,,,,,,,,1242.444851999986,1242.4667461999925,1242.4667461999925,1242.4667461999925,1245.4439520000014,shoe,j,1.1776758999913,0.13653170003090054,1245.445775899978,1245.445795800013,None,,,,,,,,,,,,,,,00056,001,2026-01-19_10h30.41.083,MST_task,2024.2.0,59.79184067396507,2026-01-19 10h31.14.456227 +0530,
,Objects\202a.jpg,134,0,135,,,,,,,f,1.4569612999912351,0.1284748999751173,None,,,,,,135,0,134,1245.4605182000087,,,,,,,,,,,,,,,,,,,,,,,1245.4459118000232,1245.4605182000087,1245.9460846000002,,,,,,,,,,,,,,,,,,,,,,,1245.9609600999975,1245.9789387999917,1245.9789387999917,1245.9789387999917,1248.9560691000079,shoe,f,1.4569612999912351,0.1284748999751173,1248.9561106999754,1248.9561233000131,None,,,,,1245.9789387999917,,,,,,,,,,00056,001,2026-01-19_10h30.41.083,MST_task,2024.2.0,59.79184067396507,2026-01-19 10h31.14.456227 +0530,
,Objects\281a.jpg,135,0,136,,,,,,,f,1.3601648999610916,0.1364307000185363,None,,,,,,136,0,135,1248.9728954000166,,,,,,,,,,,,,,,,,,,,,,,1248.9561925000162,1248.9728954000166,1249.4578634999925,,,,,,,,,,,,,,,,,,,,,,,1249.4729791000136,1249.4915993000031,1249.4915993000031,1249.4915993000031,1252.469190999982,shoe,f,1.3601648999610916,0.1364307000185363,1252.4692414000165,1252.4692542999983,None,,,,,,,,,,,,,,,00056,001,2026-01-19_10h30.41.083,MST_task,2024.2.0,59.79184067396507,2026-01-19 10h31.14.456227 +0530,
,Objects\184a.jpg,136,0,137,,,,,,,j,1.120123100001365,0.1369890000205487,None,,,,,,137,0,136,1252.4850741000264,,,,,,,,,,,,,,,,,,,,,,,1252.469333200017,1252.4850741000264,1252.9703029000084,,,,,,,,,,,,,,,,,,,,,,,1252.9847968000104,1253.0036591999815,1253.0036591999815,1253.0036591999815,1255.9807957999874,shoe,j,1.120123100001365,0.1369890000205487,1255.9808444000082,1255.9808592000045,None,,,,,,,,,,,,,,,00056,001,2026-01-19_10h30.41.083,MST_task,2024.2.0,59.79184067396507,2026-01-19 10h31.14.456227 +0530,
,Objects\251a.jpg,137,0,138,,,,,,,f,1.1364847000222653,0.12027349998243153,None,,,,,,138,0,137,1255.9975049999775,,,,,,,,,,,,,,,,,,,,,,,1255.980969999975,1255.9975049999775,1256.482477499987,,,,,,,,,,,,,,,,,,,,,,,1256.495535199996,1256.515882399981,1256.515882399981,1256.515882399981,1259.4930975000025,shoe,f,1.1364847000222653,0.12027349998243153,1259.493152400013,1259.4931645999895,None,,,,,,,,,,,,,,,00056,001,2026-01-19_10h30.41.083,MST_task,2024.2.0,59.79184067396507,2026-01-19 10h31.14.456227 +0530,
,Objects\239a.jpg,138,0,139,,,,,,,f,1.3922559000202455,0.15228559996467084,None,,,,,,139,0,138,1259.5098023000173,,,,,,,,,,,,,,,,,,,,,,,1259.4934957000078,1259.5098023000173,1259.994783799979,,,,,,,,,,,,,,,,,,,,,,,1260.0095458999858,1260.0282431999804,1260.0282431999804,1260.0282431999804,1263.005392400024,shoe,f,1.3922559000202455,0.15228559996467084,1263.0055925999768,1263.0056052000145,None,,,,,,,,,,,,,,,00056,001,2026-01-19_10h30.41.083,MST_task,2024.2.0,59.79184067396507,2026-01-19 10h31.14.456227 +0530,
,Objects\077a.jpg,139,0,140,,,,,,,j,1.1202757999999449,0.16808699996909127,None,,,,,,140,0,139,1263.0221089000115,,,,,,,,,,,,,,,,,,,,,,,1263.0056773999822,1263.0221089000115,1263.5071995999897,,,,,,,,,,,,,,,,,,,,,,,1263.5226079999702,1263.5404288999853,1263.5404288999853,1263.5404288999853,1266.517835000006,shoe,j,1.1202757999999449,0.16808699996909127,1266.5178761999705,1266.517888100003,None,,,,,,,,,,,,,,,00056,001,2026-01-19_10h30.41.083,MST_task,2024.2.0,59.79184067396507,2026-01-19 10h31.14.456227 +0530,
,Objects\178a.jpg,140,0,141,,,,,,,j,1.4796987000154331,0.11095930001465604,None,,,,,,141,0,140,1266.5346016000258,,,,,,,,,,,,,,,,,,,,,,,1266.517993299989,1266.5346016000258,1267.019580699969,,,,,,,,,,,,,,,,,,,,,,,1267.0305196000263,1267.0531022999785,1267.0531022999785,1267.0531022999785,1270.0299954999937,indoor,j,1.4796987000154331,0.11095930001465604,1270.0313110999996,1270.031329600024,None,,,,,,,,,,,,,,,00056,001,2026-01-19_10h30.41.083,MST_task,2024.2.0,59.79184067396507,2026-01-19 10h31.14.456227 +0530,
,Objects\187a.jpg,141,0,142,,,,,,,f,1.2562584999832325,0.11110109998844564,None,,,,,,142,0,141,1270.046700100007,,,,,,,,,,,,,,,,,,,,,,,1270.0313996999757,1270.046700100007,1270.5317911999882,,,,,,,,,,,,,,,,,,,,,,,1270.541071499989,1270.56503529998,1270.56503529998,1270.56503529998,1273.5422748000128,indoor,f,1.2562584999832325,0.11110109998844564,1273.5423280000105,1273.5423396999831,None,,,,,,,,,,,,,,,00056,001,2026-01-19_10h30.41.083,MST_task,2024.2.0,59.79184067396507,2026-01-19 10h31.14.456227 +0530,
,Objects\030a.jpg,142,0,143,,,,,,,f,1.0630453000194393,0.12833469995530322,None,,,,,,143,0,142,1273.5589938000194,,,,,,,,,,,,,,,,,,,,,,,1273.5424075999763,1273.5589938000194,1274.0439977999777,,,,,,,,,,,,,,,,,,,,,,,1274.0539356999798,1274.0775936999707,1274.0775936999707,1274.0775936999707,1277.0545011999784,indoor,f,1.0630453000194393,0.12833469995530322,1277.0545566999936,1277.054569299973,None,,,,,,,,,,,,,,,00056,001,2026-01-19_10h30.41.083,MST_task,2024.2.0,59.79184067396507,2026-01-19 10h31.14.456227 +0530,
,Objects\345a.jpg,143,0,144,,,,,,,f,1.2468286999501288,0.15216090000467375,None,,,,,,144,0,143,1277.0713702000212,,,,,,,,,,,,,,,,,,,,,,,1277.054786599998,1277.0713702000212,1277.556252499984,,,,,,,,,,,,,,,,,,,,,,,1277.5658913999796,1277.5897318000207,1277.5897318000207,1277.5897318000207,1280.5668676000205,indoor,f,1.2468286999501288,0.15216090000467375,1280.5670617999858,1280.5671001999872,None,,,,,,,,,,,,,,,00056,001,2026-01-19_10h30.41.083,MST_task,2024.2.0,59.79184067396507,2026-01-19 10h31.14.456227 +0530,
,Objects\140a.jpg,144,0,145,,,,,,,f,2.3661324999993667,0.10368269996251911,None,,,,,,145,0,144,1280.5834728999762,,,,,,,,,,,,,,,,,,,,,,,1280.56717330002,1280.5834728999762,1281.0688666999922,,,,,,,,,,,,,,,,,,,,,,,1281.0781461999868,1281.1019238000154,1281.1019238000154,1281.1019238000154,1284.0790752000175,indoor,f,2.3661324999993667,0.10368269996251911,1284.0791529999697,1284.0791672000196,None,,,,,,,,,,,,,,,00056,001,2026-01-19_10h30.41.083,MST_task,2024.2.0,59.79184067396507,2026-01-19 10h31.14.456227 +0530,
,Objects\182a.jpg,145,0,146,,,,,,,f,2.463173200027086,0.1272874999558553,None,,,,,,146,0,145,1284.0958939999691,,,,,,,,,,,,,,,,,,,,,,,1284.0792419000063,1284.0958939999691,1284.5808570000227,,,,,,,,,,,,,,,,,,,,,,,1284.590402700007,1284.6143394000246,1284.6143394000246,1284.6143394000246,1287.5914829000249,indoor,f,2.463173200027086,0.1272874999558553,1287.5915236999863,1287.591535500018,None,,,,,,,,,,,,,,,00056,001,2026-01-19_10h30.41.083,MST_task,2024.2.0,59.79184067396507,2026-01-19 10h31.14.456227 +0530,
,Objects\211a.jpg,146,0,147,,,,,,,j,1.5897432999918237,0.1438709999783896,None,,,,,,147,0,146,1287.6080704000196,,,,,,,,,,,,,,,,,,,,,,,1287.591605100024,1287.6080704000196,1288.0932848000084,,,,,,,,,,,,,,,,,,,,,,,1288.1073331999942,1288.1265064000036,1288.1265064000036,1288.1265064000036,1291.1036671000184,indoor,j,1.5897432999918237,0.1438709999783896,1291.1037217999692,1291.103734000004,None,,,,,,,,,,,,,,,00056,001,2026-01-19_10h30.41.083,MST_task,2024.2.0,59.79184067396507,2026-01-19 10h31.14.456227 +0530,
,Objects\218a.jpg,147,0,148,,,,,,,j,1.5414440000313334,0.14423340000212193,None,,,,,,148,0,147,1291.120490100002,,,,,,,,,,,,,,,,,,,,,,,1291.1041835999931,1291.120490100002,1291.6054613000015,,,,,,,,,,,,,,,,,,,,,,,1291.6182618999737,1291.6389407999814,1291.6389407999814,1291.6389407999814,1294.615965600009,shoe,j,1.5414440000313334,0.14423340000212193,1294.6174326000037,1294.6174509999692,None,,,,,,,,,,,,,,,00056,001,2026-01-19_10h30.41.083,MST_task,2024.2.0,59.79184067396507,2026-01-19 10h31.14.456227 +0530,
,Objects\232a.jpg,148,0,149,,,,,,,f,0.9421306999865919,0.11050080001587048,None,,,,,,149,0,148,1294.632802899985,,,,,,,,,,,,,,,,,,,,,,,1294.6180558999768,1294.632802899985,1295.118165199994,,,,,,,,,,,,,,,,,,,,,,,1295.134596000018,1295.1512399999774,1295.1512399999774,1295.1512399999774,1298.1286260000197,shoe,f,0.9421306999865919,0.11050080001587048,1298.128673099971,1298.1286867000163,None,,,,,1295.1512399999774,,,,,,,,,,00056,001,2026-01-19_10h30.41.083,MST_task,2024.2.0,59.79184067396507,2026-01-19 10h31.14.456227 +0530,
,Objects\304a.jpg,149,0,150,,,,,,,f,1.79724189999979,0.13619690004270524,None,,,,,,150,0,149,1298.1450624999707,,,,,,,,,,,,,,,,,,,,,,,1298.1287625000114,1298.1450624999707,1298.6305785999866,,,,,,,,,,,,,,,,,,,,,,,1298.6457770999987,1298.6634074000176,1298.6634074000176,1298.6634074000176,1301.6405779999914,shoe,f,1.79724189999979,0.13619690004270524,1301.640632900002,1301.6406445999746,None,,,,,,,,,,,,,,,00056,001,2026-01-19_10h30.41.083,MST_task,2024.2.0,59.79184067396507,2026-01-19 10h31.14.456227 +0530,
,Objects\094a.jpg,150,0,151,,,,,,,f,1.8042355999932624,0.10443580005085096,None,,,,,,151,0,150,1301.657383200014,,,,,,,,,,,,,,,,,,,,,,,1301.6410284999874,1301.657383200014,1302.1423442999949,,,,,,,,,,,,,,,,,,,,,,,1302.157651400019,1302.1758368000155,1302.1758368000155,1302.1758368000155,1305.1529800000135,shoe,f,1.8042355999932624,0.10443580005085096,1305.153020299971,1305.1530319000012,None,,,,,,,,,,,,,,,00056,001,2026-01-19_10h30.41.083,MST_task,2024.2.0,59.79184067396507,2026-01-19 10h31.14.456227 +0530,
,Objects\337a.jpg,151,0,152,,,,,,,f,1.3313008999684826,0.11359940003603697,None,,,,,,152,0,151,1305.169574200001,,,,,,,,,,,,,,,,,,,,,,,1305.1531369999866,1305.169574200001,1305.6548961999943,,,,,,,,,,,,,,,,,,,,,,,1305.6713386999909,1305.6883750999696,1305.6883750999696,1305.6883750999696,1308.6653657999705,shoe,f,1.3313008999684826,0.11359940003603697,1308.6654182000202,1308.6654296999914,None,,,,,,,,,,,,,,,00056,001,2026-01-19_10h30.41.083,MST_task,2024.2.0,59.79184067396507,2026-01-19 10h31.14.456227 +0530,
,Objects\123a.jpg,152,0,153,,,,,,,j,1.787804799969308,0.1444053000304848,None,,,,,,153,0,152,1308.6819785999833,,,,,,,,,,,,,,,,,,,,,,,1308.6655073000002,1308.6819785999833,1309.1669700000202,,,,,,,,,,,,,,,,,,,,,,,1309.1815932000172,1309.2004307999741,1309.2004307999741,1309.2004307999741,1312.1774731000187,shoe,j,1.787804799969308,0.1444053000304848,1312.177528399974,1312.1775404000073,None,,,,,,,,,,,,,,,00056,001,2026-01-19_10h30.41.083,MST_task,2024.2.0,59.79184067396507,2026-01-19 10h31.14.456227 +0530,
,Objects\166a.jpg,153,0,154,,,,,,,f,1.7476726000313647,0.12051430001156405,None,,,,,,154,0,153,1312.1944986999733,,,,,,,,,,,,,,,,,,,,,,,1312.1779971999931,1312.1944986999733,1312.6792980000027,,,,,,,,,,,,,,,,,,,,,,,1312.6896375999786,1312.7127228999743,1312.7127228999743,1312.7127228999743,1315.6901569999754,shoe,f,1.7476726000313647,0.12051430001156405,1315.690472199989,1315.690484300023,None,,,,,,,,,,,,,,,00056,001,2026-01-19_10h30.41.083,MST_task,2024.2.0,59.79184067396507,2026-01-19 10h31.14.456227 +0530,
,Objects\167a.jpg,154,0,155,,,,,,,f,1.771524399984628,0.15185660001588985,None,,,,,,155,0,154,1315.7070550000062,,,,,,,,,,,,,,,,,,,,,,,1315.690607000026,1315.7070550000062,1316.1916813999997,,,,,,,,,,,,,,,,,,,,,,,1316.2026186999865,1316.2249021999887,1316.2249021999887,1316.2249021999887,1319.202042800025,indoor,f,1.771524399984628,0.15185660001588985,1319.2040753000183,1319.2040966000059,None,,,,,,,,,,,,,,,00056,001,2026-01-19_10h30.41.083,MST_task,2024.2.0,59.79184067396507,2026-01-19 10h31.14.456227 +0530,
,Objects\146a.jpg,155,0,156,,,,,,,f,1.898378000012599,0.12810209998860955,None,,,,,,156,0,155,1319.2188838999718,,,,,,,,,,,,,,,,,,,,,,,1319.2041672000196,1319.2188838999718,1319.704029400018,,,,,,,,,,,,,,,,,,,,,,,1319.7137281000032,1319.737326500006,1319.737326500006,1319.737326500006,1322.7145034999703,indoor,f,1.898378000012599,0.12810209998860955,1322.7145467000082,1322.7145603999961,None,,,,,1319.737326500006,,,,,,,,,,00056,001,2026-01-19_10h30.41.083,MST_task,2024.2.0,59.79184067396507,2026-01-19 10h31.14.456227 +0530,
,Objects\259a.jpg,156,0,157,,,,,,,j,1.123157199996058,0.143217500008177,None,,,,,,157,0,156,1322.7310746000148,,,,,,,,,,,,,,,,,,,,,,,1322.7146352999844,1322.7310746000148,1323.2162830000161,,,,,,,,,,,,,,,,,,,,,,,1323.234619499999,1323.249586299993,1323.249586299993,1323.249586299993,1326.2266670999816,indoor,j,1.123157199996058,0.143217500008177,1326.226712499978,1326.2267245000112,None,,,,,,,,,,,,,,,00056,001,2026-01-19_10h30.41.083,MST_task,2024.2.0,59.79184067396507,2026-01-19 10h31.14.456227 +0530,
,Objects\310a.jpg,157,0,158,,,,,,,j,1.1547901000012644,0.1513279000064358,None,,,,,,158,0,157,1326.2434808000107,,,,,,,,,,,,,,,,,,,,,,,1326.2268408000236,1326.2434808000107,1326.7284618999693,,,,,,,,,,,,,,,,,,,,,,,1326.7432309999713,1326.7619267000118,1326.7619267000118,1326.7619267000118,1329.7389737999765,indoor,j,1.1547901000012644,0.1513279000064358,1329.7390292999917,1329.7390415000264,None,,,,,,,,,,,,,,,00056,001,2026-01-19_10h30.41.083,MST_task,2024.2.0,59.79184067396507,2026-01-19 10h31.14.456227 +0530,
,Objects\064a.jpg,158,0,159,,,,,,,j,1.3060725000104867,0.13713370001642033,None,,,,,,159,0,158,1329.7557744000223,,,,,,,,,,,,,,,,,,,,,,,1329.7392769000144,1329.7557744000223,1330.2409531999729,,,,,,,,,,,,,,,,,,,,,,,1330.2551244000206,1330.2742371999775,1330.2742371999775,1330.2742371999775,1333.2513586999848,indoor,j,1.3060725000104867,0.13713370001642033,1333.251543899998,1333.2515570999822,None,,,,,,,,,,,,,,,00056,001,2026-01-19_10h30.41.083,MST_task,2024.2.0,59.79184067396507,2026-01-19 10h31.14.456227 +0530,
,Objects\138a.jpg,159,0,160,,,,,,,j,1.0185263000312261,0.1275143999955617,None,,,,,,160,0,159,1333.2679574000067,,,,,,,,,,,,,,,,,,,,,,,1333.2516311000218,1333.2679574000067,1333.7531793999951,,,,,,,,,,,,,,,,,,,,,,,1333.762954899983,1333.786397000018,1333.786397000018,1333.786397000018,1336.763554300007,indoor,j,1.0185263000312261,0.1275143999955617,1336.7635951999691,1336.763610300026,None,,,,,,,,,,,,,,,00056,001,2026-01-19_10h30.41.083,MST_task,2024.2.0,59.79184067396507,2026-01-19 10h31.14.456227 +0530,
,Objects\269a.jpg,160,0,161,,,,,,,f,2.1693048999877647,0.12006919999839738,None,,,,,,161,0,160,1336.7803768999875,,,,,,,,,,,,,,,,,,,,,,,1336.7636805999791,1336.7803768999875,1337.265342300001,,,,,,,,,,,,,,,,,,,,,,,1337.2798517000047,1337.2988148999866,1337.2988148999866,1337.2988148999866,1340.2762917000218,indoor,f,2.1693048999877647,0.12006919999839738,1340.276332199981,1340.2763435000088,None,,,,,,,,,,,,,,,00056,001,2026-01-19_10h30.41.083,MST_task,2024.2.0,59.79184067396507,2026-01-19 10h31.14.456227 +0530,
,Objects\025a.jpg,161,0,162,,,,,,,j,1.5212134000030346,0.10376590001396835,None,,,,,,162,0,161,1340.292553999985,,,,,,,,,,,,,,,,,,,,,,,1340.2764103999943,1340.292553999985,1340.777751000016,,,,,,,,,,,,,,,,,,,,,,,1340.794993699994,1340.8109929999919,1340.8109929999919,1340.8109929999919,1343.788211099978,shoe,j,1.5212134000030346,0.10376590001396835,1343.7899996999768,1343.7900209000218,None,,,,,,,,,,,,,,,00056,001,2026-01-19_10h30.41.083,MST_task,2024.2.0,59.79184067396507,2026-01-19 10h31.14.456227 +0530,
,Objects\306a.jpg,162,0,163,,,,,,,f,1.0724617000087164,0.12005580001277849,None,,,,,,163,0,162,1343.8050931000034,,,,,,,,,,,,,,,,,,,,,,,1343.7901293999748,1343.8050931000034,1344.290269899997,,,,,,,,,,,,,,,,,,,,,,,1344.3047704999917,1344.323413999984,1344.323413999984,1344.323413999984,1347.300422500004,shoe,f,1.0724617000087164,0.12005580001277849,1347.3004810999846,1347.3004942000262,None,,,,,1344.323413999984,,,,,,,,,,00056,001,2026-01-19_10h30.41.083,MST_task,2024.2.0,59.79184067396507,2026-01-19 10h31.14.456227 +0530,
,Objects\265a.jpg,163,0,164,,,,,,,j,1.121317499957513,0.12720610003452748,None,,,,,,164,0,163,1347.3172949000145,,,,,,,,,,,,,,,,,,,,,,,1347.3007681000163,1347.3172949000145,1347.8022473999881,,,,,,,,,,,,,,,,,,,,,,,1347.8171464999905,1347.835711200023,1347.835711200023,1347.835711200023,1350.8128537000157,shoe,j,1.121317499957513,0.12720610003452748,1350.813049999997,1350.8130659000017,None,,,,,,,,,,,,,,,00056,001,2026-01-19_10h30.41.083,MST_task,2024.2.0,59.79184067396507,2026-01-19 10h31.14.456227 +0530,
,Objects\145a.jpg,164,0,165,,,,,,,f,0.8169744000188075,0.14367940003285185,None,,,,,,165,0,164,1350.8295545,,,,,,,,,,,,,,,,,,,,,,,1350.813134600001,1350.8295545,1351.3146474999958,,,,,,,,,,,,,,,,,,,,,,,1351.3294038000167,1351.347896500025,1351.347896500025,1351.347896500025,1354.3250291000004,shoe,f,0.8169744000188075,0.14367940003285185,1354.3250824999996,1354.3250948999776,None,,,,,,,,,,,,,,,00056,001,2026-01-19_10h30.41.083,MST_task,2024.2.0,59.79184067396507,2026-01-19 10h31.14.456227 +0530,
,Objects\326a.jpg,165,0,166,,,,,,,f,1.6800328000099398,0.12746539997169748,None,,,,,,166,0,165,1354.3418807999697,,,,,,,,,,,,,,,,,,,,,,,1354.32534879999,1354.3418807999697,1354.826855899999,,,,,,,,,,,,,,,,,,,,,,,1354.8394114000257,1354.8603095000144,1354.8603095000144,1354.8603095000144,1357.837853199977,shoe,f,1.6800328000099398,0.12746539997169748,1357.8378942999989,1357.8379066999769,None,,,,,,,,,,,,,,,00056,001,2026-01-19_10h30.41.083,MST_task,2024.2.0,59.79184067396507,2026-01-19 10h31.14.456227 +0530,
,Objects\325a.jpg,166,0,167,,,,,,,f,1.5193854000535794,0.1441752999671735,None,,,,,,167,0,166,1357.8541837999946,,,,,,,,,,,,,,,,,,,,,,,1357.837990399974,1357.8541837999946,1358.3391545999912,,,,,,,,,,,,,,,,,,,,,,,1358.353964000009,1358.3726115999743,1358.3726115999743,1358.3726115999743,1361.3497466000263,shoe,f,1.5193854000535794,0.1441752999671735,1361.3499501000042,1361.349963399989,None,,,,,,,,,,,,,,,00056,001,2026-01-19_10h30.41.083,MST_task,2024.2.0,59.79184067396507,2026-01-19 10h31.14.456227 +0530,
,Objects\372a.jpg,167,0,168,,,,,,,j,1.4396501000155695,0.11189180001383647,None,,,,,,168,0,167,1361.3663436999777,,,,,,,,,,,,,,,,,,,,,,,1361.3500358000165,1361.3663436999777,1361.8517515999847,,,,,,,,,,,,,,,,,,,,,,,1361.8685884000151,1361.8848195999744,1361.8848195999744,1361.8848195999744,1364.8622346000047,shoe,j,1.4396501000155695,0.11189180001383647,1364.8622910999693,1364.8623028000002,None,,,,,,,,,,,,,,,00056,001,2026-01-19_10h30.41.083,MST_task,2024.2.0,59.79184067396507,2026-01-19 10h31.14.456227 +0530,
,Objects\084a.jpg,168,0,169,,,,,,,f,1.4629674999741837,0.13614900002721697,None,,,,,,169,0,168,1364.8786343000247,,,,,,,,,,,,,,,,,,,,,,,1364.86237420002,1364.8786343000247,1365.3639482000144,,,,,,,,,,,,,,,,,,,,,,,1365.380061600008,1365.3970881999703,1365.3970881999703,1365.3970881999703,1368.3742297000135,indoor,f,1.4629674999741837,0.13614900002721697,1368.3755373000167,1368.3755564999883,None,,,,,,,,,,,,,,,00056,001,2026-01-19_10h30.41.083,MST_task,2024.2.0,59.79184067396507,2026-01-19 10h31.14.456227 +0530,
,Objects\020a.jpg,169,0,170,,,,,,,f,2.2869782999623567,0.14429100003326312,None,,,,,,170,0,169,1368.3910719000269,,,,,,,,,,,,,,,,,,,,,,,1368.3756281000096,1368.3910719000269,1368.8760720000137,,,,,,,,,,,,,,,,,,,,,,,1368.885375200014,1368.9095081000123,1368.9095081000123,1368.9095081000123,1371.8866687000263,indoor,f,2.2869782999623567,0.14429100003326312,1371.8867121000076,1371.886723899981,None,,,,,,,,,,,,,,,00056,001,2026-01-19_10h30.41.083,MST_task,2024.2.0,59.79184067396507,2026-01-19 10h31.14.456227 +0530,
,Objects\029a.jpg,170,0,171,,,,,,,f,1.6867701000301167,0.1357401999994181,None,,,,,,171,0,170,1371.903245399997,,,,,,,,,,,,,,,,,,,,,,,1371.8867949999985,1371.903245399997,1372.3884394000052,,,,,,,,,,,,,,,,,,,,,,,1372.3981571000186,1372.4216887999792,1372.4216887999792,1372.4216887999792,1375.3988269999973,indoor,f,1.6867701000301167,0.1357401999994181,1375.398888900003,1375.3989007999771,None,,,,,,,,,,,,,,,00056,001,2026-01-19_10h30.41.083,MST_task,2024.2.0,59.79184067396507,2026-01-19 10h31.14.456227 +0530,
,Objects\315a.jpg,171,0,172,,,,,,,f,2.2707754999864846,0.11906019999878481,None,,,,,,172,0,171,1375.4156672999961,,,,,,,,,,,,,,,,,,,,,,,1375.3991207000217,1375.4156672999961,1375.900895299972,,,,,,,,,,,,,,,,,,,,,,,1375.9159711999819,1375.934111999988,1375.934111999988,1375.934111999988,1378.9112483999925,indoor,f,2.2707754999864846,0.11906019999878481,1378.9115621999954,1378.9115744999726,None,,,,,,,,,,,,,,,00056,001,2026-01-19_10h30.41.083,MST_task,2024.2.0,59.79184067396507,2026-01-19 10h31.14.456227 +0530,
,Objects\183a.jpg,172,0,173,,,,,,,f,1.1658740999992006,0.12775360001251101,None,,,,,,173,0,172,1378.9279807999847,,,,,,,,,,,,,,,,,,,,,,,1378.911642800027,1378.9279807999847,1379.4130546000088,,,,,,,,,,,,,,,,,,,,,,,1379.4277380999993,1379.446397199994,1379.446397199994,1379.446397199994,1382.4237498000148,indoor,f,1.1658740999992006,0.12775360001251101,1382.423794500006,1382.4238066999824,None,,,,,,,,,,,,,,,00056,001,2026-01-19_10h30.41.083,MST_task,2024.2.0,59.79184067396507,2026-01-19 10h31.14.456227 +0530,
,Objects\343a.jpg,173,0,174,,,,,,,f,2.1269956000032835,0.11933780001709238,None,,,,,,174,0,173,1382.440138200007,,,,,,,,,,,,,,,,,,,,,,,1382.423877299996,1382.440138200007,1382.9253497999744,,,,,,,,,,,,,,,,,,,,,,,1382.9383885000134,1382.9585769000114,1382.9585769000114,1382.9585769000114,1385.9357372000231,indoor,f,2.1269956000032835,0.11933780001709238,1385.9357788999914,1385.9357908000238,None,,,,,,,,,,,,,,,00056,001,2026-01-19_10h30.41.083,MST_task,2024.2.0,59.79184067396507,2026-01-19 10h31.14.456227 +0530,
,Objects\260a.jpg,174,0,175,,,,,,,f,1.558076799963601,0.09607030003098771,None,,,,,,175,0,174,1385.9525561999762,,,,,,,,,,,,,,,,,,,,,,,1385.9360059999744,1385.9525561999762,1386.4375680999947,,,,,,,,,,,,,,,,,,,,,,,1386.4518067999743,1386.4710057000048,1386.4710057000048,1386.4710057000048,1389.4482824999723,indoor,f,1.558076799963601,0.09607030003098771,1389.4483481000061,1389.4483597999788,None,,,,,,,,,,,,,,,00056,001,2026-01-19_10h30.41.083,MST_task,2024.2.0,59.79184067396507,2026-01-19 10h31.14.456227 +0530,
,Objects\235a.jpg,175,0,176,,,,,,,f,2.708608499960974,0.11994880001293495,None,,,,,,176,0,175,1389.4647305000108,,,,,,,,,,,,,,,,,,,,,,,1389.4484298999887,1389.4647305000108,1389.9499590999912,,,,,,,,,,,,,,,,,,,,,,,1389.9660741999978,1389.9831758000073,1389.9831758000073,1389.9831758000073,1392.9603535999777,shoe,f,2.708608499960974,0.11994880001293495,1392.9625797999906,1392.9625995000242,None,,,,,,,,,,,,,,,00056,001,2026-01-19_10h30.41.083,MST_task,2024.2.0,59.79184067396507,2026-01-19 10h31.14.456227 +0530,
,Objects\045a.jpg,176,0,177,,,,,,,j,1.4459688999922946,0.1259264000109397,None,,,,,,177,0,176,1392.9771651999908,,,,,,,,,,,,,,,,,,,,,,,1392.9626692999736,1392.9771651999908,1393.4624862999772,,,,,,,,,,,,,,,,,,,,,,,1393.4771690000198,1393.4958592000185,1393.4958592000185,1393.4958592000185,1396.4729277999722,shoe,j,1.4459688999922946,0.1259264000109397,1396.4729804000235,1396.472993400006,None,,,,,1393.4958592000185,,,,,,,,,,00056,001,2026-01-19_10h30.41.083,MST_task,2024.2.0,59.79184067396507,2026-01-19 10h31.14.456227 +0530,
,Objects\116a.jpg,177,0,178,,,,,,,f,0.9642366000334732,0.14359250001143664,None,,,,,,178,0,177,1396.4893469000235,,,,,,,,,,,,,,,,,,,,,,,1396.4731003000052,1396.4893469000235,1396.9745550000225,,,,,,,,,,,,,,,,,,,,,,,1396.9843072000076,1397.0077869999805,1397.0077869999805,1397.0077869999805,1399.985045999987,shoe,f,0.9642366000334732,0.14359250001143664,1399.9852329000132,1399.9852458999958,None,,,,,,,,,,,,,,,00056,001,2026-01-19_10h30.41.083,MST_task,2024.2.0,59.79184067396507,2026-01-19 10h31.14.456227 +0530,
,Objects\022a.jpg,178,0,179,,,,,,,f,1.9643277000286616,0.11999519995879382,None,,,,,,179,0,178,1400.001637600013,,,,,,,,,,,,,,,,,,,,,,,1399.9853686999995,1400.001637600013,1400.4868543000193,,,,,,,,,,,,,,,,,,,,,,,1400.4965330999694,1400.5200812999974,1400.5200812999974,1400.5200812999974,1403.497339900001,shoe,f,1.9643277000286616,0.11999519995879382,1403.4973796000122,1403.4974172000075,None,,,,,,,,,,,,,,,00056,001,2026-01-19_10h30.41.083,MST_task,2024.2.0,59.79184067396507,2026-01-19 10h31.14.456227 +0530,
,Objects\036a.jpg,179,0,180,,,,,,,f,1.563727100030519,0.1283107999479398,None,,,,,,180,0,179,1403.5140597000136,,,,,,,,,,,,,,,,,,,,,,,1403.4976447999943,1403.5140597000136,1403.9990351999877,,,,,,,,,,,,,,,,,,,,,,,1404.008972199983,1404.0324881999986,1404.0324881999986,1404.0324881999986,1407.0096343000187,shoe,f,1.563727100030519,0.1283107999479398,1407.0096744999755,1407.0096866000094,None,,,,,,,,,,,,,,,00056,001,2026-01-19_10h30.41.083,MST_task,2024.2.0,59.79184067396507,2026-01-19 10h31.14.456227 +0530,
