Sl_no,image_path,thisN,thisTrialN,thisRepN,key_resp_5.keys,key_resp_7.keys,key_resp_7.rt,key_resp_7.duration,key_resp_5.rt,key_resp_5.duration,key_resp_9.keys,key_resp_9.rt,key_resp_9.duration,key_resp_8.keys,key_resp_8.rt,key_resp_8.duration,practice.thisRepN,practice.thisTrialN,practice.thisN,trials.thisRepN,trials.thisTrialN,trials.thisN,thisRow.t,notes,welcome_page.started,text.started,key_resp.started,welcome_page.stopped,key_resp.keys,key_resp.rt,key_resp.duration,instructions.started,ins.started,key_resp_2.started,instructions.stopped,key_resp_2.keys,key_resp_2.rt,key_resp_2.duration,objects_only_instruction.started,text_3.started,key_resp_3.started,objects_only_instruction.stopped,key_resp_3.keys,key_resp_3.rt,key_resp_3.duration,ISI.started,text_4.started,ISI.stopped,practice_block.started,image.started,key_resp_5.started,text_5.started,practice_block.stopped,practice.key_resp_5.keys,indoor_outdoor.started,text_7.started,key_resp_7.started,indoor_outdoor.stopped,practice.key_resp_7.keys,practice.key_resp_7.rt,practice.key_resp_7.duration,text_4.stopped,image.stopped,key_resp_5.stopped,text_5.stopped,practice.key_resp_5.rt,practice.key_resp_5.duration,practice_to_main.started,text_2.started,key_resp_4.started,practice_to_main.stopped,key_resp_4.keys,key_resp_4.rt,key_resp_4.duration,objects.started,image_2.started,text_9.started,key_resp_9.started,image_2.stopped,text_9.stopped,key_resp_9.stopped,objects.stopped,category,trials.key_resp_9.keys,trials.key_resp_9.rt,trials.key_resp_9.duration,encoding_task.started,encoding_task.stopped,trials.key_resp_8.keys,text_8.started,key_resp_8.started,trials.key_resp_8.rt,trials.key_resp_8.duration,end_experiment.started,text_6.started,key_resp_6.started,end_experiment.stopped,key_resp_6.keys,key_resp_6.rt,key_resp_6.duration,list_of_stimuli,encoding_task_accuracy,participant,session,date,expName,psychopyVersion,frameRate,expStart,
,,,,,,,,,,,,,,,,,,,,,,,,,0.0016530999992028228,0.0056887999999162275,0.0056887999999162275,1921.5408711,space,1921.5198910999998,None,,,,,,,,,,,,,,,,,,,,,,,,,,,,,,,,,,,,,,,,,,,,,,,,,,,,,,,,,,,,,,,,,,,,,,,,00052,001,2026-01-18_17h28.15.143,MST_task,2024.2.0,59.94927092680129,2026-01-18 17h28.36.082068 +0530,
,,,,,,,,,,,,,,,,,,,,,,,,,,,,,,,,1921.5409418999989,1921.5547869000002,1921.5547869000002,1939.4211452,space,17.85840300000018,None,,,,,,,,,,,,,,,,,,,,,,,,,,,,,,,,,,,,,,,,,,,,,,,,,,,,,,,,,,,,,,,,,00052,001,2026-01-18_17h28.15.143,MST_task,2024.2.0,59.94927092680129,2026-01-18 17h28.36.082068 +0530,
,,,,,,,,,,,,,,,,,,,,,,,,,,,,,,,,,,,,,,,1939.4212737999987,1939.4409216999993,1939.4409216999993,1950.1371268000003,space,10.684668399999282,None,,,,,,,,,,,,,,,,,,,,,,,,,,,,,,,,,,,,,,,,,,,,,,,,,,,,,,,,,,00052,001,2026-01-18_17h28.15.143,MST_task,2024.2.0,59.94927092680129,2026-01-18 17h28.36.082068 +0530,
10,practice_images/182a.jpg,0,0,1,None,f,0.19964020000043092,None,,,,,,,,,1,0,0,,,,1950.1552253999998,,,,,,,,,,,,,,,,,,,,,,,1950.151147999999,1950.1552253999998,1950.6522134999996,1950.6605550999993,1950.6923600999999,1950.6923600999999,1950.6923600999999,1953.6523206000002,None,1953.6565898999997,1953.6689588999998,1953.6689588999998,1953.8707775999992,f,0.19964020000043092,None,,,,,,,,,,,,,,,,,,,,,,,,,,,,,,,,,,,,,,,,,,00052,001,2026-01-18_17h28.15.143,MST_task,2024.2.0,59.94927092680129,2026-01-18 17h28.36.082068 +0530,
3,practice_images/037a.jpg,1,1,1,f,None,,,1.523289200000363,0.09684310000011465,,,,,,,1,1,1,,,,1953.8853227,,,,,,,,,,,,,,,,,,,,,,,1953.871006899999,1953.8853227,1954.3699029999989,1954.3751659999998,1954.3853772999992,1954.3853772999992,1954.3853772999992,1957.3697658,f,1957.3698805000004,,,1957.3699273999991,None,,,1954.3853772999992,1957.385247099999,1957.385247099999,1957.385247099999,1.523289200000363,0.09684310000011465,,,,,,,,,,,,,,,,,,,,,,,,,,,,,,,,,,,,00052,001,2026-01-18_17h28.15.143,MST_task,2024.2.0,59.94927092680129,2026-01-18 17h28.36.082068 +0530,
1,practice_images/013a.jpg,2,2,1,j,None,,,2.1033910999994987,0.1126618000016606,,,,,,,1,2,2,,,,1957.385247099999,,,,,,,,,,,,,,,,,,,,,,,1957.3701337000002,1957.385247099999,1957.8695291999993,1957.8745719999988,1957.8853977999988,1957.8853977999988,1957.8853977999988,1960.8699761999997,j,1960.8700852000002,,,1960.8701287000004,None,,,1957.8853977999988,1960.8851697999999,1960.8851697999999,1960.8851697999999,2.1033910999994987,0.1126618000016606,,,,,,,,,,,,,,,,,,,,,,,,,,,,,,,,,,,,00052,001,2026-01-18_17h28.15.143,MST_task,2024.2.0,59.94927092680129,2026-01-18 17h28.36.082068 +0530,
4,practice_images/002b.jpg,3,3,1,f,None,,,2.9081251000006887,None,,,,,,,1,3,3,,,,1960.8851697999999,,,,,,,,,,,,,,,,,,,,,,,1960.8703382000003,1960.8851697999999,1961.3696194999993,1961.3736413999995,1961.3854104999991,1961.3854104999991,1961.3854104999991,1964.3699247999994,f,1964.3700446000003,,,1964.3700950000002,None,,,1961.3854104999991,1964.3851985000001,1964.3851985000001,1964.3851985000001,2.9081251000006887,None,,,,,,,,,,,,,,,,,,,,,,,,,,,,,,,,,,,,00052,001,2026-01-18_17h28.15.143,MST_task,2024.2.0,59.94927092680129,2026-01-18 17h28.36.082068 +0530,
6,practice_images/158a.jpg,4,4,1,f,None,,,2.0960037000004377,0.19092499999896972,,,,,,,1,4,4,,,,1964.3851985000001,,,,,,,,,,,,,,,,,,,,,,,1964.370318199999,1964.3851985000001,1964.8698007000003,1964.8741742000002,1964.8855630999988,1964.8855630999988,1964.8855630999988,1967.869826,f,1967.8699244,,,1967.8699665999993,None,,,1964.8855630999988,1967.8853381999998,1967.8853381999998,1967.8853381999998,2.0960037000004377,0.19092499999896972,,,,,,,,,,,,,,,,,,,,,,,,,,,,,,,,,,,,00052,001,2026-01-18_17h28.15.143,MST_task,2024.2.0,59.94927092680129,2026-01-18 17h28.36.082068 +0530,
2,practice_images/031a.jpg,5,5,1,None,j,0.3248896999994031,None,,,,,,,,,1,5,5,,,,1967.8853381999998,,,,,,,,,,,,,,,,,,,,,,,1967.8701435000003,1967.8853381999998,1968.3698274999988,1968.3772554999996,1968.3853092999998,1968.3853092999998,1968.3853092999998,1971.3696516,None,1971.3731114999991,1971.385242799999,1971.385242799999,1971.7205753999988,j,0.3248896999994031,None,1968.3853092999998,1971.385242799999,1971.385242799999,1971.385242799999,,,,,,,,,,,,,,,,,,,,,,,,,,,,,,,,,,,,,,00052,001,2026-01-18_17h28.15.143,MST_task,2024.2.0,59.94927092680129,2026-01-18 17h28.36.082068 +0530,
7,practice_images/166a.jpg,6,6,1,None,f,0.12153760000001057,None,,,,,,,,,1,6,6,,,,1971.7352183999992,,,,,,,,,,,,,,,,,,,,,,,1971.720933999999,1971.7352183999992,1972.2208231999994,1972.2264063000002,1972.2360554999996,1972.2360554999996,1972.2360554999996,1975.2199789999995,None,1975.2201246999994,1975.2351911999995,1975.2351911999995,1975.3706507999996,f,0.12153760000001057,None,1972.2360554999996,1975.2351911999995,1975.2351911999995,1975.2351911999995,,,,,,,,,,,,,,,,,,,,,,,,,,,,,,,,,,,,,,00052,001,2026-01-18_17h28.15.143,MST_task,2024.2.0,59.94927092680129,2026-01-18 17h28.36.082068 +0530,
5,practice_images/139a.jpg,7,7,1,j,None,,,1.9831159000004845,0.17644680000012158,,,,,,,1,7,7,,,,1975.3852134999997,,,,,,,,,,,,,,,,,,,,,,,1975.3709299000002,1975.3852134999997,1975.8697675000003,1975.8729965999992,1975.885812999999,1975.885812999999,1975.885812999999,1978.8701536999997,j,1978.8702835000004,,,1978.8703318999997,None,,,1975.885812999999,1978.8855241,1978.8855241,1978.8855241,1.9831159000004845,0.17644680000012158,,,,,,,,,,,,,,,,,,,,,,,,,,,,,,,,,,,,00052,001,2026-01-18_17h28.15.143,MST_task,2024.2.0,59.94927092680129,2026-01-18 17h28.36.082068 +0530,
8,practice_images/178a.jpg,8,8,1,f,None,,,2.067529599999034,0.1443561000014597,,,,,,,1,8,8,,,,1978.8855241,,,,,,,,,,,,,,,,,,,,,,,1978.8705491,1978.8855241,1979.3698040999989,1979.3756212999997,1979.3855103000005,1979.3855103000005,1979.3855103000005,1982.3703957999987,f,1982.3705198999996,,,1982.3705630999993,None,,,1979.3855103000005,1982.3849640999997,1982.3849640999997,1982.3849640999997,2.067529599999034,0.1443561000014597,,,,,,,,,,,,,,,,,,,,,,,,,,,,,,,,,,,,00052,001,2026-01-18_17h28.15.143,MST_task,2024.2.0,59.94927092680129,2026-01-18 17h28.36.082068 +0530,
9,practice_images/180a.jpg,9,9,1,j,None,,,1.328696200000195,0.19100000000071304,,,,,,,1,9,9,,,,1982.3849640999997,,,,,,,,,,,,,,,,,,,,,,,1982.3707489999997,1982.3849640999997,1982.869814399999,1982.8732299999992,1982.8853722000003,1982.8853722000003,1982.8853722000003,1985.8699003000002,j,1985.870026999999,,,1985.8700768999988,None,,,1982.8853722000003,1985.8852061999987,1985.8852061999987,1985.8852061999987,1.328696200000195,0.19100000000071304,,,,,,,,,,,,,,,,,,,,,,,,,,,,,,,,,,,,00052,001,2026-01-18_17h28.15.143,MST_task,2024.2.0,59.94927092680129,2026-01-18 17h28.36.082068 +0530,
,,,,,,,,,,,,,,,,,,,,,,,,,,,,,,,,,,,,,,,,,,,,,,,,,,,,,,,,,,,,,,,,,,,,1985.8702582999995,1985.8852061999987,1985.8852061999987,1996.5206665999995,space,10.624190599999565,None,,,,,,,,,,,,,,,,,,,,,,,,,,,,,00052,001,2026-01-18_17h28.15.143,MST_task,2024.2.0,59.94927092680129,2026-01-18 17h28.36.082068 +0530,
,Objects\298a.jpg,0,0,1,,,,,,,j,2.114012100000764,0.13567479999983334,None,,,,,,1,0,0,1996.5353085999996,,,,,,,,,,,,,,,,,,,,,,,1996.5240034999988,1996.5353085999996,1997.0198143999987,,,,,,,,,,,,,,1997.0352996000001,,,,,,,,,,,,,1997.0281013000003,1997.0352996000001,1997.0352996000001,1997.0352996000001,2000.0352115999995,2000.0352115999995,2000.0352115999995,2000.020517699999,indoor,j,2.114012100000764,0.13567479999983334,2000.0248405999992,2000.0249115999995,None,,,,,,,,,,,,,,00052,001,2026-01-18_17h28.15.143,MST_task,2024.2.0,59.94927092680129,2026-01-18 17h28.36.082068 +0530,
,Objects\014a.jpg,1,0,2,,,,,,,f,2.613219399998343,0.15285030000086408,None,,,,,,2,0,1,2000.0352115999995,,,,,,,,,,,,,,,,,,,,,,,2000.025122699999,2000.0352115999995,2000.5196651999995,,,,,,,,,,,,,,2000.535361799999,,,,,,,,,,,,,2000.5255715999992,2000.535361799999,2000.535361799999,2000.535361799999,2003.5353937,2003.5353937,2003.5353937,2003.5204546999994,indoor,f,2.613219399998343,0.15285030000086408,2003.5206390000003,2003.520722199999,None,,,,,,,,,,,,,,00052,001,2026-01-18_17h28.15.143,MST_task,2024.2.0,59.94927092680129,2026-01-18 17h28.36.082068 +0530,
,Objects\313a.jpg,2,0,3,,,,,,,f,2.1944719000002806,0.18360170000050857,None,,,,,,3,0,2,2003.5353937,,,,,,,,,,,,,,,,,,,,,,,2003.5210315000004,2003.5353937,2004.019714099999,,,,,,,,,,,,,,2004.0355636000004,,,,,,,,,,,,,2004.0271568999997,2004.0355636000004,2004.0355636000004,2004.0355636000004,2007.0355588000002,2007.0355588000002,2007.0355588000002,2007.0204278,indoor,f,2.1944719000002806,0.18360170000050857,2007.0206122,2007.0206880000005,None,,,,,,,,,,,,,,00052,001,2026-01-18_17h28.15.143,MST_task,2024.2.0,59.94927092680129,2026-01-18 17h28.36.082068 +0530,
,Objects\383a.jpg,3,0,4,,,,,,,j,2.5496827000006306,0.17550959999971383,None,,,,,,4,0,3,2007.0355588000002,,,,,,,,,,,,,,,,,,,,,,,2007.0209947999992,2007.0355588000002,2007.5198600000003,,,,,,,,,,,,,,2007.5358237,,,,,,,,,,,,,2007.5285196000004,2007.5358237,2007.5358237,2007.5358237,2010.535195299999,2010.535195299999,2010.535195299999,2010.5202725,indoor,j,2.5496827000006306,0.17550959999971383,2010.5204498999992,2010.5205110999996,None,,,,,,,,,,,,,,00052,001,2026-01-18_17h28.15.143,MST_task,2024.2.0,59.94927092680129,2026-01-18 17h28.36.082068 +0530,
,Objects\379a.jpg,4,0,5,,,,,,,f,1.7287120999990293,0.18327920000047015,None,,,,,,5,0,4,2010.535195299999,,,,,,,,,,,,,,,,,,,,,,,2010.5207957000002,2010.535195299999,2011.020077699999,,,,,,,,,,,,,,2011.0365856999997,,,,,,,,,,,,,2011.0258794000001,2011.0365856999997,2011.0365856999997,2011.0365856999997,,,,2014.0356628999998,indoor,f,1.7287120999990293,0.18327920000047015,2014.0358421,2014.0359107000004,None,,,,,,,,,,,,,,00052,001,2026-01-18_17h28.15.143,MST_task,2024.2.0,59.94927092680129,2026-01-18 17h28.36.082068 +0530,
,Objects\229a.jpg,5,0,6,,,,,,,f,1.90969159999986,0.15856080000048678,None,,,,,,6,0,5,2014.0521697000004,,,,,,,,,,,,,,,,,,,,,,,2014.0362480999993,2014.0521697000004,2014.5364214,,,,,,,,,,,,,,2014.5522996,,,,,,,,,,,,,2014.545694999999,2014.5522996,2014.5522996,2014.5522996,2017.5519841000005,2017.5519841000005,2017.5519841000005,2017.5372124999994,indoor,f,1.90969159999986,0.15856080000048678,2017.5373901999992,2017.5374573999998,None,,,,,,,,,,,,,,00052,001,2026-01-18_17h28.15.143,MST_task,2024.2.0,59.94927092680129,2026-01-18 17h28.36.082068 +0530,
,Objects\369a.jpg,6,0,7,,,,,,,f,1.8077822999985074,0.15268590000050608,None,,,,,,7,0,6,2017.5519841000005,,,,,,,,,,,,,,,,,,,,,,,2017.5377831000005,2017.5519841000005,2018.0362862999991,,,,,,,,,,,,,,2018.0525985999993,,,,,,,,,,,,,2018.0423733999996,2018.0525985999993,2018.0525985999993,2018.0525985999993,2021.0818117999988,2021.0818117999988,2021.0818117999988,2021.0370807,indoor,f,1.8077822999985074,0.15268590000050608,2021.0372659000004,2021.0373330000002,None,,,,,,,,,,,,,,00052,001,2026-01-18_17h28.15.143,MST_task,2024.2.0,59.94927092680129,2026-01-18 17h28.36.082068 +0530,
,Objects\067a.jpg,7,0,8,,,,,,,j,1.429948200000581,0.15965309999955934,None,,,,,,8,0,7,2021.0818117999988,,,,,,,,,,,,,,,,,,,,,,,2021.0376395000003,2021.0818117999988,2021.5521535999997,,,,,,,,,,,,,,,,,,,,,,,,,,,2021.6044559000002,2021.6066481999987,2021.6066481999987,2021.6066481999987,,,,2024.5527194999995,shoe,j,1.429948200000581,0.15965309999955934,2024.5564801,2024.5565011999988,None,,,,,,,,,,,,,,00052,001,2026-01-18_17h28.15.143,MST_task,2024.2.0,59.94927092680129,2026-01-18 17h28.36.082068 +0530,
,Objects\104a.jpg,8,0,9,,,,,,,f,1.183688600000096,0.16759780000029423,None,,,,,,9,0,8,2024.5687509,,,,,,,,,,,,,,,,,,,,,,,2024.5565845,2024.5687509,2025.0532841000004,,,,,,,,,,,,,,2025.0688965999998,,,,,,,,,,,,,2025.058956499999,2025.0688965999998,2025.0688965999998,2025.0688965999998,2028.0687297999993,2028.0687297999993,2028.0687297999993,2028.0536524999989,shoe,f,1.183688600000096,0.16759780000029423,2028.0538328999992,2028.0539013999987,None,,,,,,,,,,,,,,00052,001,2026-01-18_17h28.15.143,MST_task,2024.2.0,59.94927092680129,2026-01-18 17h28.36.082068 +0530,
,Objects\258a.jpg,9,0,10,,,,,,,j,2.6518566999984614,0.18362710000110383,None,,,,,,10,0,9,2028.0687297999993,,,,,,,,,,,,,,,,,,,,,,,2028.0543344999987,2028.0687297999993,2028.5531422999993,,,,,,,,,,,,,,2028.5690847000005,,,,,,,,,,,,,2028.5613618999996,2028.5690847000005,2028.5690847000005,2028.5690847000005,2031.5686140999987,2031.5686140999987,2031.5686140999987,2031.553662299999,shoe,j,2.6518566999984614,0.18362710000110383,2031.5537843000002,2031.553859399999,None,,,,,,,,,,,,,,00052,001,2026-01-18_17h28.15.143,MST_task,2024.2.0,59.94927092680129,2026-01-18 17h28.36.082068 +0530,
,Objects\244a.jpg,10,0,11,,,,,,,f,1.5756277999989834,0.08875590000025113,None,,,,,,11,0,10,2031.5686140999987,,,,,,,,,,,,,,,,,,,,,,,2031.5541949999988,2031.5686140999987,2032.0530137000005,,,,,,,,,,,,,,2032.0689440999995,,,,,,,,,,,,,2032.0582868000001,2032.0689440999995,2032.0689440999995,2032.0689440999995,2035.0685847999994,2035.0685847999994,2035.0685847999994,2035.0534501000002,shoe,f,1.5756277999989834,0.08875590000025113,2035.0535459000002,2035.0535803999992,None,,,,,,,,,,,,,,00052,001,2026-01-18_17h28.15.143,MST_task,2024.2.0,59.94927092680129,2026-01-18 17h28.36.082068 +0530,
,Objects\032a.jpg,11,0,12,,,,,,,f,1.748377599999003,0.16779010000027483,None,,,,,,12,0,11,2035.0685847999994,,,,,,,,,,,,,,,,,,,,,,,2035.0537384999989,2035.0685847999994,2035.5530424999997,,,,,,,,,,,,,,2035.5691874000004,,,,,,,,,,,,,2035.558990399999,2035.5691874000004,2035.5691874000004,2035.5691874000004,2038.5686387000005,2038.5686387000005,2038.5686387000005,2038.5534755999997,shoe,f,1.748377599999003,0.16779010000027483,2038.5536582000004,2038.5537287999996,None,,,,,,,,,,,,,,00052,001,2026-01-18_17h28.15.143,MST_task,2024.2.0,59.94927092680129,2026-01-18 17h28.36.082068 +0530,
,Objects\232a.jpg,12,0,13,,,,,,,f,1.7991118999998434,0.17641309999999066,None,,,,,,13,0,12,2038.5686387000005,,,,,,,,,,,,,,,,,,,,,,,2038.5539929999995,2038.5686387000005,2039.0530999000002,,,,,,,,,,,,,,2039.069322199999,,,,,,,,,,,,,2039.0591621000003,2039.069322199999,2039.069322199999,2039.069322199999,2042.0687318,2042.0687318,2042.0687318,2042.053389499999,shoe,f,1.7991118999998434,0.17641309999999066,2042.0534948999994,2042.0535330999992,None,,,,,,,,,,,,,,00052,001,2026-01-18_17h28.15.143,MST_task,2024.2.0,59.94927092680129,2026-01-18 17h28.36.082068 +0530,
,Objects\208a.jpg,13,0,14,,,,,,,f,2.476195400000506,0.15081429999918328,None,,,,,,14,0,13,2042.0687318,,,,,,,,,,,,,,,,,,,,,,,2042.0538340999992,2042.0687318,2042.5530314999996,,,,,,,,,,,,,,2042.5691546999988,,,,,,,,,,,,,2042.5586585,2042.5691546999988,2042.5691546999988,2042.5691546999988,2045.5687593999992,2045.5687593999992,2045.5687593999992,2045.5538660999991,shoe,f,2.476195400000506,0.15081429999918328,2045.5540473,2045.5541142999991,None,,,,,,,,,,,,,,00052,001,2026-01-18_17h28.15.143,MST_task,2024.2.0,59.94927092680129,2026-01-18 17h28.36.082068 +0530,
,Objects\237a.jpg,14,0,15,,,,,,,j,2.871970099999089,None,None,,,,,,15,0,14,2045.5687593999992,,,,,,,,,,,,,,,,,,,,,,,2045.554420999999,2045.5687593999992,2046.0530467999997,,,,,,,,,,,,,,2046.0690655999988,,,,,,,,,,,,,2046.0644866000002,2046.0690655999988,2046.0690655999988,2046.0690655999988,2049.0689767999993,2049.0689767999993,2049.0689767999993,2049.0537707999993,indoor,j,2.871970099999089,None,2049.057922,2049.0579739000004,None,,,,,,,,,,,,,,00052,001,2026-01-18_17h28.15.143,MST_task,2024.2.0,59.94927092680129,2026-01-18 17h28.36.082068 +0530,
,Objects\162a.jpg,15,0,16,,,,,,,None,,,f,None,None,,,,16,0,15,2049.0689767999993,,,,,,,,,,,,,,,,,,,,,,,2049.058206399999,2049.0689767999993,2049.553401699999,,,,,,,,,,,,,,2049.5692433999993,,,,,,,,,,,,,2049.5628306,2049.5692433999993,2049.5692433999993,2049.5692433999993,2052.5687823999997,2052.5687823999997,2052.5687823999997,2052.5532681999994,indoor,None,,,2052.5533538,2052.7379232000003,f,2052.5687823999997,2052.5687823999997,None,None,,,,,,,,,,00052,001,2026-01-18_17h28.15.143,MST_task,2024.2.0,59.94927092680129,2026-01-18 17h28.36.082068 +0530,
,Objects\228a.jpg,16,0,17,,,,,,,f,2.2408754999996745,0.1355794999999489,None,,,,,,17,0,16,2052.751774799999,,,,,,,,,,,,,,,,,,,,,,,2052.7383133999992,2052.751774799999,2053.2363884999995,,,,,,,,,,,,,,2053.252091799999,,,,,,,,,,,,,2053.244644999999,2053.252091799999,2053.252091799999,2053.252091799999,2056.2519116999993,2056.2519116999993,2056.2519116999993,2056.236790499999,indoor,f,2.2408754999996745,0.1355794999999489,2056.2369034999992,2056.2369455999997,None,,,,,,,,,,,,,,00052,001,2026-01-18_17h28.15.143,MST_task,2024.2.0,59.94927092680129,2026-01-18 17h28.36.082068 +0530,
,Objects\301a.jpg,17,0,18,,,,,,,None,,,j,0.429131500000949,None,,,,18,0,17,2056.2519116999993,,,,,,,,,,,,,,,,,,,,,,,2056.2371334,2056.2519116999993,2056.7366726,,,,,,,,,,,,,,2056.7520805999993,,,,,,,,,,,,,2056.7443673999987,2056.7520805999993,2056.7520805999993,2056.7520805999993,2059.7523456,2059.7523456,2059.7523456,2059.7371229,indoor,None,,,2059.7372937,2060.1881816000005,j,2059.7523456,2059.7523456,0.429131500000949,None,,,,,,,,,,00052,001,2026-01-18_17h28.15.143,MST_task,2024.2.0,59.94927092680129,2026-01-18 17h28.36.082068 +0530,
,Objects\268a.jpg,18,0,19,,,,,,,None,,,f,0.31099079999876267,None,,,,19,0,18,2060.202196799999,,,,,,,,,,,,,,,,,,,,,,,2060.1885714,2060.202196799999,2060.6863429999994,,,,,,,,,,,,,,2060.703350399999,,,,,,,,,,,,,2060.6930152000004,2060.703350399999,2060.703350399999,2060.703350399999,2063.702027899999,2063.702027899999,2063.702027899999,2063.687146799999,indoor,None,,,2063.6872564999994,2064.020484499999,f,2063.702027899999,2063.702027899999,0.31099079999876267,None,,,,,,,,,,00052,001,2026-01-18_17h28.15.143,MST_task,2024.2.0,59.94927092680129,2026-01-18 17h28.36.082068 +0530,
,Objects\075a.jpg,19,0,20,,,,,,,None,,,j,0.30101769999964745,None,,,,20,0,19,2064.0362035,,,,,,,,,,,,,,,,,,,,,,,2064.0208783999988,2064.0362035,2064.5200327000002,,,,,,,,,,,,,,2064.5355273999994,,,,,,,,,,,,,2064.5292310000004,2064.5355273999994,2064.5355273999994,2064.5355273999994,2067.5354019999995,2067.5354019999995,2067.5354019999995,2067.5207415000004,indoor,None,,,2067.520856699999,2067.853175799999,j,2067.5354019999995,2067.5354019999995,0.30101769999964745,None,,,,,,,,,,00052,001,2026-01-18_17h28.15.143,MST_task,2024.2.0,59.94927092680129,2026-01-18 17h28.36.082068 +0530,
,Objects\029a.jpg,20,0,21,,,,,,,None,,,f,0.012914799999634852,None,,,,21,0,20,2067.868595099999,,,,,,,,,,,,,,,,,,,,,,,2067.8533903999996,2067.868595099999,2068.3528852,,,,,,,,,,,,,,2068.3690021,,,,,,,,,,,,,2068.3585279,2068.3690021,2068.3690021,2068.3690021,2071.3687274999993,2071.3687274999993,2071.3687274999993,2071.3535269000004,indoor,None,,,2071.353675799999,2071.3874134,f,2071.3687274999993,2071.3687274999993,0.012914799999634852,None,,,,,,,,,,00052,001,2026-01-18_17h28.15.143,MST_task,2024.2.0,59.94927092680129,2026-01-18 17h28.36.082068 +0530,
,Objects\205a.jpg,21,0,22,,,,,,,j,2.070961699999316,0.11985400000048685,None,,,,,,22,0,21,2071.4020012,,,,,,,,,,,,,,,,,,,,,,,2071.3877892,2071.4020012,2071.887020099999,,,,,,,,,,,,,,2071.902287699999,,,,,,,,,,,,,2071.8983768,2071.902287699999,2071.902287699999,2071.902287699999,2074.9018336999998,2074.9018336999998,2074.9018336999998,2074.8871204999996,shoe,j,2.070961699999316,0.11985400000048685,2074.892151799999,2074.8921873,None,,,,,,,,,,,,,,00052,001,2026-01-18_17h28.15.143,MST_task,2024.2.0,59.94927092680129,2026-01-18 17h28.36.082068 +0530,
,Objects\295a.jpg,22,0,23,,,,,,,f,1.554168100001334,0.11165929999879154,None,,,,,,23,0,22,2074.9018336999998,,,,,,,,,,,,,,,,,,,,,,,2074.8923321,2074.9018336999998,2075.3864842000003,,,,,,,,,,,,,,2075.4030444,,,,,,,,,,,,,2075.398621299999,2075.4030444,2075.4030444,2075.4030444,2078.4020024,2078.4020024,2078.4020024,2078.3867967999995,shoe,f,1.554168100001334,0.11165929999879154,2078.3869362999994,2078.3869859999995,None,,,,,,,,,,,,,,00052,001,2026-01-18_17h28.15.143,MST_task,2024.2.0,59.94927092680129,2026-01-18 17h28.36.082068 +0530,
,Objects\045a.jpg,23,0,24,,,,,,,j,0.991111400000591,0.1356231999998272,None,,,,,,24,0,23,2078.4020024,,,,,,,,,,,,,,,,,,,,,,,2078.3872326,2078.4020024,2078.886366999999,,,,,,,,,,,,,,2078.9023156999992,,,,,,,,,,,,,2078.895666799999,2078.9023156999992,2078.9023156999992,2078.9023156999992,2081.901983599999,2081.901983599999,2081.901983599999,2081.887436199999,shoe,j,0.991111400000591,0.1356231999998272,2081.8876182000004,2081.8876870000004,None,,,,,,,,,,,,,,00052,001,2026-01-18_17h28.15.143,MST_task,2024.2.0,59.94927092680129,2026-01-18 17h28.36.082068 +0530,
,Objects\062a.jpg,24,0,25,,,,,,,None,,,f,0.26608519999899727,None,,,,25,0,24,2081.901983599999,,,,,,,,,,,,,,,,,,,,,,,2081.8880136999996,2081.901983599999,2082.386749899999,,,,,,,,,,,,,,2082.4020724,,,,,,,,,,,,,2082.392171899999,2082.4020724,2082.4020724,2082.4020724,2085.402091099999,2085.402091099999,2085.402091099999,2085.3874873000004,shoe,None,,,2085.387603199999,2085.670883499999,f,2085.402091099999,2085.402091099999,0.26608519999899727,None,,,,,,,,,,00052,001,2026-01-18_17h28.15.143,MST_task,2024.2.0,59.94927092680129,2026-01-18 17h28.36.082068 +0530,
,Objects\209a.jpg,25,0,26,,,,,,,None,,,f,0.22812279999925522,None,,,,26,0,25,2085.685407699999,,,,,,,,,,,,,,,,,,,,,,,2085.671280999999,2085.685407699999,2086.1697822999995,,,,,,,,,,,,,,2086.1857595,,,,,,,,,,,,,2086.17822,2086.1857595,2086.1857595,2086.1857595,2089.1852996999987,2089.1852996999987,2089.1852996999987,2089.170516299999,shoe,None,,,2089.170688,2089.4203553999996,f,2089.1852996999987,2089.1852996999987,0.22812279999925522,None,,,,,,,,,,00052,001,2026-01-18_17h28.15.143,MST_task,2024.2.0,59.94927092680129,2026-01-18 17h28.36.082068 +0530,
,Objects\088a.jpg,26,0,27,,,,,,,None,,,j,0.27681569999913336,None,,,,27,0,26,2089.435336999999,,,,,,,,,,,,,,,,,,,,,,,2089.4206472999995,2089.435336999999,2089.919830699999,,,,,,,,,,,,,,2089.9357593999994,,,,,,,,,,,,,2089.930775499999,2089.9357593999994,2089.9357593999994,2089.9357593999994,2092.935571,2092.935571,2092.935571,2092.9205428000005,shoe,None,,,2092.9207050999994,2093.2206458,j,2092.935571,2092.935571,0.27681569999913336,None,,,,,,,,,,00052,001,2026-01-18_17h28.15.143,MST_task,2024.2.0,59.94927092680129,2026-01-18 17h28.36.082068 +0530,
,Objects\214a.jpg,27,0,28,,,,,,,None,,,f,0.2934275000006892,None,,,,28,0,27,2093.235257099999,,,,,,,,,,,,,,,,,,,,,,,2093.2210486000004,2093.235257099999,2093.719858799999,,,,,,,,,,,,,,2093.7805475000005,,,,,,,,,,,,,2093.7775557999994,2093.7805475000005,2093.7805475000005,2093.7805475000005,,,,2096.735660299999,shoe,None,,,2096.735811999999,2097.0536840999994,f,2096.752034699999,2096.752034699999,0.2934275000006892,None,,,,,,,,,,00052,001,2026-01-18_17h28.15.143,MST_task,2024.2.0,59.94927092680129,2026-01-18 17h28.36.082068 +0530,
,Objects\267a.jpg,28,0,29,,,,,,,None,,,f,0.9642999999996391,None,,,,29,0,28,2097.0685102999996,,,,,,,,,,,,,,,,,,,,,,,2097.053918899999,2097.0685102999996,2097.5531427000005,,,,,,,,,,,,,,2097.5689662999994,,,,,,,,,,,,,2097.5625155,2097.5689662999994,2097.5689662999994,2097.5689662999994,2100.5685417000004,2100.5685417000004,2100.5685417000004,2100.5534721999993,indoor,None,,,2100.5578805000005,2101.5376460999996,f,2100.5685417000004,2100.5685417000004,0.9642999999996391,None,,,,,,,,,,00052,001,2026-01-18_17h28.15.143,MST_task,2024.2.0,59.94927092680129,2026-01-18 17h28.36.082068 +0530,
,Objects\160a.jpg,29,0,30,,,,,,,None,,,j,0.29649179999978514,None,,,,30,0,29,2101.5519741999997,,,,,,,,,,,,,,,,,,,,,,,2101.5379601999994,2101.5519741999997,2102.036891399999,,,,,,,,,,,,,,2102.052481499999,,,,,,,,,,,,,2102.0433971,2102.052481499999,2102.052481499999,2102.052481499999,2105.052866599999,2105.052866599999,2105.052866599999,2105.0371264999994,indoor,None,,,2105.037304399999,2105.3540630999996,j,2105.052866599999,2105.052866599999,0.29649179999978514,None,,,,,,,,,,00052,001,2026-01-18_17h28.15.143,MST_task,2024.2.0,59.94927092680129,2026-01-18 17h28.36.082068 +0530,
,Objects\167a.jpg,30,0,31,,,,,,,None,,,f,0.5028258000002097,None,,,,31,0,30,2105.368558099999,,,,,,,,,,,,,,,,,,,,,,,2105.3544588000004,2105.368558099999,2105.853004299999,,,,,,,,,,,,,,2105.8970274999992,,,,,,,,,,,,,2105.8940263999993,2105.8970274999992,2105.8970274999992,2105.8970274999992,,,,2108.8690766,indoor,None,,,2108.8692542999997,2109.4040210000003,f,2108.885317299999,2108.885317299999,0.5028258000002097,None,,,,,,,,,,00052,001,2026-01-18_17h28.15.143,MST_task,2024.2.0,59.94927092680129,2026-01-18 17h28.36.082068 +0530,
,Objects\112a.jpg,31,0,32,,,,,,,None,,,f,0.2853718000005756,None,,,,32,0,31,2109.4186150999994,,,,,,,,,,,,,,,,,,,,,,,2109.404272399999,2109.4186150999994,2109.9031154999993,,,,,,,,,,,,,,2109.918909799999,,,,,,,,,,,,,2109.9113424999996,2109.918909799999,2109.918909799999,2109.918909799999,2112.9187767000003,2112.9187767000003,2112.9187767000003,2112.9038354999993,indoor,None,,,2112.9039484999994,2113.2204291,f,2112.9187767000003,2112.9187767000003,0.2853718000005756,None,,,,,,,,,,00052,001,2026-01-18_17h28.15.143,MST_task,2024.2.0,59.94927092680129,2026-01-18 17h28.36.082068 +0530,
,Objects\114a.jpg,32,0,33,,,,,,,f,2.5168256999986625,0.12925890000042273,None,,,,,,33,0,32,2113.235505299999,,,,,,,,,,,,,,,,,,,,,,,2113.220650899999,2113.235505299999,2113.719694199999,,,,,,,,,,,,,,2113.7355229000004,,,,,,,,,,,,,2113.725349999999,2113.7355229000004,2113.7355229000004,2113.7355229000004,2116.7354161999992,2116.7354161999992,2116.7354161999992,2116.7203480999997,indoor,f,2.5168256999986625,0.12925890000042273,2116.720510199999,2116.720547699999,None,,,,,,,,,,,,,,00052,001,2026-01-18_17h28.15.143,MST_task,2024.2.0,59.94927092680129,2026-01-18 17h28.36.082068 +0530,
,Objects\164a.jpg,33,0,34,,,,,,,f,2.881196100001034,None,None,,,,,,34,0,33,2116.7354161999992,,,,,,,,,,,,,,,,,,,,,,,2116.7207149000005,2116.7354161999992,2117.2199330999993,,,,,,,,,,,,,,2117.2355819000004,,,,,,,,,,,,,2117.228439299999,2117.2355819000004,2117.2355819000004,2117.2355819000004,2120.2353657999993,2120.2353657999993,2120.2353657999993,2120.2203628999996,indoor,f,2.881196100001034,None,2120.220534,2120.2205753,None,,,,,,,,,,,,,,00052,001,2026-01-18_17h28.15.143,MST_task,2024.2.0,59.94927092680129,2026-01-18 17h28.36.082068 +0530,
,Objects\211a.jpg,34,0,35,,,,,,,None,,,f,0.38979010000002745,None,,,,35,0,34,2120.2353657999993,,,,,,,,,,,,,,,,,,,,,,,2120.220776099999,2120.2353657999993,2120.7199421999994,,,,,,,,,,,,,,2120.7356414999995,,,,,,,,,,,,,2120.730046999999,2120.7356414999995,2120.7356414999995,2120.7356414999995,2123.735284299999,2123.735284299999,2123.735284299999,2123.7202070999992,indoor,None,,,2123.720304999999,2124.1369336999996,f,2123.735284299999,2123.735284299999,0.38979010000002745,None,,,,,,,,,,00052,001,2026-01-18_17h28.15.143,MST_task,2024.2.0,59.94927092680129,2026-01-18 17h28.36.082068 +0530,
,Objects\195a.jpg,35,0,36,,,,,,,None,,,j,0.24136370000087481,None,,,,36,0,35,2124.1523954999993,,,,,,,,,,,,,,,,,,,,,,,2124.1371586999994,2124.1523954999993,2124.6364761000004,,,,,,,,,,,,,,2124.652856499999,,,,,,,,,,,,,2124.6480377999997,2124.652856499999,2124.652856499999,2124.652856499999,2127.6519793999996,2127.6519793999996,2127.6519793999996,2127.637143,shoe,None,,,2127.6422650000004,2127.9039957000005,j,2127.6519793999996,2127.6519793999996,0.24136370000087481,None,,,,,,,,,,00052,001,2026-01-18_17h28.15.143,MST_task,2024.2.0,59.94927092680129,2026-01-18 17h28.36.082068 +0530,
,Objects\314a.jpg,36,0,37,,,,,,,None,,,f,0.098573999999644,None,,,,37,0,36,2127.9185505000005,,,,,,,,,,,,,,,,,,,,,,,2127.9043101999996,2127.9185505000005,2128.402952999999,,,,,,,,,,,,,,2128.4190572999996,,,,,,,,,,,,,2128.4120898,2128.4190572999996,2128.4190572999996,2128.4190572999996,2131.4188197000003,2131.4188197000003,2131.4188197000003,2131.4039309,shoe,None,,,2131.404092999999,2131.5204190000004,f,2131.4188197000003,2131.4188197000003,0.098573999999644,None,,,,,,,,,,00052,001,2026-01-18_17h28.15.143,MST_task,2024.2.0,59.94927092680129,2026-01-18 17h28.36.082068 +0530,
,Objects\063a.jpg,37,0,38,,,,,,,None,,,f,0.32115670000166574,None,,,,38,0,37,2131.5353718999995,,,,,,,,,,,,,,,,,,,,,,,2131.5206872,2131.5353718999995,2132.019838799999,,,,,,,,,,,,,,2132.0357578000003,,,,,,,,,,,,,2132.0269138999993,2132.0357578000003,2132.0357578000003,2132.0357578000003,2135.0353627000004,2135.0353627000004,2135.0353627000004,2135.0202179999997,shoe,None,,,2135.0203105,2135.3702722999988,f,2135.0353627000004,2135.0353627000004,0.32115670000166574,None,,,,,,,,,,00052,001,2026-01-18_17h28.15.143,MST_task,2024.2.0,59.94927092680129,2026-01-18 17h28.36.082068 +0530,
,Objects\119a.jpg,38,0,39,,,,,,,None,,,f,0.23206000000027416,None,,,,39,0,38,2135.3860029999996,,,,,,,,,,,,,,,,,,,,,,,2135.3707056999992,2135.3860029999996,2135.8698170999996,,,,,,,,,,,,,,2135.8855867,,,,,,,,,,,,,2135.8765843,2135.8855867,2135.8855867,2135.8855867,2138.8854145999994,2138.8854145999994,2138.8854145999994,2138.870570199999,shoe,None,,,2138.8707283999993,2139.1202753,f,2138.8854145999994,2138.8854145999994,0.23206000000027416,None,,,,,,,,,,00052,001,2026-01-18_17h28.15.143,MST_task,2024.2.0,59.94927092680129,2026-01-18 17h28.36.082068 +0530,
,Objects\031a.jpg,39,0,40,,,,,,,j,2.6902859000001627,0.14355109999996785,None,,,,,,40,0,39,2139.1354525999996,,,,,,,,,,,,,,,,,,,,,,,2139.120803,2139.1354525999996,2139.619912,,,,,,,,,,,,,,2139.6356099999994,,,,,,,,,,,,,2139.6260865000004,2139.6356099999994,2139.6356099999994,2139.6356099999994,2142.6352324,2142.6352324,2142.6352324,2142.6203824999993,shoe,j,2.6902859000001627,0.14355109999996785,2142.6205216,2142.6205735000003,None,,,,,,,,,,,,,,00052,001,2026-01-18_17h28.15.143,MST_task,2024.2.0,59.94927092680129,2026-01-18 17h28.36.082068 +0530,
,Objects\307a.jpg,40,0,41,,,,,,,None,,,j,1.1576621000003797,None,,,,41,0,40,2142.6352324,,,,,,,,,,,,,,,,,,,,,,,2142.6210056,2142.6352324,2143.1198076,,,,,,,,,,,,,,2143.1358105,,,,,,,,,,,,,2143.1278423000003,2143.1358105,2143.1358105,2143.1358105,2146.1352675999988,2146.1352675999988,2146.1352675999988,2146.1205133999993,shoe,None,,,2146.120639499999,2147.3040394,j,2146.1352675999988,2146.1352675999988,1.1576621000003797,None,,,,,,,,,,00052,001,2026-01-18_17h28.15.143,MST_task,2024.2.0,59.94927092680129,2026-01-18 17h28.36.082068 +0530,
,Objects\322a.jpg,41,0,42,,,,,,,j,2.8897892000004504,None,None,,,,,,42,0,41,2147.3186637,,,,,,,,,,,,,,,,,,,,,,,2147.304397099999,2147.3186637,2147.8035872,,,,,,,,,,,,,,2147.819223299999,,,,,,,,,,,,,2147.813360799999,2147.819223299999,2147.819223299999,2147.819223299999,2150.8185503999994,2150.8185503999994,2150.8185503999994,2150.8040843,shoe,j,2.8897892000004504,None,2150.804271699999,2150.8043411,None,,,,,,,,,,,,,,00052,001,2026-01-18_17h28.15.143,MST_task,2024.2.0,59.94927092680129,2026-01-18 17h28.36.082068 +0530,
,Objects\140a.jpg,42,0,43,,,,,,,None,,,f,0.2310063999993872,None,,,,43,0,42,2150.8185503999994,,,,,,,,,,,,,,,,,,,,,,,2150.8046443000003,2150.8185503999994,2151.303023799999,,,,,,,,,,,,,,2151.319028099999,,,,,,,,,,,,,2151.3140430999993,2151.319028099999,2151.319028099999,2151.319028099999,2154.318600499999,2154.318600499999,2154.318600499999,2154.304155399999,indoor,None,,,2154.308998299999,2154.553834099999,f,2154.318600499999,2154.318600499999,0.2310063999993872,None,,,,,,,,,,00052,001,2026-01-18_17h28.15.143,MST_task,2024.2.0,59.94927092680129,2026-01-18 17h28.36.082068 +0530,
,Objects\047a.jpg,43,0,44,,,,,,,None,,,f,0.22425509999993665,None,,,,44,0,43,2154.5688599999994,,,,,,,,,,,,,,,,,,,,,,,2154.5542344000005,2154.5688599999994,2155.0531169999995,,,,,,,,,,,,,,2155.0689965,,,,,,,,,,,,,2155.0606697000003,2155.0689965,2155.0689965,2155.0689965,2158.0685221999993,2158.0685221999993,2158.0685221999993,2158.053821899999,indoor,None,,,2158.053983399999,2158.303670199999,f,2158.0685221999993,2158.0685221999993,0.22425509999993665,None,,,,,,,,,,00052,001,2026-01-18_17h28.15.143,MST_task,2024.2.0,59.94927092680129,2026-01-18 17h28.36.082068 +0530,
,Objects\178a.jpg,44,0,45,,,,,,,None,,,j,0.31392029999915394,None,,,,45,0,44,2158.318534799999,,,,,,,,,,,,,,,,,,,,,,,2158.304054,2158.318534799999,2158.8029957,,,,,,,,,,,,,,2158.818972699999,,,,,,,,,,,,,2158.8117801999997,2158.818972699999,2158.818972699999,2158.818972699999,2161.8186748999997,2161.8186748999997,2161.8186748999997,2161.8048359999993,indoor,None,,,2161.8050091000005,2162.1372178,j,2161.8186748999997,2161.8186748999997,0.31392029999915394,None,,,,,,,,,,00052,001,2026-01-18_17h28.15.143,MST_task,2024.2.0,59.94927092680129,2026-01-18 17h28.36.082068 +0530,
,Objects\373a.jpg,45,0,46,,,,,,,None,,,j,0.5126552000001539,None,,,,46,0,45,2162.1520084999993,,,,,,,,,,,,,,,,,,,,,,,2162.1375506000004,2162.1520084999993,2162.6368428999995,,,,,,,,,,,,,,2162.652933399999,,,,,,,,,,,,,2162.6427038,2162.652933399999,2162.652933399999,2162.652933399999,2165.652028999999,2165.652028999999,2165.652028999999,2165.6369314000003,indoor,None,,,2165.6370205000003,2166.1705714,j,2165.652028999999,2165.652028999999,0.5126552000001539,None,,,,,,,,,,00052,001,2026-01-18_17h28.15.143,MST_task,2024.2.0,59.94927092680129,2026-01-18 17h28.36.082068 +0530,
,Objects\086a.jpg,46,0,47,,,,,,,None,,,j,0.24839499999870895,None,,,,47,0,46,2166.1853919999994,,,,,,,,,,,,,,,,,,,,,,,2166.1708349,2166.1853919999994,2166.669740899999,,,,,,,,,,,,,,2166.6855651999995,,,,,,,,,,,,,2166.6814768000004,2166.6855651999995,2166.6855651999995,2166.6855651999995,2169.6853114000005,2169.6853114000005,2169.6853114000005,2169.6705664,indoor,None,,,2169.670682099999,2169.937067499999,j,2169.6853114000005,2169.6853114000005,0.24839499999870895,None,,,,,,,,,,00052,001,2026-01-18_17h28.15.143,MST_task,2024.2.0,59.94927092680129,2026-01-18 17h28.36.082068 +0530,
,Objects\323a.jpg,47,0,48,,,,,,,None,,,j,0.24920840000049793,None,,,,48,0,47,2169.952291899999,,,,,,,,,,,,,,,,,,,,,,,2169.9373152999997,2169.952291899999,2170.4362791000003,,,,,,,,,,,,,,2170.452392899999,,,,,,,,,,,,,2170.4450251,2170.452392899999,2170.452392899999,2170.452392899999,2173.452086199999,2173.452086199999,2173.452086199999,2173.4373686,indoor,None,,,2173.437578199999,2173.7041021000005,j,2173.452086199999,2173.452086199999,0.24920840000049793,None,,,,,,,,,,00052,001,2026-01-18_17h28.15.143,MST_task,2024.2.0,59.94927092680129,2026-01-18 17h28.36.082068 +0530,
,Objects\133a.jpg,48,0,49,,,,,,,None,,,j,0.29806880000069214,None,,,,49,0,48,2173.7189803,,,,,,,,,,,,,,,,,,,,,,,2173.7044490999997,2173.7189803,2174.2031319,,,,,,,,,,,,,,2174.2191332,,,,,,,,,,,,,2174.2094536000004,2174.2191332,2174.2191332,2174.2191332,2177.2187331000005,2177.2187331000005,2177.2187331000005,2177.2034071,indoor,None,,,2177.2035577999995,2177.5212962999994,j,2177.2187331000005,2177.2187331000005,0.29806880000069214,None,,,,,,,,,,00052,001,2026-01-18_17h28.15.143,MST_task,2024.2.0,59.94927092680129,2026-01-18 17h28.36.082068 +0530,
,Objects\189a.jpg,49,0,50,,,,,,,None,,,j,0.28177710000090883,None,,,,50,0,49,2177.5354761,,,,,,,,,,,,,,,,,,,,,,,2177.5215353000003,2177.5354761,2178.0197917000005,,,,,,,,,,,,,,2178.0354764999993,,,,,,,,,,,,,2178.0279283,2178.0354764999993,2178.0354764999993,2178.0354764999993,2181.0357215000004,2181.0357215000004,2181.0357215000004,2181.0211357999997,shoe,None,,,2181.0245593,2181.3205168000004,j,2181.0357215000004,2181.0357215000004,0.28177710000090883,None,,,,,,,,,,00052,001,2026-01-18_17h28.15.143,MST_task,2024.2.0,59.94927092680129,2026-01-18 17h28.36.082068 +0530,
,Objects\277a.jpg,50,0,51,,,,,,,None,,,f,0.2984198000012839,None,,,,51,0,50,2181.3353874999993,,,,,,,,,,,,,,,,,,,,,,,2181.3208403999997,2181.3353874999993,2181.820018799999,,,,,,,,,,,,,,2181.8358313999997,,,,,,,,,,,,,2181.826807199999,2181.8358313999997,2181.8358313999997,2181.8358313999997,2184.8353061999987,2184.8353061999987,2184.8353061999987,2184.820724699999,shoe,None,,,2184.8208811000004,2185.1370743999996,f,2184.8353061999987,2184.8353061999987,0.2984198000012839,None,,,,,,,,,,00052,001,2026-01-18_17h28.15.143,MST_task,2024.2.0,59.94927092680129,2026-01-18 17h28.36.082068 +0530,
,Objects\038a.jpg,51,0,52,,,,,,,None,,,f,0.27304089999961434,None,,,,52,0,51,2185.1521648,,,,,,,,,,,,,,,,,,,,,,,2185.1373803999995,2185.1521648,2185.6364813,,,,,,,,,,,,,,2185.652314699999,,,,,,,,,,,,,2185.643046199999,2185.652314699999,2185.652314699999,2185.652314699999,2188.6520423,2188.6520423,2188.6520423,2188.637327299999,shoe,None,,,2188.6374983999995,2188.9376078000005,f,2188.6520423,2188.6520423,0.27304089999961434,None,,,,,,,,,,00052,001,2026-01-18_17h28.15.143,MST_task,2024.2.0,59.94927092680129,2026-01-18 17h28.36.082068 +0530,
,Objects\204a.jpg,52,0,53,,,,,,,None,,,f,0.2966338000005635,None,,,,53,0,52,2188.9520964000003,,,,,,,,,,,,,,,,,,,,,,,2188.938071499999,2188.9520964000003,2189.4363689,,,,,,,,,,,,,,2189.4743273999993,,,,,,,,,,,,,2189.4712743,2189.4743273999993,2189.4743273999993,2189.4743273999993,,,,2192.4521666,shoe,None,,,2192.452254399999,2192.7701897999996,f,2192.468667699999,2192.468667699999,0.2966338000005635,None,,,,,,,,,,00052,001,2026-01-18_17h28.15.143,MST_task,2024.2.0,59.94927092680129,2026-01-18 17h28.36.082068 +0530,
,Objects\158a.jpg,53,0,54,,,,,,,None,,,f,0.3339916999993875,None,,,,54,0,53,2192.7854229000004,,,,,,,,,,,,,,,,,,,,,,,2192.770524899999,2192.7854229000004,2193.2698358,,,,,,,,,,,,,,2193.2856618000005,,,,,,,,,,,,,2193.276184099999,2193.2856618000005,2193.2856618000005,2193.2856618000005,2196.2861128999994,2196.2861128999994,2196.2861128999994,2196.270407799999,shoe,None,,,2196.2705831000003,2196.6370575,f,2196.2861128999994,2196.2861128999994,0.3339916999993875,None,,,,,,,,,,00052,001,2026-01-18_17h28.15.143,MST_task,2024.2.0,59.94927092680129,2026-01-18 17h28.36.082068 +0530,
,Objects\072a.jpg,54,0,55,,,,,,,None,,,f,0.26880890000029467,None,,,,55,0,54,2196.6519915999997,,,,,,,,,,,,,,,,,,,,,,,2196.6374194,2196.6519915999997,2197.136462999999,,,,,,,,,,,,,,2197.1523017,,,,,,,,,,,,,2197.1429991000005,2197.1523017,2197.1523017,2197.1523017,2200.1520689999998,2200.1520689999998,2200.1520689999998,2200.1371529999997,shoe,None,,,2200.1373012000004,2200.4371849,f,2200.1520689999998,2200.1520689999998,0.26880890000029467,None,,,,,,,,,,00052,001,2026-01-18_17h28.15.143,MST_task,2024.2.0,59.94927092680129,2026-01-18 17h28.36.082068 +0530,
,Objects\056a.jpg,55,0,56,,,,,,,None,,,f,0.37335910000001604,None,,,,56,0,55,2200.4521272,,,,,,,,,,,,,,,,,,,,,,,2200.437581799999,2200.4521272,2200.9356850000004,,,,,,,,,,,,,,2200.9521320999993,,,,,,,,,,,,,2200.939331899999,2200.9521320999993,2200.9521320999993,2200.9521320999993,2203.9520675000003,2203.9520675000003,2203.9520675000003,2203.9373780999995,shoe,None,,,2203.937547899999,2204.3372263,f,2203.9520675000003,2203.9520675000003,0.37335910000001604,None,,,,,,,,,,00052,001,2026-01-18_17h28.15.143,MST_task,2024.2.0,59.94927092680129,2026-01-18 17h28.36.082068 +0530,
,Objects\273a.jpg,56,0,57,,,,,,,None,,,f,0.4086903999996139,None,,,,57,0,56,2204.351957499999,,,,,,,,,,,,,,,,,,,,,,,2204.3375275,2204.351957499999,2204.836892699999,,,,,,,,,,,,,,2204.8523525,,,,,,,,,,,,,2204.846290899999,2204.8523525,2204.8523525,2204.8523525,2207.852025099999,2207.852025099999,2207.852025099999,2207.837113399999,indoor,None,,,2207.8415528999994,2208.270598699999,f,2207.852025099999,2207.852025099999,0.4086903999996139,None,,,,,,,,,,00052,001,2026-01-18_17h28.15.143,MST_task,2024.2.0,59.94927092680129,2026-01-18 17h28.36.082068 +0530,
,Objects\046a.jpg,57,0,58,,,,,,,None,,,j,0.25074860000131594,None,,,,58,0,57,2208.2852212,,,,,,,,,,,,,,,,,,,,,,,2208.2708714,2208.2852212,2208.7699152999994,,,,,,,,,,,,,,2208.7856023999993,,,,,,,,,,,,,2208.7776902000005,2208.7856023999993,2208.7856023999993,2208.7856023999993,2211.7859731999997,2211.7859731999997,2211.7859731999997,2211.770588199999,indoor,None,,,2211.770749699999,2212.0547454999996,j,2211.7859731999997,2211.7859731999997,0.25074860000131594,None,,,,,,,,,,00052,001,2026-01-18_17h28.15.143,MST_task,2024.2.0,59.94927092680129,2026-01-18 17h28.36.082068 +0530,
,Objects\138a.jpg,58,0,59,,,,,,,None,,,j,0.27631620000101975,None,,,,59,0,58,2212.068518,,,,,,,,,,,,,,,,,,,,,,,2212.0550311999996,2212.068518,2212.5529609999994,,,,,,,,,,,,,,2212.568708499999,,,,,,,,,,,,,2212.5606838000003,2212.568708499999,2212.568708499999,2212.568708499999,2215.5684760000004,2215.5684760000004,2215.5684760000004,2215.5537098000004,indoor,None,,,2215.5538423999988,2215.8538007999996,j,2215.5684760000004,2215.5684760000004,0.27631620000101975,None,,,,,,,,,,00052,001,2026-01-18_17h28.15.143,MST_task,2024.2.0,59.94927092680129,2026-01-18 17h28.36.082068 +0530,
,Objects\186a.jpg,59,0,60,,,,,,,f,2.7238090000009834,0.09552739999890036,None,,,,,,60,0,59,2215.8686720000005,,,,,,,,,,,,,,,,,,,,,,,2215.8540508999995,2215.8686720000005,2216.3534516,,,,,,,,,,,,,,2216.3687088999995,,,,,,,,,,,,,2216.359759499999,2216.3687088999995,2216.3687088999995,2216.3687088999995,2219.369298899999,2219.369298899999,2219.369298899999,2219.3536881,indoor,f,2.7238090000009834,0.09552739999890036,2219.353810299999,2219.353853999999,None,,,,,,,,,,,,,,00052,001,2026-01-18_17h28.15.143,MST_task,2024.2.0,59.94927092680129,2026-01-18 17h28.36.082068 +0530,
,Objects\017a.jpg,60,0,61,,,,,,,None,,,j,0.3677644999988843,None,,,,61,0,60,2219.369298899999,,,,,,,,,,,,,,,,,,,,,,,2219.3541697,2219.369298899999,2219.853280899999,,,,,,,,,,,,,,2219.8689792000005,,,,,,,,,,,,,2219.8584845000005,2219.8689792000005,2219.8689792000005,2219.8689792000005,2222.8687059999993,2222.8687059999993,2222.8687059999993,2222.8538326,indoor,None,,,2222.8539383999996,2223.2537689,j,2222.8687059999993,2222.8687059999993,0.3677644999988843,None,,,,,,,,,,00052,001,2026-01-18_17h28.15.143,MST_task,2024.2.0,59.94927092680129,2026-01-18 17h28.36.082068 +0530,
,Objects\091a.jpg,61,0,62,,,,,,,None,,,j,0.2679220999998506,None,,,,62,0,61,2223.2687160000005,,,,,,,,,,,,,,,,,,,,,,,2223.2541409000005,2223.2687160000005,2223.7533528000004,,,,,,,,,,,,,,2223.7688538,,,,,,,,,,,,,2223.7592540000005,2223.7688538,2223.7688538,2223.7688538,2226.7684947,2226.7684947,2226.7684947,2226.7540506000005,indoor,None,,,2226.754198999999,2227.053468099999,j,2226.7684947,2226.7684947,0.2679220999998506,None,,,,,,,,,,00052,001,2026-01-18_17h28.15.143,MST_task,2024.2.0,59.94927092680129,2026-01-18 17h28.36.082068 +0530,
,Objects\300a.jpg,62,0,63,,,,,,,None,,,f,0.26053850000062084,None,,,,63,0,62,2227.0684923999997,,,,,,,,,,,,,,,,,,,,,,,2227.0536778999995,2227.0684923999997,2227.5534210000005,,,,,,,,,,,,,,2227.5689733,,,,,,,,,,,,,2227.5634733999996,2227.5689733,2227.5689733,2227.5689733,2230.568621799999,2230.568621799999,2230.568621799999,2230.5534112000005,indoor,None,,,2230.5534905000004,2230.8373909,f,2230.568621799999,2230.568621799999,0.26053850000062084,None,,,,,,,,,,00052,001,2026-01-18_17h28.15.143,MST_task,2024.2.0,59.94927092680129,2026-01-18 17h28.36.082068 +0530,
,Objects\116a.jpg,63,0,64,,,,,,,None,,,f,1.108458900000187,None,,,,64,0,63,2230.8531982999993,,,,,,,,,,,,,,,,,,,,,,,2230.8377612000004,2230.8531982999993,2231.3522947,,,,,,,,,,,,,,,,,,,,,,,,,,,2231.3644504999993,2231.3690881,2231.3690881,2231.3690881,,,,2234.352471,shoe,None,,,2234.3579962999993,2235.4871501999987,f,2234.3686185999995,2234.3686185999995,1.108458900000187,None,,,,,,,,,,00052,001,2026-01-18_17h28.15.143,MST_task,2024.2.0,59.94927092680129,2026-01-18 17h28.36.082068 +0530,
,Objects\188a.jpg,64,0,65,,,,,,,None,,,f,0.26790799999980663,None,,,,65,0,64,2235.5019403999995,,,,,,,,,,,,,,,,,,,,,,,2235.4875658,2235.5019403999995,2235.9863669999995,,,,,,,,,,,,,,2236.0022339999996,,,,,,,,,,,,,2235.9952900999997,2236.0022339999996,2236.0022339999996,2236.0022339999996,2239.001988799999,2239.001988799999,2239.001988799999,2238.9870608,shoe,None,,,2238.9872190999995,2239.2876006999995,f,2239.001988799999,2239.001988799999,0.26790799999980663,None,,,,,,,,,,00052,001,2026-01-18_17h28.15.143,MST_task,2024.2.0,59.94927092680129,2026-01-18 17h28.36.082068 +0530,
,Objects\048a.jpg,65,0,66,,,,,,,None,,,j,0.306401800000458,None,,,,66,0,65,2239.3021374,,,,,,,,,,,,,,,,,,,,,,,2239.288128799999,2239.3021374,2239.7863027999992,,,,,,,,,,,,,,2239.8023517,,,,,,,,,,,,,2239.7923045999996,2239.8023517,2239.8023517,2239.8023517,2242.8020232,2242.8020232,2242.8020232,2242.7870058999997,shoe,None,,,2242.7871627000004,2243.1200045000005,j,2242.8020232,2242.8020232,0.306401800000458,None,,,,,,,,,,00052,001,2026-01-18_17h28.15.143,MST_task,2024.2.0,59.94927092680129,2026-01-18 17h28.36.082068 +0530,
,Objects\345a.jpg,66,0,67,,,,,,,None,,,f,0.03325819999918167,None,,,,67,0,66,2243.1352358000004,,,,,,,,,,,,,,,,,,,,,,,2243.1203556,2243.1352358000004,2243.6196048,,,,,,,,,,,,,,2243.7394095,,,,,,,,,,,,,2243.7362371,2243.7394095,2243.7394095,2243.7394095,,,,2246.6358149999996,shoe,None,,,2246.6359558000004,2246.687867499999,f,2246.6517559999993,2246.6517559999993,0.03325819999918167,None,,,,,,,,,,00052,001,2026-01-18_17h28.15.143,MST_task,2024.2.0,59.94927092680129,2026-01-18 17h28.36.082068 +0530,
,Objects\199a.jpg,67,0,68,,,,,,,None,,,f,0.21196319999944535,None,,,,68,0,67,2246.7018735,,,,,,,,,,,,,,,,,,,,,,,2246.6881871999994,2246.7018735,2247.186429899999,,,,,,,,,,,,,,2247.2024741000005,,,,,,,,,,,,,2247.1936979,2247.2024741000005,2247.2024741000005,2247.2024741000005,2250.2018602999997,2250.2018602999997,2250.2018602999997,2250.1871618000005,shoe,None,,,2250.1873135000005,2250.420522799999,f,2250.2018602999997,2250.2018602999997,0.21196319999944535,None,,,,,,,,,,00052,001,2026-01-18_17h28.15.143,MST_task,2024.2.0,59.94927092680129,2026-01-18 17h28.36.082068 +0530,
,Objects\380a.jpg,68,0,69,,,,,,,None,,,j,0.0767098000014812,None,,,,69,0,68,2250.4353004000004,,,,,,,,,,,,,,,,,,,,,,,2250.4207546,2250.4353004000004,2250.919726,,,,,,,,,,,,,,2250.935752199999,,,,,,,,,,,,,2250.9282406,2250.935752199999,2250.935752199999,2250.935752199999,2253.9355522000005,2253.9355522000005,2253.9355522000005,2253.9208488999993,shoe,None,,,2253.921011299999,2254.0205769000004,j,2253.9355522000005,2253.9355522000005,0.0767098000014812,None,,,,,,,,,,00052,001,2026-01-18_17h28.15.143,MST_task,2024.2.0,59.94927092680129,2026-01-18 17h28.36.082068 +0530,
,Objects\309a.jpg,69,0,70,,,,,,,None,,,f,0.11811429999943357,None,,,,70,0,69,2254.0356649999994,,,,,,,,,,,,,,,,,,,,,,,2254.0209369000004,2254.0356649999994,2254.5207867999998,,,,,,,,,,,,,,2254.5359102,,,,,,,,,,,,,2254.52901,2254.5359102,2254.5359102,2254.5359102,2257.5354577999988,2257.5354577999988,2257.5354577999988,2257.5207057999996,shoe,None,,,2257.5208521999994,2257.6703577999997,f,2257.5354577999988,2257.5354577999988,0.11811429999943357,None,,,,,,,,,,00052,001,2026-01-18_17h28.15.143,MST_task,2024.2.0,59.94927092680129,2026-01-18 17h28.36.082068 +0530,
,Objects\326a.jpg,70,0,71,,,,,,,None,,,f,0.2675232000001415,None,,,,71,0,70,2257.6855811999994,,,,,,,,,,,,,,,,,,,,,,,2257.6705791999993,2257.6855811999994,2258.1697509000005,,,,,,,,,,,,,,2258.1856467,,,,,,,,,,,,,2258.1825444999995,2258.1856467,2258.1856467,2258.1856467,2261.1853114000005,2261.1853114000005,2261.1853114000005,2261.1704924999995,indoor,None,,,2261.1749075999996,2261.4702782000004,f,2261.1853114000005,2261.1853114000005,0.2675232000001415,None,,,,,,,,,,00052,001,2026-01-18_17h28.15.143,MST_task,2024.2.0,59.94927092680129,2026-01-18 17h28.36.082068 +0530,
,Objects\094a.jpg,71,0,72,,,,,,,f,2.8184619000003295,0.14586159999998927,None,,,,,,72,0,71,2261.485480899999,,,,,,,,,,,,,,,,,,,,,,,2261.470660499999,2261.485480899999,2261.9697023999997,,,,,,,,,,,,,,2261.985762799999,,,,,,,,,,,,,2261.9778475000003,2261.985762799999,2261.985762799999,2261.985762799999,2264.985342,2264.985342,2264.985342,2264.9708102999994,indoor,f,2.8184619000003295,0.14586159999998927,2264.9709232000005,2264.9709655999995,None,,,,,,,,,,,,,,00052,001,2026-01-18_17h28.15.143,MST_task,2024.2.0,59.94927092680129,2026-01-18 17h28.36.082068 +0530,
,Objects\147a.jpg,72,0,73,,,,,,,None,,,f,0.16728460000013,None,,,,73,0,72,2264.985342,,,,,,,,,,,,,,,,,,,,,,,2264.971151399999,2264.985342,2265.4697515999997,,,,,,,,,,,,,,2265.4857195999994,,,,,,,,,,,,,2265.478146199999,2265.4857195999994,2265.4857195999994,2265.4857195999994,2268.4853286,2268.4853286,2268.4853286,2268.470691499999,indoor,None,,,2268.4707896,2268.671177799999,f,2268.4853286,2268.4853286,0.16728460000013,None,,,,,,,,,,00052,001,2026-01-18_17h28.15.143,MST_task,2024.2.0,59.94927092680129,2026-01-18 17h28.36.082068 +0530,
,Objects\233a.jpg,73,0,74,,,,,,,None,,,j,0.2758463000009215,None,,,,74,0,73,2268.6852703999994,,,,,,,,,,,,,,,,,,,,,,,2268.6714486,2268.6852703999994,2269.1696649000005,,,,,,,,,,,,,,2269.1861893000005,,,,,,,,,,,,,2269.1760658000003,2269.1861893000005,2269.1861893000005,2269.1861893000005,2272.1854072999995,2272.1854072999995,2272.1854072999995,2272.170375399999,indoor,None,,,2272.1704807999995,2272.4704671,j,2272.1854072999995,2272.1854072999995,0.2758463000009215,None,,,,,,,,,,00052,001,2026-01-18_17h28.15.143,MST_task,2024.2.0,59.94927092680129,2026-01-18 17h28.36.082068 +0530,
,Objects\236a.jpg,74,0,75,,,,,,,None,,,f,0.20361080000111542,None,,,,75,0,74,2272.4853829000003,,,,,,,,,,,,,,,,,,,,,,,2272.4708723999993,2272.4853829000003,2272.9695188000005,,,,,,,,,,,,,,2272.985816799999,,,,,,,,,,,,,2272.9750585,2272.985816799999,2272.985816799999,2272.985816799999,2275.9853499,2275.9853499,2275.9853499,2275.9706072999998,indoor,None,,,2275.9707758000004,2276.203777499999,f,2275.9853499,2275.9853499,0.20361080000111542,None,,,,,,,,,,00052,001,2026-01-18_17h28.15.143,MST_task,2024.2.0,59.94927092680129,2026-01-18 17h28.36.082068 +0530,
,Objects\171a.jpg,75,0,76,,,,,,,None,,,f,0.23853950000011537,None,,,,76,0,75,2276.2187386000005,,,,,,,,,,,,,,,,,,,,,,,2276.2041682,2276.2187386000005,2276.7030262999997,,,,,,,,,,,,,,2276.7191005999994,,,,,,,,,,,,,2276.711443299999,2276.7191005999994,2276.7191005999994,2276.7191005999994,2279.7188095,2279.7188095,2279.7188095,2279.7036728000003,indoor,None,,,2279.703803299999,2279.9700448999993,f,2279.7188095,2279.7188095,0.23853950000011537,None,,,,,,,,,,00052,001,2026-01-18_17h28.15.143,MST_task,2024.2.0,59.94927092680129,2026-01-18 17h28.36.082068 +0530,
,Objects\008a.jpg,76,0,77,,,,,,,f,2.942464599998857,None,None,,,,,,77,0,76,2279.9853476999997,,,,,,,,,,,,,,,,,,,,,,,2279.970263899999,2279.9853476999997,2280.4698606,,,,,,,,,,,,,,2280.4856058999994,,,,,,,,,,,,,2280.478716399999,2280.4856058999994,2280.4856058999994,2280.4856058999994,2283.485198999999,2283.485198999999,2283.485198999999,2283.4700169999996,indoor,f,2.942464599998857,None,2283.4701036999995,2283.4701349999996,None,,,,,,,,,,,,,,00052,001,2026-01-18_17h28.15.143,MST_task,2024.2.0,59.94927092680129,2026-01-18 17h28.36.082068 +0530,
,Objects\376a.jpg,77,0,78,,,,,,,None,,,j,0.2281511999990471,None,,,,78,0,77,2283.485198999999,,,,,,,,,,,,,,,,,,,,,,,2283.470275399999,2283.485198999999,2283.969916,,,,,,,,,,,,,,2283.9855924999993,,,,,,,,,,,,,2283.9774545,2283.9855924999993,2283.9855924999993,2283.9855924999993,2286.9852508999993,2286.9852508999993,2286.9852508999993,2286.9705773000005,shoe,None,,,2286.9758432,2287.220686299999,j,2286.9852508999993,2286.9852508999993,0.2281511999990471,None,,,,,,,,,,00052,001,2026-01-18_17h28.15.143,MST_task,2024.2.0,59.94927092680129,2026-01-18 17h28.36.082068 +0530,
,Objects\083a.jpg,78,0,79,,,,,,,f,2.8616052999987005,0.09586680000029446,None,,,,,,79,0,78,2287.2354873999993,,,,,,,,,,,,,,,,,,,,,,,2287.2210612,2287.2354873999993,2287.7196255,,,,,,,,,,,,,,2287.7354973,,,,,,,,,,,,,2287.7263583999993,2287.7354973,2287.7354973,2287.7354973,2290.735721699999,2290.735721699999,2290.735721699999,2290.7207099999996,shoe,f,2.8616052999987005,0.09586680000029446,2290.7208771999994,2290.7209285999998,None,,,,,,,,,,,,,,00052,001,2026-01-18_17h28.15.143,MST_task,2024.2.0,59.94927092680129,2026-01-18 17h28.36.082068 +0530,
,Objects\106a.jpg,79,0,80,,,,,,,None,,,f,0.2424672000015562,None,,,,80,0,79,2290.735721699999,,,,,,,,,,,,,,,,,,,,,,,2290.7211823,2290.735721699999,2291.2196311999996,,,,,,,,,,,,,,2291.2355642,,,,,,,,,,,,,2291.2246252000004,2291.2355642,2291.2355642,2291.2355642,2294.2352690999996,2294.2352690999996,2294.2352690999996,2294.2206745999993,shoe,None,,,2294.2208339999997,2294.487251499999,f,2294.2352690999996,2294.2352690999996,0.2424672000015562,None,,,,,,,,,,00052,001,2026-01-18_17h28.15.143,MST_task,2024.2.0,59.94927092680129,2026-01-18 17h28.36.082068 +0530,
,Objects\378a.jpg,80,0,81,,,,,,,None,,,f,2.499545399999988,None,,,,81,0,80,2294.501855999999,,,,,,,,,,,,,,,,,,,,,,,2294.487635199999,2294.501855999999,2294.9865279999995,,,,,,,,,,,,,,2295.0021467999995,,,,,,,,,,,,,2294.996217,2295.0021467999995,2295.0021467999995,2295.0021467999995,2298.0019068,2298.0019068,2298.0019068,2297.9872197999994,shoe,None,,,2297.9873724999998,2300.5042123999992,f,2298.0019068,2298.0019068,2.499545399999988,None,,,,,,,,,,00052,001,2026-01-18_17h28.15.143,MST_task,2024.2.0,59.94927092680129,2026-01-18 17h28.36.082068 +0530,
,Objects\372a.jpg,81,0,82,,,,,,,None,,,j,0.35357830000066315,None,,,,82,0,81,2300.5188614,,,,,,,,,,,,,,,,,,,,,,,2300.5045252,2300.5188614,2301.0029080999993,,,,,,,,,,,,,,2301.0612070999996,,,,,,,,,,,,,2301.057320099999,2301.0612070999996,2301.0612070999996,2301.0612070999996,,,,2304.019055999999,shoe,None,,,2304.0192033000003,2304.4037188,j,2304.0353037999994,2304.0353037999994,0.35357830000066315,None,,,,,,,,,,00052,001,2026-01-18_17h28.15.143,MST_task,2024.2.0,59.94927092680129,2026-01-18 17h28.36.082068 +0530,
,Objects\151a.jpg,82,0,83,,,,,,,f,2.51764269999876,0.09528289999980188,None,,,,,,83,0,82,2304.4185462000005,,,,,,,,,,,,,,,,,,,,,,,2304.4040024999995,2304.4185462000005,2304.903125499999,,,,,,,,,,,,,,2304.9191152000003,,,,,,,,,,,,,2304.9098505,2304.9191152000003,2304.9191152000003,2304.9191152000003,2307.918558399999,2307.918558399999,2307.918558399999,2307.9037050999996,shoe,f,2.51764269999876,0.09528289999980188,2307.9038373000003,2307.9038858999993,None,,,,,,,,,,,,,,00052,001,2026-01-18_17h28.15.143,MST_task,2024.2.0,59.94927092680129,2026-01-18 17h28.36.082068 +0530,
,Objects\099a.jpg,83,0,84,,,,,,,j,2.7850885999996535,0.12120320000030915,None,,,,,,84,0,83,2307.918558399999,,,,,,,,,,,,,,,,,,,,,,,2307.9041921999997,2307.918558399999,2308.4029136999998,,,,,,,,,,,,,,2308.4191744,,,,,,,,,,,,,2308.4118423,2308.4191744,2308.4191744,2308.4191744,2311.4186845999993,2311.4186845999993,2311.4186845999993,2311.4039699000004,shoe,j,2.7850885999996535,0.12120320000030915,2311.4041622999994,2311.4042104,None,,,,,,,,,,,,,,00052,001,2026-01-18_17h28.15.143,MST_task,2024.2.0,59.94927092680129,2026-01-18 17h28.36.082068 +0530,
,Objects\377a.jpg,84,0,85,,,,,,,j,2.7496387000010145,0.16045219999978144,None,,,,,,85,0,84,2311.4186845999993,,,,,,,,,,,,,,,,,,,,,,,2311.4044362999994,2311.4186845999993,2311.9034291999997,,,,,,,,,,,,,,2311.9190135999997,,,,,,,,,,,,,2311.9117576999997,2311.9190135999997,2311.9190135999997,2311.9190135999997,2314.9185388000005,2314.9185388000005,2314.9185388000005,2314.904311799999,indoor,j,2.7496387000010145,0.16045219999978144,2314.908791,2314.9088417000003,None,,,,,,,,,,,,,,00052,001,2026-01-18_17h28.15.143,MST_task,2024.2.0,59.94927092680129,2026-01-18 17h28.36.082068 +0530,
,Objects\050a.jpg,85,0,86,,,,,,,None,,,j,1.5947336000008363,None,,,,86,0,85,2314.9185388000005,,,,,,,,,,,,,,,,,,,,,,,2314.9090486999994,2314.9185388000005,2315.403239699999,,,,,,,,,,,,,,2315.419066299999,,,,,,,,,,,,,2315.4127871,2315.419066299999,2315.419066299999,2315.419066299999,2318.4185132000002,2318.4185132000002,2318.4185132000002,2318.4036467999995,indoor,None,,,2318.403804399999,2320.020172999999,j,2318.4185132000002,2318.4185132000002,1.5947336000008363,None,,,,,,,,,,00052,001,2026-01-18_17h28.15.143,MST_task,2024.2.0,59.94927092680129,2026-01-18 17h28.36.082068 +0530,
,Objects\148a.jpg,86,0,87,,,,,,,None,,,f,0.46786380000048666,None,,,,87,0,86,2320.035272199999,,,,,,,,,,,,,,,,,,,,,,,2320.0204424000003,2320.035272199999,2320.519575999999,,,,,,,,,,,,,,2320.5619042,,,,,,,,,,,,,2320.5581516,2320.5619042,2320.5619042,2320.5619042,,,,2323.5356118,indoor,None,,,2323.5357652000002,2324.037030199999,f,2323.5523782,2323.5523782,0.46786380000048666,None,,,,,,,,,,00052,001,2026-01-18_17h28.15.143,MST_task,2024.2.0,59.94927092680129,2026-01-18 17h28.36.082068 +0530,
,Objects\132a.jpg,87,0,88,,,,,,,None,,,j,0.4287344000003941,None,,,,88,0,87,2324.0519047,,,,,,,,,,,,,,,,,,,,,,,2324.0373726,2324.0519047,2324.5363244,,,,,,,,,,,,,,2324.5521885999988,,,,,,,,,,,,,2324.543437999999,2324.5521885999988,2324.5521885999988,2324.5521885999988,2327.552096899999,2327.552096899999,2327.552096899999,2327.5370227999992,indoor,None,,,2327.5371815,2327.9870489000004,j,2327.552096899999,2327.552096899999,0.4287344000003941,None,,,,,,,,,,00052,001,2026-01-18_17h28.15.143,MST_task,2024.2.0,59.94927092680129,2026-01-18 17h28.36.082068 +0530,
,Objects\058a.jpg,88,0,89,,,,,,,None,,,f,0.25393160000021453,None,,,,89,0,88,2328.0019503000003,,,,,,,,,,,,,,,,,,,,,,,2327.9872723999997,2328.0019503000003,2328.486584,,,,,,,,,,,,,,2328.5024565999993,,,,,,,,,,,,,2328.4947482999996,2328.5024565999993,2328.5024565999993,2328.5024565999993,2331.5019912999996,2331.5019912999996,2331.5019912999996,2331.4872763999992,indoor,None,,,2331.487435199999,2331.7702881999994,f,2331.5019912999996,2331.5019912999996,0.25393160000021453,None,,,,,,,,,,00052,001,2026-01-18_17h28.15.143,MST_task,2024.2.0,59.94927092680129,2026-01-18 17h28.36.082068 +0530,
,Objects\375a.jpg,89,0,90,,,,,,,f,2.9029423000010866,None,None,,,,,,90,0,89,2331.785218699999,,,,,,,,,,,,,,,,,,,,,,,2331.7706309000005,2331.785218699999,2332.2700346,,,,,,,,,,,,,,2332.285968099999,,,,,,,,,,,,,2332.2764477,2332.285968099999,2332.285968099999,2332.285968099999,2335.285197699999,2335.285197699999,2335.285197699999,2335.2708189000004,indoor,f,2.9029423000010866,None,2335.270951299999,2335.2710124000005,None,,,,,,,,,,,,,,00052,001,2026-01-18_17h28.15.143,MST_task,2024.2.0,59.94927092680129,2026-01-18 17h28.36.082068 +0530,
,Objects\107a.jpg,90,0,91,,,,,,,None,,,f,0.1235620999996172,None,,,,91,0,90,2335.285197699999,,,,,,,,,,,,,,,,,,,,,,,2335.2712109999993,2335.285197699999,2335.769735,,,,,,,,,,,,,,2335.785694799999,,,,,,,,,,,,,2335.7762389,2335.785694799999,2335.785694799999,2335.785694799999,2338.7852167,2338.7852167,2338.7852167,2338.770165099999,indoor,None,,,2338.770322799999,2338.9204104,f,2338.7852167,2338.7852167,0.1235620999996172,None,,,,,,,,,,00052,001,2026-01-18_17h28.15.143,MST_task,2024.2.0,59.94927092680129,2026-01-18 17h28.36.082068 +0530,
,Objects\364a.jpg,91,0,92,,,,,,,f,2.465544399999999,0.12747609999860288,None,,,,,,92,0,91,2338.9353247,,,,,,,,,,,,,,,,,,,,,,,2338.9208548999995,2338.9353247,2339.419695999999,,,,,,,,,,,,,,2339.435818,,,,,,,,,,,,,2339.429538999999,2339.435818,2339.435818,2339.435818,2342.4353410999993,2342.4353410999993,2342.4353410999993,2342.421293199999,shoe,f,2.465544399999999,0.12747609999860288,2342.4251707000003,2342.4252008000003,None,,,,,,,,,,,,,,00052,001,2026-01-18_17h28.15.143,MST_task,2024.2.0,59.94927092680129,2026-01-18 17h28.36.082068 +0530,
,Objects\371a.jpg,92,0,93,,,,,,,None,,,j,0.3729830000011134,None,,,,93,0,92,2342.4353410999993,,,,,,,,,,,,,,,,,,,,,,,2342.4253658,2342.4353410999993,2342.920350299999,,,,,,,,,,,,,,2342.9357870000003,,,,,,,,,,,,,2342.9277826,2342.9357870000003,2342.9357870000003,2342.9357870000003,2345.9356184999997,2345.9356184999997,2345.9356184999997,2345.9203500000003,shoe,None,,,2345.920444899999,2346.3202180999997,j,2345.9356184999997,2345.9356184999997,0.3729830000011134,None,,,,,,,,,,00052,001,2026-01-18_17h28.15.143,MST_task,2024.2.0,59.94927092680129,2026-01-18 17h28.36.082068 +0530,
,Objects\163a.jpg,93,0,94,,,,,,,None,,,j,1.1937576000000263,None,,,,94,0,93,2346.3353363999995,,,,,,,,,,,,,,,,,,,,,,,2346.3205772,2346.3353363999995,2346.8199862,,,,,,,,,,,,,,2346.8358568999993,,,,,,,,,,,,,2346.8287906999994,2346.8358568999993,2346.8358568999993,2346.8358568999993,2349.8352897000004,2349.8352897000004,2349.8352897000004,2349.8205583,shoe,None,,,2349.8207017000004,2351.0371195999996,j,2349.8352897000004,2349.8352897000004,1.1937576000000263,None,,,,,,,,,,00052,001,2026-01-18_17h28.15.143,MST_task,2024.2.0,59.94927092680129,2026-01-18 17h28.36.082068 +0530,
,Objects\035a.jpg,94,0,95,,,,,,,None,,,j,0.5320967999996356,None,,,,95,0,94,2351.0522573,,,,,,,,,,,,,,,,,,,,,,,2351.0374907999994,2351.0522573,2351.536470699999,,,,,,,,,,,,,,2351.5530617000004,,,,,,,,,,,,,2351.5449320999996,2351.5530617000004,2351.5530617000004,2351.5530617000004,2354.552005399999,2354.552005399999,2354.552005399999,2354.5372515,shoe,None,,,2354.5374118,2355.0869545000005,j,2354.552005399999,2354.552005399999,0.5320967999996356,None,,,,,,,,,,00052,001,2026-01-18_17h28.15.143,MST_task,2024.2.0,59.94927092680129,2026-01-18 17h28.36.082068 +0530,
,Objects\368a.jpg,95,0,96,,,,,,,None,,,f,0.73047040000165,None,,,,96,0,95,2355.1019178999995,,,,,,,,,,,,,,,,,,,,,,,2355.0872562999994,2355.1019178999995,2355.5863384000004,,,,,,,,,,,,,,2355.6024352999993,,,,,,,,,,,,,2355.595216399999,2355.6024352999993,2355.6024352999993,2355.6024352999993,2358.6019249,2358.6019249,2358.6019249,2358.5870773999995,shoe,None,,,2358.5872246,2359.3373147,f,2358.6019249,2358.6019249,0.73047040000165,None,,,,,,,,,,00052,001,2026-01-18_17h28.15.143,MST_task,2024.2.0,59.94927092680129,2026-01-18 17h28.36.082068 +0530,
,Objects\335a.jpg,96,0,97,,,,,,,None,,,j,0.27303910000046017,None,,,,97,0,96,2359.3520644,,,,,,,,,,,,,,,,,,,,,,,2359.3376224999993,2359.3520644,2359.837327199999,,,,,,,,,,,,,,2359.852501199999,,,,,,,,,,,,,2359.8427217999997,2359.852501199999,2359.852501199999,2359.852501199999,2362.852009,2362.852009,2362.852009,2362.8372089999993,shoe,None,,,2362.837386699999,2363.1372312999993,j,2362.852009,2362.852009,0.27303910000046017,None,,,,,,,,,,00052,001,2026-01-18_17h28.15.143,MST_task,2024.2.0,59.94927092680129,2026-01-18 17h28.36.082068 +0530,
,Objects\325a.jpg,97,0,98,,,,,,,None,,,f,0.391810400000395,None,,,,98,0,97,2363.1520024,,,,,,,,,,,,,,,,,,,,,,,2363.1377137,2363.1520024,2363.6367032,,,,,,,,,,,,,,2363.6523564,,,,,,,,,,,,,2363.6449883999994,2363.6523564,2363.6523564,2363.6523564,2366.652138399999,2366.652138399999,2366.652138399999,2366.636853099999,shoe,None,,,2366.636950599999,2367.0539059000002,f,2366.652138399999,2366.652138399999,0.391810400000395,None,,,,,,,,,,00052,001,2026-01-18_17h28.15.143,MST_task,2024.2.0,59.94927092680129,2026-01-18 17h28.36.082068 +0530,
,Objects\154a.jpg,98,0,99,,,,,,,None,,,j,0.6350346999988687,None,,,,99,0,98,2367.0685247,,,,,,,,,,,,,,,,,,,,,,,2367.0541749999993,2367.0685247,2367.5531656000003,,,,,,,,,,,,,,2367.5689664,,,,,,,,,,,,,2367.562090399999,2367.5689664,2367.5689664,2367.5689664,2370.5688775,2370.5688775,2370.5688775,2370.5537649999987,indoor,None,,,2370.5581908999993,2371.221072799999,j,2370.5688775,2370.5688775,0.6350346999988687,None,,,,,,,,,,00052,001,2026-01-18_17h28.15.143,MST_task,2024.2.0,59.94927092680129,2026-01-18 17h28.36.082068 +0530,
,Objects\198a.jpg,99,0,100,,,,,,,None,,,f,0.4692646999992576,None,,,,100,0,99,2371.235274299999,,,,,,,,,,,,,,,,,,,,,,,2371.221449999999,2371.235274299999,2371.7199679999994,,,,,,,,,,,,,,2371.735504,,,,,,,,,,,,,2371.7248435,2371.735504,2371.735504,2371.735504,2374.7353179,2374.7353179,2374.7353179,2374.7204007,indoor,None,,,2374.720493499999,2375.2201910000003,f,2374.7353179,2374.7353179,0.4692646999992576,None,,,,,,,,,,00052,001,2026-01-18_17h28.15.143,MST_task,2024.2.0,59.94927092680129,2026-01-18 17h28.36.082068 +0530,
,Objects\136a.jpg,100,0,101,,,,,,,None,,,f,0.2206833000000188,None,,,,101,0,100,2375.2353452999996,,,,,,,,,,,,,,,,,,,,,,,2375.2205854000003,2375.2353452999996,2375.7195479,,,,,,,,,,,,,,2375.735606799999,,,,,,,,,,,,,2375.7253179,2375.735606799999,2375.735606799999,2375.735606799999,2378.7352735999993,2378.7352735999993,2378.7352735999993,2378.720138499999,indoor,None,,,2378.7203222999997,2378.9707067,f,2378.7352735999993,2378.7352735999993,0.2206833000000188,None,,,,,,,,,,00052,001,2026-01-18_17h28.15.143,MST_task,2024.2.0,59.94927092680129,2026-01-18 17h28.36.082068 +0530,
,Objects\327a.jpg,101,0,102,,,,,,,None,,,f,0.3113959000002069,None,,,,102,0,101,2378.9859627000005,,,,,,,,,,,,,,,,,,,,,,,2378.9710811000004,2378.9859627000005,2379.4695797999993,,,,,,,,,,,,,,2379.4858451,,,,,,,,,,,,,2379.4787668999998,2379.4858451,2379.4858451,2379.4858451,2382.4853354999996,2382.4853354999996,2382.4853354999996,2382.470718299999,indoor,None,,,2382.4708771999994,2382.8040552,f,2382.4853354999996,2382.4853354999996,0.3113959000002069,None,,,,,,,,,,00052,001,2026-01-18_17h28.15.143,MST_task,2024.2.0,59.94927092680129,2026-01-18 17h28.36.082068 +0530,
,Objects\125a.jpg,102,0,103,,,,,,,None,,,f,0.2779439000005368,None,,,,103,0,102,2382.818614399999,,,,,,,,,,,,,,,,,,,,,,,2382.804371299999,2382.818614399999,2383.302927999999,,,,,,,,,,,,,,2383.3198379999994,,,,,,,,,,,,,2383.315360999999,2383.3198379999994,2383.3198379999994,2383.3198379999994,2386.3184908999992,2386.3184908999992,2386.3184908999992,2386.3039377999994,indoor,None,,,2386.3040966999997,2386.6038320999996,f,2386.3184908999992,2386.3184908999992,0.2779439000005368,None,,,,,,,,,,00052,001,2026-01-18_17h28.15.143,MST_task,2024.2.0,59.94927092680129,2026-01-18 17h28.36.082068 +0530,
,Objects\034a.jpg,103,0,104,,,,,,,f,2.9018933000006655,None,None,,,,,,104,0,103,2386.6184801,,,,,,,,,,,,,,,,,,,,,,,2386.6040981999995,2386.6184801,2387.1028604000003,,,,,,,,,,,,,,2387.118824899999,,,,,,,,,,,,,2387.111004299999,2387.118824899999,2387.118824899999,2387.118824899999,2390.1185367999988,2390.1185367999988,2390.1185367999988,2390.1041138,indoor,f,2.9018933000006655,None,2390.1042990000005,2390.1043689,None,,,,,,,,,,,,,,00052,001,2026-01-18_17h28.15.143,MST_task,2024.2.0,59.94927092680129,2026-01-18 17h28.36.082068 +0530,
,Objects\108a.jpg,104,0,105,,,,,,,None,,,f,0.13043840000136697,None,,,,105,0,104,2390.1185367999988,,,,,,,,,,,,,,,,,,,,,,,2390.104670499999,2390.1185367999988,2390.6030436,,,,,,,,,,,,,,2390.619202599999,,,,,,,,,,,,,2390.6112580999998,2390.619202599999,2390.619202599999,2390.619202599999,2393.618601799999,2393.618601799999,2393.618601799999,2393.603790699999,indoor,None,,,2393.6039457999996,2393.7535133,f,2393.618601799999,2393.618601799999,0.13043840000136697,None,,,,,,,,,,00052,001,2026-01-18_17h28.15.143,MST_task,2024.2.0,59.94927092680129,2026-01-18 17h28.36.082068 +0530,
,Objects\081a.jpg,105,0,106,,,,,,,None,,,j,0.2646421999997983,None,,,,106,0,105,2393.7685588000004,,,,,,,,,,,,,,,,,,,,,,,2393.7538038000002,2393.7685588000004,2394.2531156999994,,,,,,,,,,,,,,2394.268972099999,,,,,,,,,,,,,2394.2612188000003,2394.268972099999,2394.268972099999,2394.268972099999,2397.2685125999997,2397.2685125999997,2397.2685125999997,2397.2536435,shoe,None,,,2397.259081799999,2397.536962099999,j,2397.2685125999997,2397.2685125999997,0.2646421999997983,None,,,,,,,,,,00052,001,2026-01-18_17h28.15.143,MST_task,2024.2.0,59.94927092680129,2026-01-18 17h28.36.082068 +0530,
,Objects\280a.jpg,106,0,107,,,,,,,None,,,f,0.8807863000001817,None,,,,107,0,106,2397.552073699999,,,,,,,,,,,,,,,,,,,,,,,2397.5371964999995,2397.552073699999,2398.0364917999996,,,,,,,,,,,,,,2398.052086599999,,,,,,,,,,,,,2398.0426150000003,2398.052086599999,2398.052086599999,2398.052086599999,2401.0522808999995,2401.0522808999995,2401.0522808999995,2401.0374500999988,shoe,None,,,2401.0375867000002,2401.9370118999996,f,2401.0522808999995,2401.0522808999995,0.8807863000001817,None,,,,,,,,,,00052,001,2026-01-18_17h28.15.143,MST_task,2024.2.0,59.94927092680129,2026-01-18 17h28.36.082068 +0530,
,Objects\174a.jpg,107,0,108,,,,,,,None,,,f,0.42576699999881384,None,,,,108,0,107,2401.952019299999,,,,,,,,,,,,,,,,,,,,,,,2401.9373811000005,2401.952019299999,2402.4363090999996,,,,,,,,,,,,,,2402.4524781,,,,,,,,,,,,,2402.4430807999997,2402.4524781,2402.4524781,2402.4524781,2405.4518592000004,2405.4518592000004,2405.4518592000004,2405.437043599999,shoe,None,,,2405.4371914000003,2405.886912,f,2405.4518592000004,2405.4518592000004,0.42576699999881384,None,,,,,,,,,,00052,001,2026-01-18_17h28.15.143,MST_task,2024.2.0,59.94927092680129,2026-01-18 17h28.36.082068 +0530,
,Objects\328a.jpg,108,0,109,,,,,,,None,,,f,0.2906890999984171,None,,,,109,0,108,2405.9019377999994,,,,,,,,,,,,,,,,,,,,,,,2405.8874302999993,2405.9019377999994,2406.3864761999994,,,,,,,,,,,,,,2406.4022112000002,,,,,,,,,,,,,2406.3928570999997,2406.4022112000002,2406.4022112000002,2406.4022112000002,2409.401971199999,2409.401971199999,2409.401971199999,2409.3864940000003,shoe,None,,,2409.3866708999994,2409.7039805000004,f,2409.401971199999,2409.401971199999,0.2906890999984171,None,,,,,,,,,,00052,001,2026-01-18_17h28.15.143,MST_task,2024.2.0,59.94927092680129,2026-01-18 17h28.36.082068 +0530,
,Objects\194a.jpg,109,0,110,,,,,,,f,2.6898230999995576,0.11986749999960011,None,,,,,,110,0,109,2409.7185824999997,,,,,,,,,,,,,,,,,,,,,,,2409.7043054000005,2409.7185824999997,2410.2030942,,,,,,,,,,,,,,2410.219381499999,,,,,,,,,,,,,2410.2111174,2410.219381499999,2410.219381499999,2410.219381499999,2413.2186402999996,2413.2186402999996,2413.2186402999996,2413.2035539999997,shoe,f,2.6898230999995576,0.11986749999960011,2413.203729699999,2413.2038003999987,None,,,,,,,,,,,,,,00052,001,2026-01-18_17h28.15.143,MST_task,2024.2.0,59.94927092680129,2026-01-18 17h28.36.082068 +0530,
,Objects\078a.jpg,110,0,111,,,,,,,None,,,f,0.28588219999983266,None,,,,111,0,110,2413.2186402999996,,,,,,,,,,,,,,,,,,,,,,,2413.204100699999,2413.2186402999996,2413.702936399999,,,,,,,,,,,,,,2413.719105099999,,,,,,,,,,,,,2413.7105431,2413.719105099999,2413.719105099999,2413.719105099999,2416.718549199999,2416.718549199999,2416.718549199999,2416.703967399999,shoe,None,,,2416.704134899999,2417.0201115,f,2416.718549199999,2416.718549199999,0.28588219999983266,None,,,,,,,,,,00052,001,2026-01-18_17h28.15.143,MST_task,2024.2.0,59.94927092680129,2026-01-18 17h28.36.082068 +0530,
,Objects\120a.jpg,111,0,112,,,,,,,f,2.80510139999933,0.14427509999950416,None,,,,,,112,0,111,2417.0354996999995,,,,,,,,,,,,,,,,,,,,,,,2417.0203182999994,2417.0354996999995,2417.519656999999,,,,,,,,,,,,,,2417.5354962,,,,,,,,,,,,,2417.5275698000005,2417.5354962,2417.5354962,2417.5354962,2420.5354497999997,2420.5354497999997,2420.5354497999997,2420.521073,shoe,f,2.80510139999933,0.14427509999950416,2420.5212302,2420.521271399999,None,,,,,,,,,,,,,,00052,001,2026-01-18_17h28.15.143,MST_task,2024.2.0,59.94927092680129,2026-01-18 17h28.36.082068 +0530,
,Objects\292a.jpg,112,0,113,,,,,,,None,,,j,1.1539032999990013,None,,,,113,0,112,2420.5354497999997,,,,,,,,,,,,,,,,,,,,,,,2420.5214564999987,2420.5354497999997,2421.0196514,,,,,,,,,,,,,,2421.035816899999,,,,,,,,,,,,,2421.0259136999994,2421.035816899999,2421.035816899999,2421.035816899999,2424.0352199999998,2424.0352199999998,2424.0352199999998,2424.0202742,indoor,None,,,2424.0238878,2425.203559399999,j,2424.0352199999998,2424.0352199999998,1.1539032999990013,None,,,,,,,,,,00052,001,2026-01-18_17h28.15.143,MST_task,2024.2.0,59.94927092680129,2026-01-18 17h28.36.082068 +0530,
,Objects\145a.jpg,113,0,114,,,,,,,None,,,j,1.6297911999990902,None,,,,114,0,113,2425.2190551000003,,,,,,,,,,,,,,,,,,,,,,,2425.203936,2425.2190551000003,2425.7029399000003,,,,,,,,,,,,,,2425.718921399999,,,,,,,,,,,,,2425.7109631999992,2425.718921399999,2425.718921399999,2425.718921399999,2428.7186432,2428.7186432,2428.7186432,2428.7038854,indoor,None,,,2428.7040003,2430.354139699999,j,2428.7186432,2428.7186432,1.6297911999990902,None,,,,,,,,,,00052,001,2026-01-18_17h28.15.143,MST_task,2024.2.0,59.94927092680129,2026-01-18 17h28.36.082068 +0530,
,Objects\183a.jpg,114,0,115,,,,,,,None,,,f,1.1763952000001154,None,,,,115,0,114,2430.3685389,,,,,,,,,,,,,,,,,,,,,,,2430.3545185000003,2430.3685389,2430.853114899999,,,,,,,,,,,,,,2430.868864599999,,,,,,,,,,,,,2430.859957299999,2430.868864599999,2430.868864599999,2430.868864599999,2433.8687176000003,2433.8687176000003,2433.8687176000003,2433.8543470999994,indoor,None,,,2433.854499199999,2435.0534558,f,2433.8687176000003,2433.8687176000003,1.1763952000001154,None,,,,,,,,,,00052,001,2026-01-18_17h28.15.143,MST_task,2024.2.0,59.94927092680129,2026-01-18 17h28.36.082068 +0530,
,Objects\172a.jpg,115,0,116,,,,,,,None,,,j,0.07554589999926975,None,,,,116,0,115,2435.0685837,,,,,,,,,,,,,,,,,,,,,,,2435.053708899999,2435.0685837,2435.553183099999,,,,,,,,,,,,,,2435.568869999999,,,,,,,,,,,,,2435.5618359,2435.568869999999,2435.568869999999,2435.568869999999,2438.5685730000005,2438.5685730000005,2438.5685730000005,2438.553623399999,indoor,None,,,2438.5537227000004,2438.6535286,j,2438.5685730000005,2438.5685730000005,0.07554589999926975,None,,,,,,,,,,00052,001,2026-01-18_17h28.15.143,MST_task,2024.2.0,59.94927092680129,2026-01-18 17h28.36.082068 +0530,
,Objects\243a.jpg,116,0,117,,,,,,,None,,,f,0.6034789000004821,None,,,,117,0,116,2438.6685887999993,,,,,,,,,,,,,,,,,,,,,,,2438.6538745999987,2438.6685887999993,2439.152884699999,,,,,,,,,,,,,,2439.1689547999995,,,,,,,,,,,,,2439.1630967,2439.1689547999995,2439.1689547999995,2439.1689547999995,2442.168638699999,2442.168638699999,2442.168638699999,2442.1533609,indoor,None,,,2442.1534563999994,2442.7874154,f,2442.168638699999,2442.168638699999,0.6034789000004821,None,,,,,,,,,,00052,001,2026-01-18_17h28.15.143,MST_task,2024.2.0,59.94927092680129,2026-01-18 17h28.36.082068 +0530,
,Objects\165a.jpg,117,0,118,,,,,,,None,,,f,0.2316102000004321,None,,,,118,0,117,2442.8021697999993,,,,,,,,,,,,,,,,,,,,,,,2442.787724599999,2442.8021697999993,2443.286519199999,,,,,,,,,,,,,,2443.3023605,,,,,,,,,,,,,2443.2965012000004,2443.3023605,2443.3023605,2443.3023605,2446.3019635,2446.3019635,2446.3019635,2446.2872675,indoor,None,,,2446.2874317999995,2446.5370251000004,f,2446.3019635,2446.3019635,0.2316102000004321,None,,,,,,,,,,00052,001,2026-01-18_17h28.15.143,MST_task,2024.2.0,59.94927092680129,2026-01-18 17h28.36.082068 +0530,
,Objects\250a.jpg,118,0,119,,,,,,,f,2.7753052999996726,0.1121199000008346,None,,,,,,119,0,118,2446.55192,,,,,,,,,,,,,,,,,,,,,,,2446.5372743999997,2446.55192,2447.036651799999,,,,,,,,,,,,,,2447.0524969999988,,,,,,,,,,,,,2447.0428632000003,2447.0524969999988,2447.0524969999988,2447.0524969999988,2450.052010199999,2450.052010199999,2450.052010199999,2450.0372728,indoor,f,2.7753052999996726,0.1121199000008346,2450.037392299999,2450.0374362000002,None,,,,,,,,,,,,,,00052,001,2026-01-18_17h28.15.143,MST_task,2024.2.0,59.94927092680129,2026-01-18 17h28.36.082068 +0530,
,Objects\180a.jpg,119,0,120,,,,,,,None,,,f,0.23593789999904402,None,,,,120,0,119,2450.052010199999,,,,,,,,,,,,,,,,,,,,,,,2450.0376349999988,2450.052010199999,2450.5364056,,,,,,,,,,,,,,2450.5527115000004,,,,,,,,,,,,,2450.545252,2450.5527115000004,2450.5527115000004,2450.5527115000004,2453.5525080999996,2453.5525080999996,2453.5525080999996,2453.5381837000004,shoe,None,,,2453.5434461000004,2453.803887099999,f,2453.5525080999996,2453.5525080999996,0.23593789999904402,None,,,,,,,,,,00052,001,2026-01-18_17h28.15.143,MST_task,2024.2.0,59.94927092680129,2026-01-18 17h28.36.082068 +0530,
,Objects\141a.jpg,120,0,121,,,,,,,None,,,j,0.18279679999977816,None,,,,121,0,120,2453.818549399999,,,,,,,,,,,,,,,,,,,,,,,2453.8041935,2453.818549399999,2454.3031038999998,,,,,,,,,,,,,,2454.3188692999993,,,,,,,,,,,,,2454.3081817,2454.3188692999993,2454.3188692999993,2454.3188692999993,2457.3185596999992,2457.3185596999992,2457.3185596999992,2457.3044413999996,shoe,None,,,2457.3046051,2457.5044505000005,j,2457.3185596999992,2457.3185596999992,0.18279679999977816,None,,,,,,,,,,00052,001,2026-01-18_17h28.15.143,MST_task,2024.2.0,59.94927092680129,2026-01-18 17h28.36.082068 +0530,
,Objects\348a.jpg,121,0,122,,,,,,,f,2.8661090999994485,None,None,,,,,,122,0,121,2457.518554099999,,,,,,,,,,,,,,,,,,,,,,,2457.5048117999995,2457.518554099999,2458.0030697,,,,,,,,,,,,,,2458.0193068999997,,,,,,,,,,,,,2458.0114894,2458.0193068999997,2458.0193068999997,2458.0193068999997,2461.018609499999,2461.018609499999,2461.018609499999,2461.0039075000004,shoe,f,2.8661090999994485,None,2461.0040389999995,2461.0040857999993,None,,,,,,,,,,,,,,00052,001,2026-01-18_17h28.15.143,MST_task,2024.2.0,59.94927092680129,2026-01-18 17h28.36.082068 +0530,
,Objects\352a.jpg,122,0,123,,,,,,,None,,,f,0.2376096999996662,None,,,,123,0,122,2461.018609499999,,,,,,,,,,,,,,,,,,,,,,,2461.004315799999,2461.018609499999,2461.5037699000004,,,,,,,,,,,,,,2461.518928399999,,,,,,,,,,,,,2461.5096558999994,2461.518928399999,2461.518928399999,2461.518928399999,2464.5181859999993,2464.5181859999993,2464.5181859999993,2464.5030535999995,shoe,None,,,2464.5031273000004,2464.7696435,f,2464.5181859999993,2464.5181859999993,0.2376096999996662,None,,,,,,,,,,00052,001,2026-01-18_17h28.15.143,MST_task,2024.2.0,59.94927092680129,2026-01-18 17h28.36.082068 +0530,
,Objects\340a.jpg,123,0,124,,,,,,,None,,,f,0.2864866999989317,None,,,,124,0,123,2464.7850449,,,,,,,,,,,,,,,,,,,,,,,2464.769911199999,2464.7850449,2465.2697112999995,,,,,,,,,,,,,,2465.2857320000003,,,,,,,,,,,,,2465.2769917000005,2465.2857320000003,2465.2857320000003,2465.2857320000003,2468.2854088000004,2468.2854088000004,2468.2854088000004,2468.270575299999,shoe,None,,,2468.2707520000004,2468.587124399999,f,2468.2854088000004,2468.2854088000004,0.2864866999989317,None,,,,,,,,,,00052,001,2026-01-18_17h28.15.143,MST_task,2024.2.0,59.94927092680129,2026-01-18 17h28.36.082068 +0530,
,Objects\253a.jpg,124,0,125,,,,,,,f,2.869603200000711,None,None,,,,,,125,0,124,2468.6021072000003,,,,,,,,,,,,,,,,,,,,,,,2468.5874989000004,2468.6021072000003,2469.0870871999996,,,,,,,,,,,,,,2469.1024409,,,,,,,,,,,,,2469.0935107999994,2469.1024409,2469.1024409,2469.1024409,2472.102095799999,2472.102095799999,2472.102095799999,2472.087216099999,shoe,f,2.869603200000711,None,2472.0873365999996,2472.0874045,None,,,,,,,,,,,,,,00052,001,2026-01-18_17h28.15.143,MST_task,2024.2.0,59.94927092680129,2026-01-18 17h28.36.082068 +0530,
,Objects\156a.jpg,125,0,126,,,,,,,None,,,f,0.3068882000006852,None,,,,126,0,125,2472.102095799999,,,,,,,,,,,,,,,,,,,,,,,2472.0877416000003,2472.102095799999,2472.5863486,,,,,,,,,,,,,,2472.6023325999995,,,,,,,,,,,,,2472.5941674000005,2472.6023325999995,2472.6023325999995,2472.6023325999995,2475.6022957999994,2475.6022957999994,2475.6022957999994,2475.5869755999993,shoe,None,,,2475.5871293,2475.920258799999,f,2475.6022957999994,2475.6022957999994,0.3068882000006852,None,,,,,,,,,,00052,001,2026-01-18_17h28.15.143,MST_task,2024.2.0,59.94927092680129,2026-01-18 17h28.36.082068 +0530,
,Objects\052a.jpg,126,0,127,,,,,,,None,,,j,1.0097960000002786,None,,,,127,0,126,2475.935343199999,,,,,,,,,,,,,,,,,,,,,,,2475.9205165999992,2475.935343199999,2476.4202222000004,,,,,,,,,,,,,,2476.4355471,,,,,,,,,,,,,2476.430054299999,2476.4355471,2476.4355471,2476.4355471,2479.4354421999997,2479.4354421999997,2479.4354421999997,2479.4204210999997,indoor,None,,,2479.4247887,2480.453989399999,j,2479.4354421999997,2479.4354421999997,1.0097960000002786,None,,,,,,,,,,00052,001,2026-01-18_17h28.15.143,MST_task,2024.2.0,59.94927092680129,2026-01-18 17h28.36.082068 +0530,
,Objects\168a.jpg,127,0,128,,,,,,,None,,,f,3.2996953000001668,None,,,,128,0,127,2480.4688336,,,,,,,,,,,,,,,,,,,,,,,2480.4542101999996,2480.4688336,2480.9530330999987,,,,,,,,,,,,,,2480.9689629000004,,,,,,,,,,,,,2480.9583280999996,2480.9689629000004,2480.9689629000004,2480.9689629000004,2483.968491399999,2483.968491399999,2483.968491399999,2483.9534569999996,indoor,None,,,2483.9535515999996,2487.2701732000005,f,2483.968491399999,2483.968491399999,3.2996953000001668,None,,,,,,,,,,00052,001,2026-01-18_17h28.15.143,MST_task,2024.2.0,59.94927092680129,2026-01-18 17h28.36.082068 +0530,
,Objects\356a.jpg,128,0,129,,,,,,,None,,,j,1.0837099000000308,None,,,,129,0,128,2487.2854798999997,,,,,,,,,,,,,,,,,,,,,,,2487.2705573000003,2487.2854798999997,2487.7696885000005,,,,,,,,,,,,,,2487.7866362999994,,,,,,,,,,,,,2487.7762263000004,2487.7866362999994,2487.7866362999994,2487.7866362999994,2490.7854649,2490.7854649,2490.7854649,2490.7705472999987,indoor,None,,,2490.770716199999,2491.8715558000004,j,2490.7854649,2490.7854649,1.0837099000000308,None,,,,,,,,,,00052,001,2026-01-18_17h28.15.143,MST_task,2024.2.0,59.94927092680129,2026-01-18 17h28.36.082068 +0530,
,Objects\221a.jpg,129,0,130,,,,,,,None,,,j,0.3474055999995471,None,,,,130,0,129,2491.8851360999997,,,,,,,,,,,,,,,,,,,,,,,2491.8718529,2491.8851360999997,2492.3696433999994,,,,,,,,,,,,,,2492.3855561,,,,,,,,,,,,,2492.3753841,2492.3855561,2492.3855561,2492.3855561,2495.3855719999992,2495.3855719999992,2495.3855719999992,2495.370292399999,indoor,None,,,2495.370428,2495.7372514,j,2495.3855719999992,2495.3855719999992,0.3474055999995471,None,,,,,,,,,,00052,001,2026-01-18_17h28.15.143,MST_task,2024.2.0,59.94927092680129,2026-01-18 17h28.36.082068 +0530,
,Objects\021a.jpg,130,0,131,,,,,,,None,,,f,0.2972786999998789,None,,,,131,0,130,2495.7520920999996,,,,,,,,,,,,,,,,,,,,,,,2495.737564699999,2495.7520920999996,2496.236616299999,,,,,,,,,,,,,,2496.252456799999,,,,,,,,,,,,,2496.2438621,2496.252456799999,2496.252456799999,2496.252456799999,2499.251948199999,2499.251948199999,2499.251948199999,2499.2373724999998,indoor,None,,,2499.2374715000005,2499.5536090999994,f,2499.251948199999,2499.251948199999,0.2972786999998789,None,,,,,,,,,,00052,001,2026-01-18_17h28.15.143,MST_task,2024.2.0,59.94927092680129,2026-01-18 17h28.36.082068 +0530,
,Objects\023a.jpg,131,0,132,,,,,,,None,,,f,0.24802850000014587,None,,,,132,0,131,2499.5694783,,,,,,,,,,,,,,,,,,,,,,,2499.553990799999,2499.5694783,2500.052994599999,,,,,,,,,,,,,,2500.0688924999995,,,,,,,,,,,,,2500.0612997999997,2500.0688924999995,2500.0688924999995,2500.0688924999995,2503.0686635,2503.0686635,2503.0686635,2503.054145799999,indoor,None,,,2503.0543036,2503.3202901000004,f,2503.0686635,2503.0686635,0.24802850000014587,None,,,,,,,,,,00052,001,2026-01-18_17h28.15.143,MST_task,2024.2.0,59.94927092680129,2026-01-18 17h28.36.082068 +0530,
,Objects\124a.jpg,132,0,133,,,,,,,None,,,j,0.28199839999979304,None,,,,133,0,132,2503.335266799999,,,,,,,,,,,,,,,,,,,,,,,2503.3205610999994,2503.335266799999,2503.8197413999987,,,,,,,,,,,,,,2503.835452699999,,,,,,,,,,,,,2503.825809599999,2503.835452699999,2503.835452699999,2503.835452699999,2506.835281399999,2506.835281399999,2506.835281399999,2506.8200546999997,indoor,None,,,2506.8201671999996,2507.120380999999,j,2506.835281399999,2506.835281399999,0.28199839999979304,None,,,,,,,,,,00052,001,2026-01-18_17h28.15.143,MST_task,2024.2.0,59.94927092680129,2026-01-18 17h28.36.082068 +0530,
,Objects\306a.jpg,133,0,134,,,,,,,None,,,f,0.5059029000003648,None,,,,134,0,133,2507.1353007,,,,,,,,,,,,,,,,,,,,,,,2507.1205826000005,2507.1353007,2507.619701899999,,,,,,,,,,,,,,2507.6358643000003,,,,,,,,,,,,,2507.628703799999,2507.6358643000003,2507.6358643000003,2507.6358643000003,2510.6352061999987,2510.6352061999987,2510.6352061999987,2510.6207557999987,shoe,None,,,2510.6256746,2511.154316,f,2510.6352061999987,2510.6352061999987,0.5059029000003648,None,,,,,,,,,,00052,001,2026-01-18_17h28.15.143,MST_task,2024.2.0,59.94927092680129,2026-01-18 17h28.36.082068 +0530,
,Objects\068a.jpg,134,0,135,,,,,,,f,2.9275466999988566,None,None,,,,,,135,0,134,2511.168488199999,,,,,,,,,,,,,,,,,,,,,,,2511.1547262999993,2511.168488199999,2511.6529536999988,,,,,,,,,,,,,,2511.669015899999,,,,,,,,,,,,,2511.6591369,2511.669015899999,2511.669015899999,2511.669015899999,2514.6689619999997,2514.6689619999997,2514.6689619999997,2514.652890899999,shoe,f,2.9275466999988566,None,2514.6529542999997,2514.6529747999994,None,,,,,,,,,,,,,,00052,001,2026-01-18_17h28.15.143,MST_task,2024.2.0,59.94927092680129,2026-01-18 17h28.36.082068 +0530,
,Objects\344a.jpg,135,0,136,,,,,,,j,2.940392900000006,None,None,,,,,,136,0,135,2514.6689619999997,,,,,,,,,,,,,,,,,,,,,,,2514.6530672999997,2514.6689619999997,2515.1528665999995,,,,,,,,,,,,,,2515.1691068,,,,,,,,,,,,,2515.1583771999994,2515.1691068,2515.1691068,2515.1691068,2518.1686941999997,2518.1686941999997,2518.1686941999997,2518.1537977999997,shoe,j,2.940392900000006,None,2518.1539434999995,2518.1539974999996,None,,,,,,,,,,,,,,00052,001,2026-01-18_17h28.15.143,MST_task,2024.2.0,59.94927092680129,2026-01-18 17h28.36.082068 +0530,
,Objects\026a.jpg,136,0,137,,,,,,,f,2.84660889999941,None,None,,,,,,137,0,136,2518.1686941999997,,,,,,,,,,,,,,,,,,,,,,,2518.1542675,2518.1686941999997,2518.652917199999,,,,,,,,,,,,,,2518.693484899999,,,,,,,,,,,,,2518.6901863000003,2518.693484899999,2518.693484899999,2518.693484899999,,,,2521.6689831999993,shoe,f,2.84660889999941,None,2521.669157999999,2521.669228499999,None,,,,,,,,,,,,,,00052,001,2026-01-18_17h28.15.143,MST_task,2024.2.0,59.94927092680129,2026-01-18 17h28.36.082068 +0530,
,Objects\310a.jpg,137,0,138,,,,,,,None,,,j,0.29024980000031064,None,,,,138,0,137,2521.685362,,,,,,,,,,,,,,,,,,,,,,,2521.669562699999,2521.685362,2522.1696357,,,,,,,,,,,,,,2522.1865132000003,,,,,,,,,,,,,2522.1782769,2522.1865132000003,2522.1865132000003,2522.1865132000003,,,,2525.1857509,shoe,None,,,2525.185918699999,2525.503954599999,j,2525.2018859,2525.2018859,0.29024980000031064,None,,,,,,,,,,00052,001,2026-01-18_17h28.15.143,MST_task,2024.2.0,59.94927092680129,2026-01-18 17h28.36.082068 +0530,
,Objects\230a.jpg,138,0,139,,,,,,,None,,,j,0.28927560000011,None,,,,139,0,138,2525.5186357000002,,,,,,,,,,,,,,,,,,,,,,,2525.5041991999988,2525.5186357000002,2526.0031566,,,,,,,,,,,,,,2526.0189955999995,,,,,,,,,,,,,2526.0122899999988,2526.0189955999995,2526.0189955999995,2526.0189955999995,2529.0185311000005,2529.0185311000005,2529.0185311000005,2529.004248199999,shoe,None,,,2529.0044104999997,2529.3203651000003,j,2529.0185311000005,2529.0185311000005,0.28927560000011,None,,,,,,,,,,00052,001,2026-01-18_17h28.15.143,MST_task,2024.2.0,59.94927092680129,2026-01-18 17h28.36.082068 +0530,
,Objects\002a.jpg,139,0,140,,,,,,,f,2.9291267999997217,None,None,,,,,,140,0,139,2529.3352682999994,,,,,,,,,,,,,,,,,,,,,,,2529.3208600999988,2529.3352682999994,2529.8196626999998,,,,,,,,,,,,,,2529.8357295000005,,,,,,,,,,,,,2529.827051099999,2529.8357295000005,2529.8357295000005,2529.8357295000005,2532.835337999999,2532.835337999999,2532.835337999999,2532.820630099999,shoe,f,2.9291267999997217,None,2532.8208053,2532.8208766999996,None,,,,,,,,,,,,,,00052,001,2026-01-18_17h28.15.143,MST_task,2024.2.0,59.94927092680129,2026-01-18 17h28.36.082068 +0530,
,Objects\201a.jpg,140,0,141,,,,,,,None,,,j,0.25366500000018277,None,,,,141,0,140,2532.835337999999,,,,,,,,,,,,,,,,,,,,,,,2532.8213189999988,2532.835337999999,2533.3196559999997,,,,,,,,,,,,,,2533.3361650999996,,,,,,,,,,,,,2533.3262176999997,2533.3361650999996,2533.3361650999996,2533.3361650999996,2536.3353334999993,2536.3353334999993,2536.3353334999993,2536.320678799999,indoor,None,,,2536.3252525999997,2536.6036924,j,2536.3353334999993,2536.3353334999993,0.25366500000018277,None,,,,,,,,,,00052,001,2026-01-18_17h28.15.143,MST_task,2024.2.0,59.94927092680129,2026-01-18 17h28.36.082068 +0530,
,Objects\109a.jpg,141,0,142,,,,,,,None,,,f,0.05350459999863233,None,,,,142,0,141,2536.6185609999993,,,,,,,,,,,,,,,,,,,,,,,2536.6040317999996,2536.6185609999993,2537.1032502,,,,,,,,,,,,,,2537.1191156999994,,,,,,,,,,,,,2537.111866899999,2537.1191156999994,2537.1191156999994,2537.1191156999994,2540.118543299999,2540.118543299999,2540.118543299999,2540.1035599999996,indoor,None,,,2540.103717599999,2540.1874429,f,2540.118543299999,2540.118543299999,0.05350459999863233,None,,,,,,,,,,00052,001,2026-01-18_17h28.15.143,MST_task,2024.2.0,59.94927092680129,2026-01-18 17h28.36.082068 +0530,
,Objects\355a.jpg,142,0,143,,,,,,,None,,,j,0.2538727999999537,None,,,,143,0,142,2540.202242899999,,,,,,,,,,,,,,,,,,,,,,,2540.1876680000005,2540.202242899999,2540.6863410999995,,,,,,,,,,,,,,2540.7024390999995,,,,,,,,,,,,,2540.693993499999,2540.7024390999995,2540.7024390999995,2540.7024390999995,2543.7020073000003,2543.7020073000003,2543.7020073000003,2543.6870187999994,indoor,None,,,2543.6871639,2543.9703369,j,2543.7020073000003,2543.7020073000003,0.2538727999999537,None,,,,,,,,,,00052,001,2026-01-18_17h28.15.143,MST_task,2024.2.0,59.94927092680129,2026-01-18 17h28.36.082068 +0530,
,Objects\130a.jpg,143,0,144,,,,,,,None,,,f,2.4705419999991136,None,,,,144,0,143,2543.9852869999995,,,,,,,,,,,,,,,,,,,,,,,2543.9705976999994,2543.9852869999995,2544.4698596,,,,,,,,,,,,,,2544.485934799999,,,,,,,,,,,,,2544.4782335,2544.485934799999,2544.485934799999,2544.485934799999,2547.4853122000004,2547.4853122000004,2547.4853122000004,2547.4704084999994,indoor,None,,,2547.4705921999994,2549.9697405999996,f,2547.4853122000004,2547.4853122000004,2.4705419999991136,None,,,,,,,,,,00052,001,2026-01-18_17h28.15.143,MST_task,2024.2.0,59.94927092680129,2026-01-18 17h28.36.082068 +0530,
,Objects\003a.jpg,144,0,145,,,,,,,None,,,j,0.34304770000017015,None,,,,145,0,144,2549.986091499999,,,,,,,,,,,,,,,,,,,,,,,2549.9698692,2549.986091499999,2550.4699648000005,,,,,,,,,,,,,,2550.4855716,,,,,,,,,,,,,2550.478313899999,2550.4855716,2550.4855716,2550.4855716,2553.485754899999,2553.485754899999,2553.485754899999,2553.470383599999,indoor,None,,,2553.470532399999,2553.8373355000003,j,2553.485754899999,2553.485754899999,0.34304770000017015,None,,,,,,,,,,00052,001,2026-01-18_17h28.15.143,MST_task,2024.2.0,59.94927092680129,2026-01-18 17h28.36.082068 +0530,
,Objects\321a.jpg,145,0,146,,,,,,,None,,,f,0.8437558000005083,None,,,,146,0,145,2553.852035,,,,,,,,,,,,,,,,,,,,,,,2553.8376174000005,2553.852035,2554.3363625,,,,,,,,,,,,,,2554.352427399999,,,,,,,,,,,,,2554.3440508999993,2554.352427399999,2554.352427399999,2554.352427399999,2557.3521318000003,2557.3521318000003,2557.3521318000003,2557.3370995999994,indoor,None,,,2557.3372015000004,2558.203673599999,f,2557.3521318000003,2557.3521318000003,0.8437558000005083,None,,,,,,,,,,00052,001,2026-01-18_17h28.15.143,MST_task,2024.2.0,59.94927092680129,2026-01-18 17h28.36.082068 +0530,
,Objects\025a.jpg,146,0,147,,,,,,,None,,,j,0.2632231999996293,None,,,,147,0,146,2558.2184385,,,,,,,,,,,,,,,,,,,,,,,2558.204018299999,2558.2184385,2558.703093099999,,,,,,,,,,,,,,2558.7189772,,,,,,,,,,,,,2558.7099479999997,2558.7189772,2558.7189772,2558.7189772,2561.7186134999993,2561.7186134999993,2561.7186134999993,2561.703480799999,indoor,None,,,2561.703583499999,2561.987281399999,j,2561.7186134999993,2561.7186134999993,0.2632231999996293,None,,,,,,,,,,00052,001,2026-01-18_17h28.15.143,MST_task,2024.2.0,59.94927092680129,2026-01-18 17h28.36.082068 +0530,
,Objects\346a.jpg,147,0,148,,,,,,,None,,,j,0.5497744000003877,None,,,,148,0,147,2562.0019611999996,,,,,,,,,,,,,,,,,,,,,,,2561.987529099999,2562.0019611999996,2562.4865458000004,,,,,,,,,,,,,,2562.5044173999995,,,,,,,,,,,,,2562.5010394,2562.5044173999995,2562.5044173999995,2562.5044173999995,,,,2565.5020528999994,shoe,None,,,2565.5052964999995,2566.071086,j,2565.518796799999,2565.518796799999,0.5497744000003877,None,,,,,,,,,,00052,001,2026-01-18_17h28.15.143,MST_task,2024.2.0,59.94927092680129,2026-01-18 17h28.36.082068 +0530,
,Objects\143a.jpg,148,0,149,,,,,,,None,,,f,0.46616890000041167,None,,,,149,0,148,2566.0853331,,,,,,,,,,,,,,,,,,,,,,,2566.0714694,2566.0853331,2566.5697258,,,,,,,,,,,,,,2566.5857510999995,,,,,,,,,,,,,2566.5762646000003,2566.5857510999995,2566.5857510999995,2566.5857510999995,2569.585687499999,2569.585687499999,2569.585687499999,2569.5704628999993,shoe,None,,,2569.5705786,2570.054264299999,f,2569.585687499999,2569.585687499999,0.46616890000041167,None,,,,,,,,,,00052,001,2026-01-18_17h28.15.143,MST_task,2024.2.0,59.94927092680129,2026-01-18 17h28.36.082068 +0530,
,Objects\016a.jpg,149,0,150,,,,,,,None,,,f,0.05954159999964759,None,,,,150,0,149,2570.0687290000005,,,,,,,,,,,,,,,,,,,,,,,2570.0546553999993,2570.0687290000005,2570.5530837999995,,,,,,,,,,,,,,2570.5694048000005,,,,,,,,,,,,,2570.5613254,2570.5694048000005,2570.5694048000005,2570.5694048000005,2573.568508799999,2573.568508799999,2573.568508799999,2573.5536653,shoe,None,,,2573.5537679999998,2573.6373504999992,f,2573.568508799999,2573.568508799999,0.05954159999964759,None,,,,,,,,,,00052,001,2026-01-18_17h28.15.143,MST_task,2024.2.0,59.94927092680129,2026-01-18 17h28.36.082068 +0530,
,Objects\207a.jpg,150,0,151,,,,,,,None,,,f,0.5002416999996058,None,,,,151,0,150,2573.6520062,,,,,,,,,,,,,,,,,,,,,,,2573.6377288999993,2573.6520062,2574.1363588999993,,,,,,,,,,,,,,2574.152726999999,,,,,,,,,,,,,2574.1452771999993,2574.152726999999,2574.152726999999,2574.152726999999,2577.1519437999996,2577.1519437999996,2577.1519437999996,2577.137444,shoe,None,,,2577.1376032999997,2577.653527299999,f,2577.1519437999996,2577.1519437999996,0.5002416999996058,None,,,,,,,,,,00052,001,2026-01-18_17h28.15.143,MST_task,2024.2.0,59.94927092680129,2026-01-18 17h28.36.082068 +0530,
,Objects\281a.jpg,151,0,152,,,,,,,None,,,f,0.3718010000011418,None,,,,152,0,151,2577.6685758000003,,,,,,,,,,,,,,,,,,,,,,,2577.6536627000005,2577.6685758000003,2578.153288399999,,,,,,,,,,,,,,2578.1690997999995,,,,,,,,,,,,,2578.1596174999995,2578.1690997999995,2578.1690997999995,2578.1690997999995,2581.168840299999,2581.168840299999,2581.168840299999,2581.1534305000005,shoe,None,,,2581.1535339,2581.5538056999994,f,2581.168840299999,2581.168840299999,0.3718010000011418,None,,,,,,,,,,00052,001,2026-01-18_17h28.15.143,MST_task,2024.2.0,59.94927092680129,2026-01-18 17h28.36.082068 +0530,
,Objects\030a.jpg,152,0,153,,,,,,,f,2.7917625999998563,0.1121462999999494,None,,,,,,153,0,152,2581.568509499999,,,,,,,,,,,,,,,,,,,,,,,2581.5541223,2581.568509499999,2582.0529487999993,,,,,,,,,,,,,,2582.068894099999,,,,,,,,,,,,,2582.0635046999996,2582.068894099999,2582.068894099999,2582.068894099999,2585.0682988999997,2585.0682988999997,2585.0682988999997,2585.0536797000004,shoe,f,2.7917625999998563,0.1121462999999494,2585.053847899999,2585.0539133,None,,,,,,,,,,,,,,00052,001,2026-01-18_17h28.15.143,MST_task,2024.2.0,59.94927092680129,2026-01-18 17h28.36.082068 +0530,
,Objects\224a.jpg,153,0,154,,,,,,,None,,,f,0.2679394000006141,None,,,,154,0,153,2585.0682988999997,,,,,,,,,,,,,,,,,,,,,,,2585.054312799999,2585.0682988999997,2585.5529965999995,,,,,,,,,,,,,,2585.5691962,,,,,,,,,,,,,2585.5615720000005,2585.5691962,2585.5691962,2585.5691962,2588.568689599999,2588.568689599999,2588.568689599999,2588.5538366,shoe,None,,,2588.5540058999995,2588.8539361000003,f,2588.568689599999,2588.568689599999,0.2679394000006141,None,,,,,,,,,,00052,001,2026-01-18_17h28.15.143,MST_task,2024.2.0,59.94927092680129,2026-01-18 17h28.36.082068 +0530,
,Objects\255a.jpg,154,0,155,,,,,,,None,,,f,2.6286666999985755,None,,,,155,0,154,2588.868532999999,,,,,,,,,,,,,,,,,,,,,,,2588.8543381,2588.868532999999,2589.3530778999993,,,,,,,,,,,,,,2589.3692283,,,,,,,,,,,,,2589.3608554,2589.3692283,2589.3692283,2589.3692283,2592.3683887999996,2592.3683887999996,2592.3683887999996,2592.3539765000005,indoor,None,,,2592.3575561999987,2595.0042866999993,f,2592.3683887999996,2592.3683887999996,2.6286666999985755,None,,,,,,,,,,00052,001,2026-01-18_17h28.15.143,MST_task,2024.2.0,59.94927092680129,2026-01-18 17h28.36.082068 +0530,
,Objects\265a.jpg,155,0,156,,,,,,,None,,,j,0.21423870000035095,None,,,,156,0,155,2595.018530899999,,,,,,,,,,,,,,,,,,,,,,,2595.0046404999994,2595.018530899999,2595.5031636000003,,,,,,,,,,,,,,2595.5192279000003,,,,,,,,,,,,,2595.509085599999,2595.5192279000003,2595.5192279000003,2595.5192279000003,2598.5189068,2598.5189068,2598.5189068,2598.503845899999,indoor,None,,,2598.5039916000005,2598.7368177999997,j,2598.5189068,2598.5189068,0.21423870000035095,None,,,,,,,,,,00052,001,2026-01-18_17h28.15.143,MST_task,2024.2.0,59.94927092680129,2026-01-18 17h28.36.082068 +0530,
,Objects\064a.jpg,156,0,157,,,,,,,None,,,j,0.2570090999997774,None,,,,157,0,156,2598.751965199999,,,,,,,,,,,,,,,,,,,,,,,2598.7370948999996,2598.751965199999,2599.2364184,,,,,,,,,,,,,,2599.252540399999,,,,,,,,,,,,,2599.2438616,2599.252540399999,2599.252540399999,2599.252540399999,2602.252059299999,2602.252059299999,2602.252059299999,2602.2370800999997,indoor,None,,,2602.2372522000005,2602.520928099999,j,2602.252059299999,2602.252059299999,0.2570090999997774,None,,,,,,,,,,00052,001,2026-01-18_17h28.15.143,MST_task,2024.2.0,59.94927092680129,2026-01-18 17h28.36.082068 +0530,
,Objects\173a.jpg,157,0,158,,,,,,,None,,,f,0.28060740000000806,None,,,,158,0,157,2602.5354155999994,,,,,,,,,,,,,,,,,,,,,,,2602.5212102000005,2602.5354155999994,2603.0197092,,,,,,,,,,,,,,2603.0358696999992,,,,,,,,,,,,,2603.0279530999996,2603.0358696999992,2603.0358696999992,2603.0358696999992,2606.035616699999,2606.035616699999,2606.035616699999,2606.0204851,indoor,None,,,2606.020672999999,2606.3205906000003,f,2606.035616699999,2606.035616699999,0.28060740000000806,None,,,,,,,,,,00052,001,2026-01-18_17h28.15.143,MST_task,2024.2.0,59.94927092680129,2026-01-18 17h28.36.082068 +0530,
,Objects\061a.jpg,158,0,159,,,,,,,None,,,j,0.13695449999977427,None,,,,159,0,158,2606.3352560000003,,,,,,,,,,,,,,,,,,,,,,,2606.3208911,2606.3352560000003,2606.8201260000005,,,,,,,,,,,,,,2606.8355467,,,,,,,,,,,,,2606.8276606,2606.8355467,2606.8355467,2606.8355467,2609.8352187,2609.8352187,2609.8352187,2609.820537899999,indoor,None,,,2609.8207015999997,2609.9873497999997,j,2609.8352187,2609.8352187,0.13695449999977427,None,,,,,,,,,,00052,001,2026-01-18_17h28.15.143,MST_task,2024.2.0,59.94927092680129,2026-01-18 17h28.36.082068 +0530,
,Objects\033a.jpg,159,0,160,,,,,,,f,2.9181153000008635,None,None,,,,,,160,0,159,2610.0026684999993,,,,,,,,,,,,,,,,,,,,,,,2609.987577599999,2610.0026684999993,2610.4864450999994,,,,,,,,,,,,,,2610.502273099999,,,,,,,,,,,,,2610.4924668999993,2610.502273099999,2610.502273099999,2610.502273099999,2613.502163199999,2613.502163199999,2613.502163199999,2613.4866607999993,indoor,f,2.9181153000008635,None,2613.4868339000004,2613.4869034000003,None,,,,,,,,,,,,,,00052,001,2026-01-18_17h28.15.143,MST_task,2024.2.0,59.94927092680129,2026-01-18 17h28.36.082068 +0530,
,Objects\291a.jpg,160,0,161,,,,,,,None,,,f,0.842271499999697,None,,,,161,0,160,2613.502163199999,,,,,,,,,,,,,,,,,,,,,,,2613.4871203000002,2613.502163199999,2613.9858466000005,,,,,,,,,,,,,,2614.0022976,,,,,,,,,,,,,2613.9930434999987,2614.0022976,2614.0022976,2614.0022976,2617.0020535999993,2617.0020535999993,2617.0020535999993,2616.9872753,indoor,None,,,2616.9873843000005,2617.8541490999996,f,2617.0020535999993,2617.0020535999993,0.842271499999697,None,,,,,,,,,,00052,001,2026-01-18_17h28.15.143,MST_task,2024.2.0,59.94927092680129,2026-01-18 17h28.36.082068 +0530,
