thisN,thisTrialN,thisRepN,key_resp_3.keys,key_resp_3.rt,key_resp_3.duration,trials.thisRepN,trials.thisTrialN,trials.thisN,thisRow.t,notes,intro_page.started,text.started,key_resp.started,intro_page.stopped,key_resp.keys,key_resp.rt,key_resp.duration,instructions.started,text_2.started,key_resp_2.started,instructions.stopped,key_resp_2.keys,key_resp_2.rt,key_resp_2.duration,demo1.started,image_1.started,image_2.started,text_7.started,key_resp_6.started,text_9.started,demo1.stopped,key_resp_6.keys,key_resp_6.rt,key_resp_6.duration,demo3.started,image_5.started,image_6.started,text_11.started,text_12.started,key_resp_8.started,demo3.stopped,key_resp_8.keys,key_resp_8.rt,key_resp_8.duration,demo_conclusion.started,text_13.started,key_resp_9.started,demo_conclusion.stopped,key_resp_9.keys,key_resp_9.rt,key_resp_9.duration,start_test.started,text_6.started,key_resp_5.started,start_test.stopped,key_resp_5.keys,key_resp_5.rt,key_resp_5.duration,ISI.started,text_4.started,text_4.stopped,ISI.stopped,routine_1.started,image.started,text_3.started,key_resp_3.started,routine_1.stopped,image_path,position_of_stimuli,trials.key_resp_3.keys,trials.key_resp_3.rt,trials.key_resp_3.duration,End_page.started,text_5.started,key_resp_4.started,End_page.stopped,key_resp_4.keys,key_resp_4.rt,key_resp_4.duration,participant,session,date,expName,psychopyVersion,frameRate,expStart,
,,,,,,,,,,,0.001118200016207993,0.0026495999773032963,0.0026495999773032963,3.0965807999600656,space,3.076002800022252,None,,,,,,,,,,,,,,,,,,,,,,,,,,,,,,,,,,,,,,,,,,,,,,,,,,,,,,,,,,,,,,,00053,001,2026-01-18_19h05.55.236,MST_test,2024.2.0,60.055839911674546,2026-01-18 19h06.10.848303 +0530,
,,,,,,,,,,,,,,,,,,3.0966221999842674,3.1113650999614038,3.1113650999614038,16.095730900007766,space,12.967708100040909,None,,,,,,,,,,,,,,,,,,,,,,,,,,,,,,,,,,,,,,,,,,,,,,,,,,,,,,,,00053,001,2026-01-18_19h05.55.236,MST_test,2024.2.0,60.055839911674546,2026-01-18 19h06.10.848303 +0530,
,,,,,,,,,,,,,,,,,,,,,,,,,16.095759099989664,16.111917899979744,16.111917899979744,16.111917899979744,16.111917899979744,16.111917899979744,20.845518699963577,space,4.719889800006058,None,,,,,,,,,,,,,,,,,,,,,,,,,,,,,,,,,,,,,,,,,,,,,,00053,001,2026-01-18_19h05.55.236,MST_test,2024.2.0,60.055839911674546,2026-01-18 19h06.10.848303 +0530,
,,,,,,,,,,,,,,,,,,,,,,,,,,,,,,,,,,,20.845547200005967,20.8619840000174,20.8619840000174,20.8619840000174,20.8619840000174,20.8619840000174,23.595739000011235,space,2.721098299953155,None,,,,,,,,,,,,,,,,,,,,,,,,,,,,,,,,,,,,00053,001,2026-01-18_19h05.55.236,MST_test,2024.2.0,60.055839911674546,2026-01-18 19h06.10.848303 +0530,
,,,,,,,,,,,,,,,,,,,,,,,,,,,,,,,,,,,,,,,,,,,,,23.595770599960815,23.611503899970558,23.611503899970558,113.1954592000111,space,89.5794369999785,None,,,,,,,,,,,,,,,,,,,,,,,,,,,,,00053,001,2026-01-18_19h05.55.236,MST_test,2024.2.0,60.055839911674546,2026-01-18 19h06.10.848303 +0530,
,,,,,,,,,,,,,,,,,,,,,,,,,,,,,,,,,,,,,,,,,,,,,,,,,,,,113.19550119998166,113.2149717999855,113.2149717999855,121.79529789998196,space,8.576188799983356,None,,,,,,,,,,,,,,,,,,,,,,00053,001,2026-01-18_19h05.55.236,MST_test,2024.2.0,60.055839911674546,2026-01-18 19h06.10.848303 +0530,
0,0,1,n,2.9541779999854043,None,1,0,0,121.81133940001018,,,,,,,,,,,,,,,,,,,,,,,,,,,,,,,,,,,,,,,,,,,,,,,,,,121.79891830001725,121.81133940001018,122.31688240001677,122.29498259996762,122.3146921999869,122.31688240001677,122.31688240001677,122.31688240001677,125.27859940001508,Foils\093b.jpg,none,n,2.9541779999854043,None,,,,,,,,00053,001,2026-01-18_19h05.55.236,MST_test,2024.2.0,60.055839911674546,2026-01-18 19h06.10.848303 +0530,
1,0,2,o,5.139576599991415,None,2,0,1,125.29483109997818,,,,,,,,,,,,,,,,,,,,,,,,,,,,,,,,,,,,,,,,,,,,,,,,,,125.27868920000037,125.29483109997818,125.79519149998669,125.77834499999881,125.78925009997329,125.79519149998669,125.79519149998669,125.79519149998669,130.9461367999902,Objects\374b.jpg,mid,o,5.139576599991415,None,,,,,,,,00053,001,2026-01-18_19h05.55.236,MST_test,2024.2.0,60.055839911674546,2026-01-18 19h06.10.848303 +0530,
2,0,3,s,3.753310700005386,None,3,0,2,130.96154509996995,,,,,,,,,,,,,,,,,,,,,,,,,,,,,,,,,,,,,,,,,,,,,,,,,,130.94622899999376,130.96154509996995,131.46191169996746,131.44506019999972,131.45654049998848,131.46191169996746,131.46191169996746,131.46191169996746,135.2286462999764,Objects\118b.jpg,post,s,3.753310700005386,None,,,,,,,,00053,001,2026-01-18_19h05.55.236,MST_test,2024.2.0,60.055839911674546,2026-01-18 19h06.10.848303 +0530,
3,0,4,s,2.6371131000341848,None,4,0,3,135.24478339997586,,,,,,,,,,,,,,,,,,,,,,,,,,,,,,,,,,,,,,,,,,,,,,,,,,135.22873799997615,135.24478339997586,135.74510140001075,135.72844969999278,135.73934839997673,135.74510140001075,135.74510140001075,135.74510140001075,138.39549299998907,Objects\311b.jpg,pre,s,2.6371131000341848,None,,,,,,,,00053,001,2026-01-18_19h05.55.236,MST_test,2024.2.0,60.055839911674546,2026-01-18 19h06.10.848303 +0530,
4,0,5,s,5.111228799971286,None,5,0,4,138.41158429998904,,,,,,,,,,,,,,,,,,,,,,,,,,,,,,,,,,,,,,,,,,,,,,,,,,138.3955818999675,138.41158429998904,138.91181510000024,138.89513610000722,138.89781819999916,138.91181510000024,138.91181510000024,138.91181510000024,144.0286299000145,Objects\036a.jpg,post,s,5.111228799971286,None,,,,,,,,00053,001,2026-01-18_19h05.55.236,MST_test,2024.2.0,60.055839911674546,2026-01-18 19h06.10.848303 +0530,
5,0,6,o,4.637218799965922,None,6,0,5,144.04492359998403,,,,,,,,,,,,,,,,,,,,,,,,,,,,,,,,,,,,,,,,,,,,,,,,,,144.0287204000051,144.04492359998403,144.5453352999757,144.52848249999806,144.53212200000416,144.5453352999757,144.5453352999757,144.5453352999757,149.1953826000099,Objects\238a.jpg,pre,o,4.637218799965922,None,,,,,,,,00053,001,2026-01-18_19h05.55.236,MST_test,2024.2.0,60.055839911674546,2026-01-18 19h06.10.848303 +0530,
6,0,7,o,1.7511238000006415,None,7,0,6,149.2115341000026,,,,,,,,,,,,,,,,,,,,,,,,,,,,,,,,,,,,,,,,,,,,,,,,,,149.19547400000738,149.2115341000026,149.71188269997947,149.69502929999726,149.69950909999898,149.71188269997947,149.71188269997947,149.71188269997947,151.4786063999636,Objects\157a.jpg,pre,o,1.7511238000006415,None,,,,,,,,00053,001,2026-01-18_19h05.55.236,MST_test,2024.2.0,60.055839911674546,2026-01-18 19h06.10.848303 +0530,
7,0,8,o,6.7716560999979265,None,8,0,7,151.49487339996267,,,,,,,,,,,,,,,,,,,,,,,,,,,,,,,,,,,,,,,,,,,,,,,,,,151.47869760001777,151.49487339996267,151.995030399994,151.9783538999618,151.9806945999735,151.995030399994,151.995030399994,151.995030399994,158.77860929997405,Objects\307a.jpg,mid,o,6.7716560999979265,None,,,,,,,,00053,001,2026-01-18_19h05.55.236,MST_test,2024.2.0,60.055839911674546,2026-01-18 19h06.10.848303 +0530,
8,0,9,o,3.5759426999720745,None,9,0,8,158.7947291000164,,,,,,,,,,,,,,,,,,,,,,,,,,,,,,,,,,,,,,,,,,,,,,,,,,158.77870039996924,158.7947291000164,159.29512179997982,159.27829220000422,159.2897183999885,159.29512179997982,159.29512179997982,159.29512179997982,162.87856430001557,Objects\056b.jpg,mid,o,3.5759426999720745,None,,,,,,,,00053,001,2026-01-18_19h05.55.236,MST_test,2024.2.0,60.055839911674546,2026-01-18 19h06.10.848303 +0530,
9,0,10,o,1.995254700013902,None,10,0,9,162.894780099974,,,,,,,,,,,,,,,,,,,,,,,,,,,,,,,,,,,,,,,,,,,,,,,,,,162.87865769997006,162.894780099974,163.3951151999645,163.3784195999615,163.3892399999895,163.3951151999645,163.3951151999645,163.3951151999645,165.39541699999245,Objects\174b.jpg,pre,o,1.995254700013902,None,,,,,,,,00053,001,2026-01-18_19h05.55.236,MST_test,2024.2.0,60.055839911674546,2026-01-18 19h06.10.848303 +0530,
10,0,11,s,2.567695499979891,None,11,0,10,165.41152379999403,,,,,,,,,,,,,,,,,,,,,,,,,,,,,,,,,,,,,,,,,,,,,,,,,,165.39550929999677,165.41152379999403,165.91176739998627,165.8950168999727,165.90507649997016,165.91176739998627,165.91176739998627,165.91176739998627,168.4953164999606,Objects\261b.jpg,mid,s,2.567695499979891,None,,,,,,,,00053,001,2026-01-18_19h05.55.236,MST_test,2024.2.0,60.055839911674546,2026-01-18 19h06.10.848303 +0530,
11,0,12,s,5.4506480999989435,None,12,0,11,168.5114643999841,,,,,,,,,,,,,,,,,,,,,,,,,,,,,,,,,,,,,,,,,,,,,,,,,,168.4954189999844,168.5114643999841,169.0117559999926,168.9949726999621,169.0048400000087,169.0117559999926,169.0117559999926,169.0117559999926,174.47888179996517,Objects\160b.jpg,post,s,5.4506480999989435,None,,,,,,,,00053,001,2026-01-18_19h05.55.236,MST_test,2024.2.0,60.055839911674546,2026-01-18 19h06.10.848303 +0530,
12,0,13,o,4.619888400018681,None,13,0,12,174.49476159998449,,,,,,,,,,,,,,,,,,,,,,,,,,,,,,,,,,,,,,,,,,,,,,,,,,174.47897709999233,174.49476159998449,174.99503799999366,174.97840249998262,174.98158399999375,174.99503799999366,174.99503799999366,174.99503799999366,179.62852859997656,Objects\298a.jpg,mid,o,4.619888400018681,None,,,,,,,,00053,001,2026-01-18_19h05.55.236,MST_test,2024.2.0,60.055839911674546,2026-01-18 19h06.10.848303 +0530,
13,0,14,n,1.6378337999922223,None,14,0,13,179.64478339999914,,,,,,,,,,,,,,,,,,,,,,,,,,,,,,,,,,,,,,,,,,,,,,,,,,179.62862540001515,179.64478339999914,180.14512339996872,180.1281675999635,180.13850669999374,180.14512339996872,180.14512339996872,180.14512339996872,181.79541700001573,Foils\081a.jpg,none,n,1.6378337999922223,None,,,,,,,,00053,001,2026-01-18_19h05.55.236,MST_test,2024.2.0,60.055839911674546,2026-01-18 19h06.10.848303 +0530,
14,0,15,o,2.575421799963806,None,15,0,14,181.81142310000723,,,,,,,,,,,,,,,,,,,,,,,,,,,,,,,,,,,,,,,,,,,,,,,,,,181.79551109997556,181.81142310000723,182.31167640001513,182.2949798000045,182.2979116999777,182.31167640001513,182.31167640001513,182.31167640001513,184.89539419999346,Objects\378a.jpg,mid,o,2.575421799963806,None,,,,,,,,00053,001,2026-01-18_19h05.55.236,MST_test,2024.2.0,60.055839911674546,2026-01-18 19h06.10.848303 +0530,
15,0,16,o,1.811362599954009,None,16,0,15,184.91146299999673,,,,,,,,,,,,,,,,,,,,,,,,,,,,,,,,,,,,,,,,,,,,,,,,,,184.89548329997342,184.91146299999673,185.41160859999945,185.39504570001736,185.3975575999939,185.41160859999945,185.41160859999945,185.41160859999945,187.22843690001173,Objects\313a.jpg,post,o,1.811362599954009,None,,,,,,,,00053,001,2026-01-18_19h05.55.236,MST_test,2024.2.0,60.055839911674546,2026-01-18 19h06.10.848303 +0530,
16,0,17,s,1.8775360999861732,None,17,0,16,187.24478579999413,,,,,,,,,,,,,,,,,,,,,,,,,,,,,,,,,,,,,,,,,,,,,,,,,,187.22852659999626,187.24478579999413,187.74518349999562,187.72822829999495,187.73940710001625,187.74518349999562,187.74518349999562,187.74518349999562,189.6285852000001,Objects\327b.jpg,pre,s,1.8775360999861732,None,,,,,,,,00053,001,2026-01-18_19h05.55.236,MST_test,2024.2.0,60.055839911674546,2026-01-18 19h06.10.848303 +0530,
17,0,18,s,3.053167600010056,None,18,0,17,189.64476270001614,,,,,,,,,,,,,,,,,,,,,,,,,,,,,,,,,,,,,,,,,,,,,,,,,,189.62868749996414,189.64476270001614,190.14512200001627,190.1283425000147,190.13870439998573,190.14512200001627,190.14512200001627,190.14512200001627,193.21193170000333,Objects\290b.jpg,mid,s,3.053167600010056,None,,,,,,,,00053,001,2026-01-18_19h05.55.236,MST_test,2024.2.0,60.055839911674546,2026-01-18 19h06.10.848303 +0530,
18,0,19,o,1.4386579999700189,None,19,0,18,193.22804999997607,,,,,,,,,,,,,,,,,,,,,,,,,,,,,,,,,,,,,,,,,,,,,,,,,,193.2120217999909,193.22804999997607,193.72828849998768,193.7117454999825,193.71517450001556,193.72828849998768,193.72828849998768,193.72828849998768,195.17840829998022,Objects\285a.jpg,pre,o,1.4386579999700189,None,,,,,,,,00053,001,2026-01-18_19h05.55.236,MST_test,2024.2.0,60.055839911674546,2026-01-18 19h06.10.848303 +0530,
19,0,20,s,6.455199200019706,None,20,0,19,195.1948160000029,,,,,,,,,,,,,,,,,,,,,,,,,,,,,,,,,,,,,,,,,,,,,,,,,,195.17849779996322,195.1948160000029,,195.67901129997335,195.68949819996487,195.69549040001584,195.69549040001584,195.69549040001584,202.16202899999917,Objects\339b.jpg,post,s,6.455199200019706,None,,,,,,,,00053,001,2026-01-18_19h05.55.236,MST_test,2024.2.0,60.055839911674546,2026-01-18 19h06.10.848303 +0530,
20,0,21,s,5.4327917000046,None,21,0,20,202.17803589999676,,,,,,,,,,,,,,,,,,,,,,,,,,,,,,,,,,,,,,,,,,,,,,,,,,202.16211929998826,202.17803589999676,202.6783767999732,202.66163529996993,202.67065129999537,202.6783767999732,202.6783767999732,202.6783767999732,208.11197669996182,Objects\359b.jpg,post,s,5.4327917000046,None,,,,,,,,00053,001,2026-01-18_19h05.55.236,MST_test,2024.2.0,60.055839911674546,2026-01-18 19h06.10.848303 +0530,
21,0,22,n,2.402715399977751,None,22,0,21,208.12795090000145,,,,,,,,,,,,,,,,,,,,,,,,,,,,,,,,,,,,,,,,,,,,,,,,,,208.1120665000053,208.12795090000145,208.6284583999659,208.61169360001804,208.62274899997283,208.6284583999659,208.6284583999659,208.6284583999659,211.0453717999626,Foils\017a.jpg,none,n,2.402715399977751,None,,,,,,,,00053,001,2026-01-18_19h05.55.236,MST_test,2024.2.0,60.055839911674546,2026-01-18 19h06.10.848303 +0530,
22,0,23,n,1.5815978999598883,None,23,0,22,211.06138480000664,,,,,,,,,,,,,,,,,,,,,,,,,,,,,,,,,,,,,,,,,,,,,,,,,,211.04546300001675,211.06138480000664,211.56167299998924,211.5450577000156,211.55487310001627,211.56167299998924,211.56167299998924,211.56167299998924,213.14549510000506,Foils\097a.jpg,none,n,1.5815978999598883,None,,,,,,,,00053,001,2026-01-18_19h05.55.236,MST_test,2024.2.0,60.055839911674546,2026-01-18 19h06.10.848303 +0530,
23,0,24,o,1.2088712000404485,None,24,0,23,213.16142499999842,,,,,,,,,,,,,,,,,,,,,,,,,,,,,,,,,,,,,,,,,,,,,,,,,,213.14559440000448,213.16142499999842,213.66200760001084,213.6450840999605,213.64824780001072,213.66200760001084,213.66200760001084,213.66200760001084,214.8788795999717,Objects\300a.jpg,mid,o,1.2088712000404485,None,,,,,,,,00053,001,2026-01-18_19h05.55.236,MST_test,2024.2.0,60.055839911674546,2026-01-18 19h06.10.848303 +0530,
24,0,25,s,1.9471054000314325,None,25,0,24,214.89496309997048,,,,,,,,,,,,,,,,,,,,,,,,,,,,,,,,,,,,,,,,,,,,,,,,,,214.87898029998178,214.89496309997048,215.39518649998354,215.37832650000928,215.39029309997568,215.39518649998354,215.39518649998354,215.39518649998354,217.34537769999588,Objects\054b.jpg,post,s,1.9471054000314325,None,,,,,,,,00053,001,2026-01-18_19h05.55.236,MST_test,2024.2.0,60.055839911674546,2026-01-18 19h06.10.848303 +0530,
25,0,26,s,1.6813603999908082,None,26,0,25,217.36138949997257,,,,,,,,,,,,,,,,,,,,,,,,,,,,,,,,,,,,,,,,,,,,,,,,,,217.34546759998193,217.36138949997257,217.86169819999486,217.84512820001692,217.85500609996961,217.86169819999486,217.86169819999486,217.86169819999486,219.54537429998163,Objects\380b.jpg,pre,s,1.6813603999908082,None,,,,,,,,00053,001,2026-01-18_19h05.55.236,MST_test,2024.2.0,60.055839911674546,2026-01-18 19h06.10.848303 +0530,
26,0,27,o,2.057497199974023,None,27,0,26,219.56144989997847,,,,,,,,,,,,,,,,,,,,,,,,,,,,,,,,,,,,,,,,,,,,,,,,,,219.54546980001032,219.56144989997847,220.06164460000582,220.04507290001493,220.04759639996337,220.06164460000582,220.06164460000582,220.06164460000582,222.12847719999263,Objects\179a.jpg,post,o,2.057497199974023,None,,,,,,,,00053,001,2026-01-18_19h05.55.236,MST_test,2024.2.0,60.055839911674546,2026-01-18 19h06.10.848303 +0530,
27,0,28,s,2.0666218000114895,None,28,0,27,222.1447998000076,,,,,,,,,,,,,,,,,,,,,,,,,,,,,,,,,,,,,,,,,,,,,,,,,,222.1285680999863,222.1447998000076,222.64516959997127,222.6283584999619,222.6308981999755,222.64516959997127,222.64516959997127,222.64516959997127,224.71255880000535,Objects\292a.jpg,mid,s,2.0666218000114895,None,,,,,,,,00053,001,2026-01-18_19h05.55.236,MST_test,2024.2.0,60.055839911674546,2026-01-18 19h06.10.848303 +0530,
28,0,29,s,1.4820284000015818,None,29,0,28,224.7280943999649,,,,,,,,,,,,,,,,,,,,,,,,,,,,,,,,,,,,,,,,,,,,,,,,,,224.7126644999953,224.7280943999649,225.22833919996629,225.21168979996582,225.21490099997027,225.22833919996629,225.22833919996629,225.22833919996629,226.7120244000107,Objects\308a.jpg,pre,s,1.4820284000015818,None,,,,,,,,00053,001,2026-01-18_19h05.55.236,MST_test,2024.2.0,60.055839911674546,2026-01-18 19h06.10.848303 +0530,
29,0,30,s,1.594001899997238,None,30,0,29,226.72805029997835,,,,,,,,,,,,,,,,,,,,,,,,,,,,,,,,,,,,,,,,,,,,,,,,,,226.7121152000036,226.72805029997835,227.22849409998162,227.21180519997142,227.22308929997962,227.22849409998162,227.22849409998162,227.22849409998162,228.82875829999102,Objects\358b.jpg,mid,s,1.594001899997238,None,,,,,,,,00053,001,2026-01-18_19h05.55.236,MST_test,2024.2.0,60.055839911674546,2026-01-18 19h06.10.848303 +0530,
30,0,31,o,1.3892202000133693,None,31,0,30,228.8447258999804,,,,,,,,,,,,,,,,,,,,,,,,,,,,,,,,,,,,,,,,,,,,,,,,,,228.82885629998054,228.8447258999804,229.34519099997124,229.3284224999952,229.33168800000567,229.34519099997124,229.34519099997124,229.34519099997124,230.74553949997062,Objects\288a.jpg,post,o,1.3892202000133693,None,,,,,,,,00053,001,2026-01-18_19h05.55.236,MST_test,2024.2.0,60.055839911674546,2026-01-18 19h06.10.848303 +0530,
31,0,32,s,3.4574582000495866,None,32,0,31,230.76149409997743,,,,,,,,,,,,,,,,,,,,,,,,,,,,,,,,,,,,,,,,,,,,,,,,,,230.74563199997647,230.76149409997743,231.26186610001605,231.24506029998884,231.25609139999142,231.26186610001605,231.26186610001605,231.26186610001605,234.7286674999632,Foils\086a.jpg,none,s,3.4574582000495866,None,,,,,,,,00053,001,2026-01-18_19h05.55.236,MST_test,2024.2.0,60.055839911674546,2026-01-18 19h06.10.848303 +0530,
32,0,33,n,2.042253699968569,None,33,0,32,234.74479540000902,,,,,,,,,,,,,,,,,,,,,,,,,,,,,,,,,,,,,,,,,,,,,,,,,,234.72877059999155,234.74479540000902,235.2449719000142,235.22831360000418,235.23847109999042,235.2449719000142,235.2449719000142,235.2449719000142,237.29529589996673,Foils\073a.jpg,none,n,2.042253699968569,None,,,,,,,,00053,001,2026-01-18_19h05.55.236,MST_test,2024.2.0,60.055839911674546,2026-01-18 19h06.10.848303 +0530,
33,0,34,s,4.41087590000825,None,34,0,33,237.31145569996443,,,,,,,,,,,,,,,,,,,,,,,,,,,,,,,,,,,,,,,,,,,,,,,,,,237.29538699996192,237.31145569996443,237.81168179999804,237.79512069997145,237.80497399996966,237.81168179999804,237.81168179999804,237.81168179999804,242.22886629996356,Objects\102b.jpg,mid,s,4.41087590000825,None,,,,,,,,00053,001,2026-01-18_19h05.55.236,MST_test,2024.2.0,60.055839911674546,2026-01-18 19h06.10.848303 +0530,
34,0,35,o,1.2220935999648646,None,35,0,34,242.24480370001402,,,,,,,,,,,,,,,,,,,,,,,,,,,,,,,,,,,,,,,,,,,,,,,,,,242.2289720000117,242.24480370001402,242.74494959996082,242.7282565999776,242.7309915999649,242.74494959996082,242.74494959996082,242.74494959996082,243.97873109998181,Objects\191a.jpg,pre,o,1.2220935999648646,None,,,,,,,,00053,001,2026-01-18_19h05.55.236,MST_test,2024.2.0,60.055839911674546,2026-01-18 19h06.10.848303 +0530,
35,0,36,o,1.3759871000074781,None,36,0,35,243.99489989998983,,,,,,,,,,,,,,,,,,,,,,,,,,,,,,,,,,,,,,,,,,,,,,,,,,243.97882369998842,243.99489989998983,244.49506809999002,244.47839730000123,244.48070670000743,244.49506809999002,244.49506809999002,244.49506809999002,245.8789975999971,Objects\347a.jpg,mid,o,1.3759871000074781,None,,,,,,,,00053,001,2026-01-18_19h05.55.236,MST_test,2024.2.0,60.055839911674546,2026-01-18 19h06.10.848303 +0530,
36,0,37,o,0.9793724000337534,None,37,0,36,245.89497949997894,,,,,,,,,,,,,,,,,,,,,,,,,,,,,,,,,,,,,,,,,,,,,,,,,,245.87910279998323,245.89497949997894,246.39505019999342,246.3784733999637,246.38088259997312,246.39505019999342,246.39505019999342,246.39505019999342,247.37884019996272,Objects\122a.jpg,pre,o,0.9793724000337534,None,,,,,,,,00053,001,2026-01-18_19h05.55.236,MST_test,2024.2.0,60.055839911674546,2026-01-18 19h06.10.848303 +0530,
37,0,38,o,1.1115180000197142,None,38,0,37,247.39493879996007,,,,,,,,,,,,,,,,,,,,,,,,,,,,,,,,,,,,,,,,,,,,,,,,,,247.37894600001164,247.39493879996007,247.89523049996933,247.87851489998866,247.88825469999574,247.89523049996933,247.89523049996933,247.89523049996933,249.0121981999837,Objects\046b.jpg,post,o,1.1115180000197142,None,,,,,,,,00053,001,2026-01-18_19h05.55.236,MST_test,2024.2.0,60.055839911674546,2026-01-18 19h06.10.848303 +0530,
38,0,39,s,6.574534100014716,None,39,0,38,249.02822229999583,,,,,,,,,,,,,,,,,,,,,,,,,,,,,,,,,,,,,,,,,,,,,,,,,,249.0122939000139,249.02822229999583,249.52839749999112,249.51186610001605,249.52184309996665,249.52839749999112,249.52839749999112,249.52839749999112,256.1124543999904,Objects\134b.jpg,mid,s,6.574534100014716,None,,,,,,,,00053,001,2026-01-18_19h05.55.236,MST_test,2024.2.0,60.055839911674546,2026-01-18 19h06.10.848303 +0530,
39,0,40,s,2.418327399995178,None,40,0,39,256.128132599988,,,,,,,,,,,,,,,,,,,,,,,,,,,,,,,,,,,,,,,,,,,,,,,,,,256.11254529998405,256.128132599988,256.6282686999766,256.6123191000079,256.6225780000095,256.6282686999766,256.6282686999766,256.6282686999766,259.0620319999871,Objects\114b.jpg,post,s,2.418327399995178,None,,,,,,,,00053,001,2026-01-18_19h05.55.236,MST_test,2024.2.0,60.055839911674546,2026-01-18 19h06.10.848303 +0530,
40,0,41,n,4.195902500010561,None,41,0,40,259.07819649996236,,,,,,,,,,,,,,,,,,,,,,,,,,,,,,,,,,,,,,,,,,,,,,,,,,259.06212159997085,259.07819649996236,259.578755799972,259.5617513000034,259.5740913999616,259.578755799972,259.578755799972,259.578755799972,263.77897559996927,Foils\042a.jpg,none,n,4.195902500010561,None,,,,,,,,00053,001,2026-01-18_19h05.55.236,MST_test,2024.2.0,60.055839911674546,2026-01-18 19h06.10.848303 +0530,
41,0,42,o,2.031148799986113,None,42,0,41,263.7948264000006,,,,,,,,,,,,,,,,,,,,,,,,,,,,,,,,,,,,,,,,,,,,,,,,,,263.779066899966,263.7948264000006,264.2950630999985,264.27847059996566,264.28869680000935,264.2950630999985,264.2950630999985,264.2950630999985,266.3287590999971,Objects\097b.jpg,post,o,2.031148799986113,None,,,,,,,,00053,001,2026-01-18_19h05.55.236,MST_test,2024.2.0,60.055839911674546,2026-01-18 19h06.10.848303 +0530,
42,0,43,s,4.161090199952014,None,43,0,42,266.3449237999739,,,,,,,,,,,,,,,,,,,,,,,,,,,,,,,,,,,,,,,,,,,,,,,,,,266.32884989999,266.3449237999739,266.84532650001347,266.82855559996096,266.838911800005,266.84532650001347,266.84532650001347,266.84532650001347,271.01210439996794,Objects\315b.jpg,post,s,4.161090199952014,None,,,,,,,,00053,001,2026-01-18_19h05.55.236,MST_test,2024.2.0,60.055839911674546,2026-01-18 19h06.10.848303 +0530,
43,0,44,n,5.574548400007188,None,44,0,43,271.0282252000179,,,,,,,,,,,,,,,,,,,,,,,,,,,,,,,,,,,,,,,,,,,,,,,,,,271.01219390000915,271.0282252000179,271.5285467999638,271.51180889998795,271.52213260001736,271.5285467999638,271.5285467999638,271.5285467999638,277.11219650000567,Objects\301b.jpg,mid,n,5.574548400007188,None,,,,,,,,00053,001,2026-01-18_19h05.55.236,MST_test,2024.2.0,60.055839911674546,2026-01-18 19h06.10.848303 +0530,
44,0,45,s,1.80252319999272,None,45,0,44,277.1281336999964,,,,,,,,,,,,,,,,,,,,,,,,,,,,,,,,,,,,,,,,,,,,,,,,,,277.11228760000085,277.1281336999964,277.6287134999875,277.6118539000163,277.62391680001747,277.6287134999875,277.6287134999875,277.6287134999875,279.4454532999662,Foils\057a.jpg,none,s,1.80252319999272,None,,,,,,,,00053,001,2026-01-18_19h05.55.236,MST_test,2024.2.0,60.055839911674546,2026-01-18 19h06.10.848303 +0530,
45,0,46,n,3.6366411999915726,None,46,0,45,279.46157619997393,,,,,,,,,,,,,,,,,,,,,,,,,,,,,,,,,,,,,,,,,,,,,,,,,,279.4455420000013,279.46157619997393,279.9618448999827,279.94529120001243,279.95832370000426,279.9618448999827,279.9618448999827,279.9618448999827,283.61211429996183,Foils\002a.jpg,none,n,3.6366411999915726,None,,,,,,,,00053,001,2026-01-18_19h05.55.236,MST_test,2024.2.0,60.055839911674546,2026-01-18 19h06.10.848303 +0530,
46,0,47,s,1.462348600034602,None,47,0,46,283.62800319999224,,,,,,,,,,,,,,,,,,,,,,,,,,,,,,,,,,,,,,,,,,,,,,,,,,283.6122167999856,283.62800319999224,284.1283652000129,284.1118271999876,284.1226507999818,284.1283652000129,284.1283652000129,284.1283652000129,285.59540749998996,Objects\144b.jpg,mid,s,1.462348600034602,None,,,,,,,,00053,001,2026-01-18_19h05.55.236,MST_test,2024.2.0,60.055839911674546,2026-01-18 19h06.10.848303 +0530,
47,0,48,o,1.2628181999898516,None,48,0,47,285.6115524999914,,,,,,,,,,,,,,,,,,,,,,,,,,,,,,,,,,,,,,,,,,,,,,,,,,285.59549809998134,285.6115524999914,286.1118716999772,286.09534830000484,286.09798109997064,286.1118716999772,286.1118716999772,286.1118716999772,287.3788981999969,Objects\005a.jpg,mid,o,1.2628181999898516,None,,,,,,,,00053,001,2026-01-18_19h05.55.236,MST_test,2024.2.0,60.055839911674546,2026-01-18 19h06.10.848303 +0530,
48,0,49,o,2.5438235999899916,None,49,0,48,287.3948625999619,,,,,,,,,,,,,,,,,,,,,,,,,,,,,,,,,,,,,,,,,,,,,,,,,,287.37898869998753,287.3948625999619,287.89508629997727,287.8784516999731,287.8896393000032,287.89508629997727,287.89508629997727,287.89508629997727,290.44554029998835,Objects\148b.jpg,post,o,2.5438235999899916,None,,,,,,,,00053,001,2026-01-18_19h05.55.236,MST_test,2024.2.0,60.055839911674546,2026-01-18 19h06.10.848303 +0530,
49,0,50,s,8.957159499987029,None,50,0,49,290.4615890000132,,,,,,,,,,,,,,,,,,,,,,,,,,,,,,,,,,,,,,,,,,,,,,,,,,290.44563009997364,290.4615890000132,290.96182269998826,290.94515380001394,290.9472085000016,290.96182269998826,290.96182269998826,290.96182269998826,299.9286924999906,Objects\270a.jpg,mid,s,8.957159499987029,None,,,,,,,,00053,001,2026-01-18_19h05.55.236,MST_test,2024.2.0,60.055839911674546,2026-01-18 19h06.10.848303 +0530,
50,0,51,s,4.393153800047003,None,51,0,50,299.94493100000545,,,,,,,,,,,,,,,,,,,,,,,,,,,,,,,,,,,,,,,,,,,,,,,,,,299.9287849999964,299.94493100000545,300.44517630001064,300.42837300000247,300.4382795999991,300.44517630001064,300.44517630001064,300.44517630001064,304.8453579999623,Objects\277b.jpg,pre,s,4.393153800047003,None,,,,,,,,00053,001,2026-01-18_19h05.55.236,MST_test,2024.2.0,60.055839911674546,2026-01-18 19h06.10.848303 +0530,
51,0,52,s,7.461066399991978,None,52,0,51,304.8614838999929,,,,,,,,,,,,,,,,,,,,,,,,,,,,,,,,,,,,,,,,,,,,,,,,,,304.84544870001264,304.8614838999929,305.36184309999226,305.3450469999807,305.3556983000017,305.36184309999226,305.36184309999226,305.36184309999226,312.8285259999684,Objects\115b.jpg,mid,s,7.461066399991978,None,,,,,,,,00053,001,2026-01-18_19h05.55.236,MST_test,2024.2.0,60.055839911674546,2026-01-18 19h06.10.848303 +0530,
52,0,53,o,3.013648300024215,None,53,0,52,312.844914300018,,,,,,,,,,,,,,,,,,,,,,,,,,,,,,,,,,,,,,,,,,,,,,,,,,312.82861620001495,312.844914300018,313.3450560999918,313.3284484000178,313.33130019996315,313.3450560999918,313.3450560999918,313.3450560999918,316.36214759998256,Objects\043a.jpg,pre,o,3.013648300024215,None,,,,,,,,00053,001,2026-01-18_19h05.55.236,MST_test,2024.2.0,60.055839911674546,2026-01-18 19h06.10.848303 +0530,
53,0,54,s,1.6482007000013255,None,54,0,53,316.37803139997413,,,,,,,,,,,,,,,,,,,,,,,,,,,,,,,,,,,,,,,,,,,,,,,,,,316.36223789997166,316.37803139997413,316.87833279999904,316.86191159999,316.8726766000036,316.87833279999904,316.87833279999904,316.87833279999904,318.5286994999624,Foils\020b.jpg,none,s,1.6482007000013255,None,,,,,,,,00053,001,2026-01-18_19h05.55.236,MST_test,2024.2.0,60.055839911674546,2026-01-18 19h06.10.848303 +0530,
54,0,55,s,2.31409270002041,None,55,0,54,318.54481639998266,,,,,,,,,,,,,,,,,,,,,,,,,,,,,,,,,,,,,,,,,,,,,,,,,,318.5287898000097,318.54481639998266,319.0450087999925,319.02823980001267,319.0304559000069,319.0450087999925,319.0450087999925,319.0450087999925,321.3621123000048,Objects\087a.jpg,pre,s,2.31409270002041,None,,,,,,,,00053,001,2026-01-18_19h05.55.236,MST_test,2024.2.0,60.055839911674546,2026-01-18 19h06.10.848303 +0530,
55,0,56,o,1.912742399959825,None,56,0,55,321.37797809997573,,,,,,,,,,,,,,,,,,,,,,,,,,,,,,,,,,,,,,,,,,,,,,,,,,321.3622022999916,321.37797809997573,321.87828959996114,321.8617368999985,321.8641812999849,321.87828959996114,321.87828959996114,321.87828959996114,323.79556539998157,Objects\172a.jpg,pre,o,1.912742399959825,None,,,,,,,,00053,001,2026-01-18_19h05.55.236,MST_test,2024.2.0,60.055839911674546,2026-01-18 19h06.10.848303 +0530,
56,0,57,n,4.3597401000442915,None,57,0,56,323.8114899999928,,,,,,,,,,,,,,,,,,,,,,,,,,,,,,,,,,,,,,,,,,,,,,,,,,323.7956555999699,323.8114899999928,324.31167530000675,324.29506949998904,324.2975437999703,324.31167530000675,324.31167530000675,324.31167530000675,328.678666599968,Objects\041a.jpg,post,n,4.3597401000442915,None,,,,,,,,00053,001,2026-01-18_19h05.55.236,MST_test,2024.2.0,60.055839911674546,2026-01-18 19h06.10.848303 +0530,
57,0,58,n,2.5793960000155494,None,58,0,57,328.69481839996297,,,,,,,,,,,,,,,,,,,,,,,,,,,,,,,,,,,,,,,,,,,,,,,,,,328.67875749996165,328.69481839996297,329.1950390000129,329.1782365000108,329.1885671999771,329.1950390000129,329.1950390000129,329.1950390000129,331.7786613999633,Foils\082a.jpg,none,n,2.5793960000155494,None,,,,,,,,00053,001,2026-01-18_19h05.55.236,MST_test,2024.2.0,60.055839911674546,2026-01-18 19h06.10.848303 +0530,
58,0,59,o,2.21563040005276,None,59,0,58,331.79475229996024,,,,,,,,,,,,,,,,,,,,,,,,,,,,,,,,,,,,,,,,,,,,,,,,,,331.7787488999893,331.79475229996024,332.2952824999811,332.27839719998883,332.2810726999887,332.2952824999811,332.2952824999811,332.2952824999811,334.51208580000093,Objects\201a.jpg,mid,o,2.21563040005276,None,,,,,,,,00053,001,2026-01-18_19h05.55.236,MST_test,2024.2.0,60.055839911674546,2026-01-18 19h06.10.848303 +0530,
59,0,60,n,2.8346412000246346,None,60,0,59,334.5280169000034,,,,,,,,,,,,,,,,,,,,,,,,,,,,,,,,,,,,,,,,,,,,,,,,,,334.5121766999946,334.5280169000034,335.0285742999986,335.01184489997104,335.0239977000165,335.0285742999986,335.0285742999986,335.0285742999986,337.87862199998926,Foils\101b.jpg,none,n,2.8346412000246346,None,,,,,,,,00053,001,2026-01-18_19h05.55.236,MST_test,2024.2.0,60.055839911674546,2026-01-18 19h06.10.848303 +0530,
60,0,61,s,2.427112000004854,None,61,0,60,337.8948223000043,,,,,,,,,,,,,,,,,,,,,,,,,,,,,,,,,,,,,,,,,,,,,,,,,,337.87871289998293,337.8948223000043,338.3952422000002,338.3783251999994,338.389250200009,338.3952422000002,338.3952422000002,338.3952422000002,340.8287077000132,Objects\263b.jpg,mid,s,2.427112000004854,None,,,,,,,,00053,001,2026-01-18_19h05.55.236,MST_test,2024.2.0,60.055839911674546,2026-01-18 19h06.10.848303 +0530,
61,0,62,s,0.941692000022158,None,62,0,61,340.8448217000114,,,,,,,,,,,,,,,,,,,,,,,,,,,,,,,,,,,,,,,,,,,,,,,,,,340.8287970999954,340.8448217000114,341.3451462999801,341.32826819998445,341.3381167000043,341.3451462999801,341.3451462999801,341.3451462999801,342.2954889999819,Objects\264b.jpg,mid,s,0.941692000022158,None,,,,,,,,00053,001,2026-01-18_19h05.55.236,MST_test,2024.2.0,60.055839911674546,2026-01-18 19h06.10.848303 +0530,
62,0,63,o,1.234832699992694,None,63,0,62,342.31148689996917,,,,,,,,,,,,,,,,,,,,,,,,,,,,,,,,,,,,,,,,,,,,,,,,,,342.2955832000007,342.31148689996917,342.81188359996304,342.7950925999903,342.7976641000132,342.81188359996304,342.81188359996304,342.81188359996304,344.0620857999893,Objects\354a.jpg,post,o,1.234832699992694,None,,,,,,,,00053,001,2026-01-18_19h05.55.236,MST_test,2024.2.0,60.055839911674546,2026-01-18 19h06.10.848303 +0530,
63,0,64,o,2.76459060003981,None,64,0,63,344.0779343000031,,,,,,,,,,,,,,,,,,,,,,,,,,,,,,,,,,,,,,,,,,,,,,,,,,344.06217619997915,344.0779343000031,344.5783636000124,344.5618528999621,344.56580769998254,344.5783636000124,344.5783636000124,344.5783636000124,347.34541289997287,Objects\324a.jpg,post,o,2.76459060003981,None,,,,,,,,00053,001,2026-01-18_19h05.55.236,MST_test,2024.2.0,60.055839911674546,2026-01-18 19h06.10.848303 +0530,
64,0,65,s,2.4491507000057027,None,65,0,64,347.3614969999762,,,,,,,,,,,,,,,,,,,,,,,,,,,,,,,,,,,,,,,,,,,,,,,,,,347.3455064999871,347.3614969999762,347.8618081000168,347.8450689999736,347.8557467999635,347.8618081000168,347.8618081000168,347.8618081000168,350.3121066999738,Objects\166b.jpg,pre,s,2.4491507000057027,None,,,,,,,,00053,001,2026-01-18_19h05.55.236,MST_test,2024.2.0,60.055839911674546,2026-01-18 19h06.10.848303 +0530,
65,0,66,o,3.258947000023909,None,66,0,65,350.32799139997223,,,,,,,,,,,,,,,,,,,,,,,,,,,,,,,,,,,,,,,,,,,,,,,,,,350.31219610001426,350.32799139997223,350.82831010001246,350.81166890001623,350.8140368000022,350.82831010001246,350.82831010001246,350.82831010001246,354.0954094000044,Objects\163a.jpg,mid,o,3.258947000023909,None,,,,,,,,00053,001,2026-01-18_19h05.55.236,MST_test,2024.2.0,60.055839911674546,2026-01-18 19h06.10.848303 +0530,
66,0,67,o,1.9786747000180185,None,67,0,66,354.1114214999834,,,,,,,,,,,,,,,,,,,,,,,,,,,,,,,,,,,,,,,,,,,,,,,,,,354.09549779997906,354.1114214999834,354.6116630999604,354.59508669999195,354.60481250000885,354.6116630999604,354.6116630999604,354.6116630999604,356.59550759999547,Objects\060b.jpg,mid,o,1.9786747000180185,None,,,,,,,,00053,001,2026-01-18_19h05.55.236,MST_test,2024.2.0,60.055839911674546,2026-01-18 19h06.10.848303 +0530,
67,0,68,o,1.1503661000169814,None,68,0,67,356.6115259999642,,,,,,,,,,,,,,,,,,,,,,,,,,,,,,,,,,,,,,,,,,,,,,,,,,356.59560210001655,356.6115259999642,357.1118999000173,357.09506759996293,357.09794900001725,357.1118999000173,357.1118999000173,357.1118999000173,358.2785330999759,Objects\265a.jpg,post,o,1.1503661000169814,None,,,,,,,,00053,001,2026-01-18_19h05.55.236,MST_test,2024.2.0,60.055839911674546,2026-01-18 19h06.10.848303 +0530,
68,0,69,s,2.2592530999681912,None,69,0,68,358.2948296999675,,,,,,,,,,,,,,,,,,,,,,,,,,,,,,,,,,,,,,,,,,,,,,,,,,358.27862090000417,358.2948296999675,358.7951870000106,358.77855809999164,358.7892575999722,358.7951870000106,358.7951870000106,358.7951870000106,361.0622290999745,Foils\050a.jpg,none,s,2.2592530999681912,None,,,,,,,,00053,001,2026-01-18_19h05.55.236,MST_test,2024.2.0,60.055839911674546,2026-01-18 19h06.10.848303 +0530,
69,0,70,o,1.3170007999869995,None,70,0,69,361.0782085999963,,,,,,,,,,,,,,,,,,,,,,,,,,,,,,,,,,,,,,,,,,,,,,,,,,361.06232650001766,361.0782085999963,361.5782452999847,361.56193429999985,361.5645951000042,361.5782452999847,361.5782452999847,361.5782452999847,362.9119684000034,Objects\092a.jpg,mid,o,1.3170007999869995,None,,,,,,,,00053,001,2026-01-18_19h05.55.236,MST_test,2024.2.0,60.055839911674546,2026-01-18 19h06.10.848303 +0530,
70,0,71,s,2.2033477000077255,None,71,0,70,362.92803309997544,,,,,,,,,,,,,,,,,,,,,,,,,,,,,,,,,,,,,,,,,,,,,,,,,,362.9120572999818,362.92803309997544,363.4283812000067,363.4117232999997,363.42189970001346,363.4283812000067,363.4283812000067,363.4283812000067,365.6454312999849,Objects\242b.jpg,pre,s,2.2033477000077255,None,,,,,,,,00053,001,2026-01-18_19h05.55.236,MST_test,2024.2.0,60.055839911674546,2026-01-18 19h06.10.848303 +0530,
71,0,72,s,1.348576900025364,None,72,0,71,365.6615967999678,,,,,,,,,,,,,,,,,,,,,,,,,,,,,,,,,,,,,,,,,,,,,,,,,,365.64552179997554,365.6615967999678,366.1622177999816,366.14536399999633,366.1565954000107,366.1622177999816,366.1622177999816,366.1622177999816,367.5123375999974,Objects\363b.jpg,post,s,1.348576900025364,None,,,,,,,,00053,001,2026-01-18_19h05.55.236,MST_test,2024.2.0,60.055839911674546,2026-01-18 19h06.10.848303 +0530,
72,0,73,s,2.065696500008926,None,73,0,72,367.5282904999913,,,,,,,,,,,,,,,,,,,,,,,,,,,,,,,,,,,,,,,,,,,,,,,,,,367.51242959999945,367.5282904999913,368.02862920000916,368.01204569998663,368.0238948999904,368.02862920000916,368.02862920000916,368.02862920000916,370.0956102999626,Objects\184b.jpg,post,s,2.065696500008926,None,,,,,,,,00053,001,2026-01-18_19h05.55.236,MST_test,2024.2.0,60.055839911674546,2026-01-18 19h06.10.848303 +0530,
73,0,74,s,5.196313399996143,None,74,0,73,370.1115398000111,,,,,,,,,,,,,,,,,,,,,,,,,,,,,,,,,,,,,,,,,,,,,,,,,,370.09570020000683,370.1115398000111,370.61176289996365,370.59520909999264,370.5975302999723,370.61176289996365,370.61176289996365,370.61176289996365,375.81270609999774,Objects\076a.jpg,post,s,5.196313399996143,None,,,,,,,,00053,001,2026-01-18_19h05.55.236,MST_test,2024.2.0,60.055839911674546,2026-01-18 19h06.10.848303 +0530,
74,0,75,s,2.3516844999976456,None,75,0,74,375.82834800001,,,,,,,,,,,,,,,,,,,,,,,,,,,,,,,,,,,,,,,,,,,,,,,,,,375.81280359998345,375.82834800001,376.3283828999847,376.3120389999822,376.315048999968,376.3283828999847,376.3283828999847,376.3283828999847,378.6955297999666,Objects\361a.jpg,mid,s,2.3516844999976456,None,,,,,,,,00053,001,2026-01-18_19h05.55.236,MST_test,2024.2.0,60.055839911674546,2026-01-18 19h06.10.848303 +0530,
75,0,76,s,2.338767800014466,None,76,0,75,378.7115122000105,,,,,,,,,,,,,,,,,,,,,,,,,,,,,,,,,,,,,,,,,,,,,,,,,,378.6956339000026,378.7115122000105,379.21201570000267,379.19510640000226,379.19837329996517,379.21201570000267,379.21201570000267,379.21201570000267,381.56215959996916,Objects\239a.jpg,mid,s,2.338767800014466,None,,,,,,,,00053,001,2026-01-18_19h05.55.236,MST_test,2024.2.0,60.055839911674546,2026-01-18 19h06.10.848303 +0530,
76,0,77,o,3.495971600001212,None,77,0,76,381.57827359996736,,,,,,,,,,,,,,,,,,,,,,,,,,,,,,,,,,,,,,,,,,,,,,,,,,381.56225039996207,381.57827359996736,382.0786560999695,382.0618734000018,382.0649711000151,382.0786560999695,382.0786560999695,382.0786560999695,385.578920800006,Objects\100a.jpg,mid,o,3.495971600001212,None,,,,,,,,00053,001,2026-01-18_19h05.55.236,MST_test,2024.2.0,60.055839911674546,2026-01-18 19h06.10.848303 +0530,
77,0,78,s,1.6713070999830961,None,78,0,77,385.5948622999713,,,,,,,,,,,,,,,,,,,,,,,,,,,,,,,,,,,,,,,,,,,,,,,,,,385.57901669997955,385.5948622999713,386.09519490000093,386.0785565999686,386.0888796999934,386.09519490000093,386.09519490000093,386.09519490000093,387.7788215999608,Objects\337b.jpg,mid,s,1.6713070999830961,None,,,,,,,,00053,001,2026-01-18_19h05.55.236,MST_test,2024.2.0,60.055839911674546,2026-01-18 19h06.10.848303 +0530,
78,0,79,s,2.552028700010851,None,79,0,78,387.79493049997836,,,,,,,,,,,,,,,,,,,,,,,,,,,,,,,,,,,,,,,,,,,,,,,,,,387.77891769999405,387.79493049997836,388.2952765999944,388.27859449997777,388.2814059999655,388.2952765999944,388.2952765999944,388.2952765999944,390.8622670999612,Objects\226a.jpg,pre,s,2.552028700010851,None,,,,,,,,00053,001,2026-01-18_19h05.55.236,MST_test,2024.2.0,60.055839911674546,2026-01-18 19h06.10.848303 +0530,
79,0,80,s,1.4761037999996915,None,80,0,79,390.8782824999653,,,,,,,,,,,,,,,,,,,,,,,,,,,,,,,,,,,,,,,,,,,,,,,,,,390.8623661000165,390.8782824999653,391.3785768999951,391.36193059996003,391.36495690001175,391.3785768999951,391.3785768999951,391.3785768999951,392.8621011999785,Objects\120a.jpg,pre,s,1.4761037999996915,None,,,,,,,,00053,001,2026-01-18_19h05.55.236,MST_test,2024.2.0,60.055839911674546,2026-01-18 19h06.10.848303 +0530,
80,0,81,n,2.66768889996456,None,81,0,80,392.87824819999514,,,,,,,,,,,,,,,,,,,,,,,,,,,,,,,,,,,,,,,,,,,,,,,,,,392.8621902000159,392.87824819999514,393.37872370000696,393.3619675000082,393.3712272999692,393.37872370000696,393.37872370000696,393.37872370000696,396.062070999993,Foils\f7.jpg,none,n,2.66768889996456,None,,,,,,,,00053,001,2026-01-18_19h05.55.236,MST_test,2024.2.0,60.055839911674546,2026-01-18 19h06.10.848303 +0530,
81,0,82,o,1.0445383999613114,None,82,0,81,396.078233600012,,,,,,,,,,,,,,,,,,,,,,,,,,,,,,,,,,,,,,,,,,,,,,,,,,396.06216709996806,396.078233600012,396.57853649999015,396.56189209996955,396.56491949997144,396.57853649999015,396.57853649999015,396.57853649999015,397.62866779998876,Objects\218a.jpg,mid,o,1.0445383999613114,None,,,,,,,,00053,001,2026-01-18_19h05.55.236,MST_test,2024.2.0,60.055839911674546,2026-01-18 19h06.10.848303 +0530,
82,0,83,n,1.8140156000154093,None,83,0,82,397.6449409999768,,,,,,,,,,,,,,,,,,,,,,,,,,,,,,,,,,,,,,,,,,,,,,,,,,397.6287581999786,397.6449409999768,398.1452207000111,398.1284663999686,398.13997359998757,398.1452207000111,398.1452207000111,398.1452207000111,399.9622566999751,Foils\106a.jpg,none,n,1.8140156000154093,None,,,,,,,,00053,001,2026-01-18_19h05.55.236,MST_test,2024.2.0,60.055839911674546,2026-01-18 19h06.10.848303 +0530,
83,0,84,s,1.6651554999989457,None,84,0,83,399.9781872999738,,,,,,,,,,,,,,,,,,,,,,,,,,,,,,,,,,,,,,,,,,,,,,,,,,399.9623573999852,399.9781872999738,400.4783269999898,400.4617690999876,400.47186409996357,400.4783269999898,400.4783269999898,400.4783269999898,402.14579889999004,Objects\116b.jpg,pre,s,1.6651554999989457,None,,,,,,,,00053,001,2026-01-18_19h05.55.236,MST_test,2024.2.0,60.055839911674546,2026-01-18 19h06.10.848303 +0530,
84,0,85,o,1.9045097000198439,None,85,0,84,402.16156490001595,,,,,,,,,,,,,,,,,,,,,,,,,,,,,,,,,,,,,,,,,,,,,,,,,,402.14589799998794,402.16156490001595,402.6618118999759,402.6461177999736,402.6486003000173,402.6618118999759,402.6618118999759,402.6618118999759,404.5788223000127,Objects\049a.jpg,post,o,1.9045097000198439,None,,,,,,,,00053,001,2026-01-18_19h05.55.236,MST_test,2024.2.0,60.055839911674546,2026-01-18 19h06.10.848303 +0530,
85,0,86,n,2.007756699982565,None,86,0,85,404.5949580000015,,,,,,,,,,,,,,,,,,,,,,,,,,,,,,,,,,,,,,,,,,,,,,,,,,404.5789098999812,404.5949580000015,405.0950322999852,405.07855879998533,405.08885729999747,405.0950322999852,405.0950322999852,405.0950322999852,407.1121734000044,Objects\131b.jpg,pre,n,2.007756699982565,None,,,,,,,,00053,001,2026-01-18_19h05.55.236,MST_test,2024.2.0,60.055839911674546,2026-01-18 19h06.10.848303 +0530,
86,0,87,s,3.6266858999733813,None,87,0,86,407.12827719998313,,,,,,,,,,,,,,,,,,,,,,,,,,,,,,,,,,,,,,,,,,,,,,,,,,407.1122618999798,407.12827719998313,407.6284335000091,407.6117958999821,407.61495269997977,407.6284335000091,407.6284335000091,407.6284335000091,411.2621885999688,Objects\355a.jpg,pre,s,3.6266858999733813,None,,,,,,,,00053,001,2026-01-18_19h05.55.236,MST_test,2024.2.0,60.055839911674546,2026-01-18 19h06.10.848303 +0530,
87,0,88,n,2.8358586999820545,None,88,0,87,411.27816330001224,,,,,,,,,,,,,,,,,,,,,,,,,,,,,,,,,,,,,,,,,,,,,,,,,,411.26228129997617,411.27816330001224,411.7786289000069,411.7618432000163,411.77243189996807,411.7786289000069,411.7786289000069,411.7786289000069,414.6289463000139,Foils\121a.jpg,none,n,2.8358586999820545,None,,,,,,,,00053,001,2026-01-18_19h05.55.236,MST_test,2024.2.0,60.055839911674546,2026-01-18 19h06.10.848303 +0530,
88,0,89,n,1.4933684000279754,None,89,0,88,414.6449405999738,,,,,,,,,,,,,,,,,,,,,,,,,,,,,,,,,,,,,,,,,,,,,,,,,,414.6290350999916,414.6449405999738,415.14509720000206,415.12835919996724,415.1382355999667,415.14509720000206,415.14509720000206,415.14509720000206,416.6454340000055,Foils\033a.jpg,none,n,1.4933684000279754,None,,,,,,,,00053,001,2026-01-18_19h05.55.236,MST_test,2024.2.0,60.055839911674546,2026-01-18 19h06.10.848303 +0530,
89,0,90,s,1.4924254000070505,None,90,0,89,416.66161790001206,,,,,,,,,,,,,,,,,,,,,,,,,,,,,,,,,,,,,,,,,,,,,,,,,,416.64553519996116,416.66161790001206,417.16183810000075,417.1452181999921,417.15525229997,417.16183810000075,417.16183810000075,417.16183810000075,418.6622422999935,Objects\022b.jpg,post,s,1.4924254000070505,None,,,,,,,,00053,001,2026-01-18_19h05.55.236,MST_test,2024.2.0,60.055839911674546,2026-01-18 19h06.10.848303 +0530,
90,0,91,s,1.7483910999726504,None,91,0,90,418.67819690000033,,,,,,,,,,,,,,,,,,,,,,,,,,,,,,,,,,,,,,,,,,,,,,,,,,418.6623308999697,418.67819690000033,419.17837999999756,419.1620431999909,419.17278769996483,419.17837999999756,419.17837999999756,419.17837999999756,420.92897020000964,Objects\026b.jpg,mid,s,1.7483910999726504,None,,,,,,,,00053,001,2026-01-18_19h05.55.236,MST_test,2024.2.0,60.055839911674546,2026-01-18 19h06.10.848303 +0530,
91,0,92,s,1.4729569000191987,None,92,0,91,420.94490229996154,,,,,,,,,,,,,,,,,,,,,,,,,,,,,,,,,,,,,,,,,,,,,,,,,,420.9290636999649,420.94490229996154,421.445287599985,421.4285969999619,421.438666299975,421.445287599985,421.445287599985,421.445287599985,422.92870759998914,Objects\373b.jpg,post,s,1.4729569000191987,None,,,,,,,,00053,001,2026-01-18_19h05.55.236,MST_test,2024.2.0,60.055839911674546,2026-01-18 19h06.10.848303 +0530,
92,0,93,s,1.7138788999873213,None,93,0,92,422.94494959997246,,,,,,,,,,,,,,,,,,,,,,,,,,,,,,,,,,,,,,,,,,,,,,,,,,422.9287956999615,422.94494959997246,423.4452991000144,423.4285279000178,423.43166589998873,423.4452991000144,423.4452991000144,423.4452991000144,425.162173299992,Objects\011a.jpg,post,s,1.7138788999873213,None,,,,,,,,00053,001,2026-01-18_19h05.55.236,MST_test,2024.2.0,60.055839911674546,2026-01-18 19h06.10.848303 +0530,
93,0,94,n,2.3999576999922283,None,94,0,93,425.1780081000179,,,,,,,,,,,,,,,,,,,,,,,,,,,,,,,,,,,,,,,,,,,,,,,,,,425.16226289997576,425.1780081000179,425.6785078999819,425.6617719999631,425.6710738000111,425.6785078999819,425.6785078999819,425.6785078999819,428.095397499972,Foils\f6.jpg,none,n,2.3999576999922283,None,,,,,,,,00053,001,2026-01-18_19h05.55.236,MST_test,2024.2.0,60.055839911674546,2026-01-18 19h06.10.848303 +0530,
94,0,95,s,1.6433380999951623,None,95,0,94,428.11157660000026,,,,,,,,,,,,,,,,,,,,,,,,,,,,,,,,,,,,,,,,,,,,,,,,,,428.0954901999794,428.11157660000026,428.6118339999812,428.59511180000845,428.6052360999747,428.6118339999812,428.6118339999812,428.6118339999812,430.2621160999988,Objects\198b.jpg,post,s,1.6433380999951623,None,,,,,,,,00053,001,2026-01-18_19h05.55.236,MST_test,2024.2.0,60.055839911674546,2026-01-18 19h06.10.848303 +0530,
95,0,96,o,1.275803399970755,None,96,0,95,430.27801790001104,,,,,,,,,,,,,,,,,,,,,,,,,,,,,,,,,,,,,,,,,,,,,,,,,,430.2622213999857,430.27801790001104,430.7785731999902,430.7617755999672,430.7658553000074,430.7785731999902,430.7785731999902,430.7785731999902,432.0624575999682,Objects\336a.jpg,pre,o,1.275803399970755,None,,,,,,,,00053,001,2026-01-18_19h05.55.236,MST_test,2024.2.0,60.055839911674546,2026-01-18 19h06.10.848303 +0530,
96,0,97,n,1.7970484999823384,None,97,0,96,432.0781653000158,,,,,,,,,,,,,,,,,,,,,,,,,,,,,,,,,,,,,,,,,,,,,,,,,,432.0625591999851,432.0781653000158,432.5785060999915,432.5616920000175,432.5718259999994,432.5785060999915,432.5785060999915,432.5785060999915,434.37872679997236,Foils\066a.jpg,none,n,1.7970484999823384,None,,,,,,,,00053,001,2026-01-18_19h05.55.236,MST_test,2024.2.0,60.055839911674546,2026-01-18 19h06.10.848303 +0530,
97,0,98,o,1.1757181999855675,None,98,0,97,434.3948296000017,,,,,,,,,,,,,,,,,,,,,,,,,,,,,,,,,,,,,,,,,,,,,,,,,,434.3788620000123,434.3948296000017,434.8950571999885,434.87835109996377,434.88074200000847,434.8950571999885,434.8950571999885,434.8950571999885,436.0785420999746,Objects\035a.jpg,pre,o,1.1757181999855675,None,,,,,,,,00053,001,2026-01-18_19h05.55.236,MST_test,2024.2.0,60.055839911674546,2026-01-18 19h06.10.848303 +0530,
98,0,99,s,3.660039499984123,None,99,0,98,436.0948047999991,,,,,,,,,,,,,,,,,,,,,,,,,,,,,,,,,,,,,,,,,,,,,,,,,,436.0786331999698,436.0948047999991,436.59517439996125,436.5783258000156,436.58821099996567,436.59517439996125,436.59517439996125,436.59517439996125,440.2620469999965,Objects\053b.jpg,pre,s,3.660039499984123,None,,,,,,,,00053,001,2026-01-18_19h05.55.236,MST_test,2024.2.0,60.055839911674546,2026-01-18 19h06.10.848303 +0530,
99,0,100,s,1.4688322000438347,None,100,0,99,440.2780124999699,,,,,,,,,,,,,,,,,,,,,,,,,,,,,,,,,,,,,,,,,,,,,,,,,,440.26214730000356,440.2780124999699,440.7782497999724,440.7616823000135,440.7645002999925,440.7782497999724,440.7782497999724,440.7782497999724,442.26210569997784,Objects\111a.jpg,pre,s,1.4688322000438347,None,,,,,,,,00053,001,2026-01-18_19h05.55.236,MST_test,2024.2.0,60.055839911674546,2026-01-18 19h06.10.848303 +0530,
100,0,101,o,4.524665799981449,None,101,0,100,442.27804319997085,,,,,,,,,,,,,,,,,,,,,,,,,,,,,,,,,,,,,,,,,,,,,,,,,,442.262198899989,442.27804319997085,442.7781548000057,442.7617526999675,442.76418579998426,442.7781548000057,442.7781548000057,442.7781548000057,447.3120371999685,Objects\132a.jpg,post,o,4.524665799981449,None,,,,,,,,00053,001,2026-01-18_19h05.55.236,MST_test,2024.2.0,60.055839911674546,2026-01-18 19h06.10.848303 +0530,
101,0,102,s,1.73801159998402,None,102,0,101,447.3280819999636,,,,,,,,,,,,,,,,,,,,,,,,,,,,,,,,,,,,,,,,,,,,,,,,,,447.3121253999998,447.3280819999636,447.8283505999716,447.8117903000093,447.8220815999666,447.8283505999716,447.8283505999716,447.8283505999716,449.57868649996817,Foils\009a.jpg,none,s,1.73801159998402,None,,,,,,,,00053,001,2026-01-18_19h05.55.236,MST_test,2024.2.0,60.055839911674546,2026-01-18 19h06.10.848303 +0530,
102,0,103,s,1.2240388999925926,None,103,0,102,449.59486369998194,,,,,,,,,,,,,,,,,,,,,,,,,,,,,,,,,,,,,,,,,,,,,,,,,,449.57877809996717,449.59486369998194,450.0951168999891,450.07833749998827,450.08842469996307,450.0951168999891,450.0951168999891,450.0951168999891,451.32900059997337,Objects\014b.jpg,post,s,1.2240388999925926,None,,,,,,,,00053,001,2026-01-18_19h05.55.236,MST_test,2024.2.0,60.055839911674546,2026-01-18 19h06.10.848303 +0530,
103,0,104,o,2.0739151000161655,None,104,0,103,451.3448490999872,,,,,,,,,,,,,,,,,,,,,,,,,,,,,,,,,,,,,,,,,,,,,,,,,,451.3290975000127,451.3448490999872,451.8452288999688,451.8283200999722,451.83961149997776,451.8452288999688,451.8452288999688,451.8452288999688,453.9287529999856,Objects\333b.jpg,post,o,2.0739151000161655,None,,,,,,,,00053,001,2026-01-18_19h05.55.236,MST_test,2024.2.0,60.055839911674546,2026-01-18 19h06.10.848303 +0530,
104,0,105,o,2.16194949997589,None,105,0,104,453.94483300001593,,,,,,,,,,,,,,,,,,,,,,,,,,,,,,,,,,,,,,,,,,,,,,,,,,453.92884629999753,453.94483300001593,454.4452219000086,454.4282824000111,454.43154009996215,454.4452219000086,454.4452219000086,454.4452219000086,456.6121622999781,Objects\156a.jpg,mid,o,2.16194949997589,None,,,,,,,,00053,001,2026-01-18_19h05.55.236,MST_test,2024.2.0,60.055839911674546,2026-01-18 19h06.10.848303 +0530,
105,0,106,s,2.5348910999600776,None,106,0,105,456.6280244999798,,,,,,,,,,,,,,,,,,,,,,,,,,,,,,,,,,,,,,,,,,,,,,,,,,456.61225269996794,456.6280244999798,457.12838760000886,457.11194510001224,457.1237788000144,457.12838760000886,457.12838760000886,457.12838760000886,459.6785411000019,Objects\135b.jpg,pre,s,2.5348910999600776,None,,,,,,,,00053,001,2026-01-18_19h05.55.236,MST_test,2024.2.0,60.055839911674546,2026-01-18 19h06.10.848303 +0530,
106,0,107,s,2.738920900039375,None,107,0,106,459.6948589999811,,,,,,,,,,,,,,,,,,,,,,,,,,,,,,,,,,,,,,,,,,,,,,,,,,459.67862839996815,459.6948589999811,460.19530560000567,460.1784843999776,460.189197700005,460.19530560000567,460.19530560000567,460.19530560000567,462.94548669998767,Objects\364b.jpg,pre,s,2.738920900039375,None,,,,,,,,00053,001,2026-01-18_19h05.55.236,MST_test,2024.2.0,60.055839911674546,2026-01-18 19h06.10.848303 +0530,
107,0,108,s,1.1770103999879211,None,108,0,107,462.9614466999774,,,,,,,,,,,,,,,,,,,,,,,,,,,,,,,,,,,,,,,,,,,,,,,,,,462.94557879999047,462.9614466999774,463.46188139996957,463.44503609999083,463.4486092000152,463.46188139996957,463.46188139996957,463.46188139996957,464.6455499000149,Objects\085a.jpg,post,s,1.1770103999879211,None,,,,,,,,00053,001,2026-01-18_19h05.55.236,MST_test,2024.2.0,60.055839911674546,2026-01-18 19h06.10.848303 +0530,
108,0,109,s,1.5567680000094697,None,109,0,108,464.6615289999754,,,,,,,,,,,,,,,,,,,,,,,,,,,,,,,,,,,,,,,,,,,,,,,,,,464.6456395999994,464.6615289999754,465.16185569996014,465.1451745000086,465.15540129999863,465.16185569996014,465.16185569996014,465.16185569996014,466.7286437000148,Objects\254b.jpg,pre,s,1.5567680000094697,None,,,,,,,,00053,001,2026-01-18_19h05.55.236,MST_test,2024.2.0,60.055839911674546,2026-01-18 19h06.10.848303 +0530,
109,0,110,o,1.2497249000007287,None,110,0,109,466.744786700001,,,,,,,,,,,,,,,,,,,,,,,,,,,,,,,,,,,,,,,,,,,,,,,,,,466.7287365999655,466.744786700001,467.245271999971,467.22852040000726,467.23153739998816,467.245271999971,467.245271999971,467.245271999971,468.4955206000013,Objects\151a.jpg,pre,o,1.2497249000007287,None,,,,,,,,00053,001,2026-01-18_19h05.55.236,MST_test,2024.2.0,60.055839911674546,2026-01-18 19h06.10.848303 +0530,
110,0,111,n,2.4590918999747373,None,111,0,110,468.5115901000099,,,,,,,,,,,,,,,,,,,,,,,,,,,,,,,,,,,,,,,,,,,,,,,,,,468.49561779998476,468.5115901000099,469.0117908999673,468.99503669998376,469.0047604999854,469.0117908999673,469.0117908999673,469.0117908999673,471.47888909996254,Foils\049a.jpg,none,n,2.4590918999747373,None,,,,,,,,00053,001,2026-01-18_19h05.55.236,MST_test,2024.2.0,60.055839911674546,2026-01-18 19h06.10.848303 +0530,
111,0,112,n,2.323349500016775,None,112,0,111,471.49487270001555,,,,,,,,,,,,,,,,,,,,,,,,,,,,,,,,,,,,,,,,,,,,,,,,,,471.4789860000019,471.49487270001555,471.99509029998444,471.97829449997516,471.9878549000132,471.99509029998444,471.99509029998444,471.99509029998444,474.32874580001226,Objects\235b.jpg,pre,n,2.323349500016775,None,,,,,,,,00053,001,2026-01-18_19h05.55.236,MST_test,2024.2.0,60.055839911674546,2026-01-18 19h06.10.848303 +0530,
112,0,113,o,1.5779632999910973,None,113,0,112,474.3448022999801,,,,,,,,,,,,,,,,,,,,,,,,,,,,,,,,,,,,,,,,,,,,,,,,,,474.3288360000006,474.3448022999801,474.84525539999595,474.8283245000057,474.83124659996247,474.84525539999595,474.84525539999595,474.84525539999595,476.4286863000016,Objects\382a.jpg,mid,o,1.5779632999910973,None,,,,,,,,00053,001,2026-01-18_19h05.55.236,MST_test,2024.2.0,60.055839911674546,2026-01-18 19h06.10.848303 +0530,
113,0,114,o,1.7574209999875166,None,114,0,113,476.44487919996027,,,,,,,,,,,,,,,,,,,,,,,,,,,,,,,,,,,,,,,,,,,,,,,,,,476.4287761999876,476.44487919996027,476.9453114999924,476.92827400000533,476.93141520000063,476.9453114999924,476.9453114999924,476.9453114999924,478.7122316000168,Objects\017a.jpg,pre,o,1.7574209999875166,None,,,,,,,,00053,001,2026-01-18_19h05.55.236,MST_test,2024.2.0,60.055839911674546,2026-01-18 19h06.10.848303 +0530,
114,0,115,o,2.6827487999689765,None,115,0,114,478.72809869999764,,,,,,,,,,,,,,,,,,,,,,,,,,,,,,,,,,,,,,,,,,,,,,,,,,478.71232469996903,478.72809869999764,479.2283194999909,479.21182249998674,479.21441359998425,479.2283194999909,479.2283194999909,479.2283194999909,481.91202899999917,Objects\047a.jpg,post,o,2.6827487999689765,None,,,,,,,,00053,001,2026-01-18_19h05.55.236,MST_test,2024.2.0,60.055839911674546,2026-01-18 19h06.10.848303 +0530,
115,0,116,s,1.6266156999627128,None,116,0,115,481.9280254999758,,,,,,,,,,,,,,,,,,,,,,,,,,,,,,,,,,,,,,,,,,,,,,,,,,481.91212789999554,481.9280254999758,482.4282706999802,482.41173799999524,482.4218297000043,482.4282706999802,482.4282706999802,482.4282706999802,484.06224110000767,Objects\090b.jpg,pre,s,1.6266156999627128,None,,,,,,,,00053,001,2026-01-18_19h05.55.236,MST_test,2024.2.0,60.055839911674546,2026-01-18 19h06.10.848303 +0530,
116,0,117,o,1.396314000012353,None,117,0,116,484.0782848999952,,,,,,,,,,,,,,,,,,,,,,,,,,,,,,,,,,,,,,,,,,,,,,,,,,484.0623372999835,484.0782848999952,484.5788027999806,484.56189939996693,484.5718962000101,484.5788027999806,484.5788027999806,484.5788027999806,485.97874579997733,Objects\375b.jpg,mid,o,1.396314000012353,None,,,,,,,,00053,001,2026-01-18_19h05.55.236,MST_test,2024.2.0,60.055839911674546,2026-01-18 19h06.10.848303 +0530,
117,0,118,n,1.3923571000341326,None,118,0,117,485.99505979998503,,,,,,,,,,,,,,,,,,,,,,,,,,,,,,,,,,,,,,,,,,,,,,,,,,485.97883420001017,485.99505979998503,486.49530629999936,486.4784566999879,486.48960109998006,486.49530629999936,486.49530629999936,486.49530629999936,487.895509199996,Foils\018a.jpg,none,n,1.3923571000341326,None,,,,,,,,00053,001,2026-01-18_19h05.55.236,MST_test,2024.2.0,60.055839911674546,2026-01-18 19h06.10.848303 +0530,
118,0,119,s,3.0821669999859296,None,119,0,118,487.9115246000001,,,,,,,,,,,,,,,,,,,,,,,,,,,,,,,,,,,,,,,,,,,,,,,,,,487.89561700000195,487.9115246000001,488.4121318999678,488.3952368000173,488.39812590001384,488.4121318999678,488.4121318999678,488.4121318999678,491.49566650000634,Objects\222a.jpg,mid,s,3.0821669999859296,None,,,,,,,,00053,001,2026-01-18_19h05.55.236,MST_test,2024.2.0,60.055839911674546,2026-01-18 19h06.10.848303 +0530,
119,0,120,n,1.4026263000559993,None,120,0,119,491.5116338999942,,,,,,,,,,,,,,,,,,,,,,,,,,,,,,,,,,,,,,,,,,,,,,,,,,491.49575549998553,491.5116338999942,492.0119970999658,491.9952173999627,492.0047084999969,492.0119970999658,492.0119970999658,492.0119970999658,493.428906599991,Foils\f5.jpg,none,n,1.4026263000559993,None,,,,,,,,00053,001,2026-01-18_19h05.55.236,MST_test,2024.2.0,60.055839911674546,2026-01-18 19h06.10.848303 +0530,
120,0,121,s,1.7819503999780864,None,121,0,120,493.4448929000064,,,,,,,,,,,,,,,,,,,,,,,,,,,,,,,,,,,,,,,,,,,,,,,,,,493.42900120001286,493.4448929000064,493.94521639996674,493.9284680999699,493.9318940999801,493.94521639996674,493.94521639996674,493.94521639996674,495.7287413000013,Objects\346a.jpg,post,s,1.7819503999780864,None,,,,,,,,00053,001,2026-01-18_19h05.55.236,MST_test,2024.2.0,60.055839911674546,2026-01-18 19h06.10.848303 +0530,
121,0,122,o,6.129864799964707,None,122,0,121,495.7449817999732,,,,,,,,,,,,,,,,,,,,,,,,,,,,,,,,,,,,,,,,,,,,,,,,,,495.7288312999881,495.7449817999732,496.2453738999902,496.2283791999798,496.2387645000126,496.2453738999902,496.2453738999902,496.2453738999902,502.3788039999781,Objects\088b.jpg,pre,o,6.129864799964707,None,,,,,,,,00053,001,2026-01-18_19h05.55.236,MST_test,2024.2.0,60.055839911674546,2026-01-18 19h06.10.848303 +0530,
122,0,123,s,2.1118982000043616,None,123,0,122,502.3948807999841,,,,,,,,,,,,,,,,,,,,,,,,,,,,,,,,,,,,,,,,,,,,,,,,,,502.378913499997,502.3948807999841,502.89520410000114,502.87842620001175,502.8812109999708,502.89520410000114,502.89520410000114,502.89520410000114,505.01222599996254,Objects\159a.jpg,post,s,2.1118982000043616,None,,,,,,,,00053,001,2026-01-18_19h05.55.236,MST_test,2024.2.0,60.055839911674546,2026-01-18 19h06.10.848303 +0530,
123,0,124,n,1.910460899991449,None,124,0,123,505.0280880999635,,,,,,,,,,,,,,,,,,,,,,,,,,,,,,,,,,,,,,,,,,,,,,,,,,505.0123186999699,505.0280880999635,505.52884779998567,505.5118933999911,505.52178359997924,505.52884779998567,505.52884779998567,505.52884779998567,507.4456994999782,Foils\058a.jpg,none,n,1.910460899991449,None,,,,,,,,00053,001,2026-01-18_19h05.55.236,MST_test,2024.2.0,60.055839911674546,2026-01-18 19h06.10.848303 +0530,
124,0,125,s,3.3573396999854594,None,125,0,124,507.46151459997054,,,,,,,,,,,,,,,,,,,,,,,,,,,,,,,,,,,,,,,,,,,,,,,,,,507.44579669996165,507.46151459997054,507.96185869997134,507.94517530000303,507.9575703999726,507.96185869997134,507.96185869997134,507.96185869997134,511.3290517000132,Objects\038b.jpg,pre,s,3.3573396999854594,None,,,,,,,,00053,001,2026-01-18_19h05.55.236,MST_test,2024.2.0,60.055839911674546,2026-01-18 19h06.10.848303 +0530,
125,0,126,s,1.20977130002575,None,126,0,125,511.3450063999626,,,,,,,,,,,,,,,,,,,,,,,,,,,,,,,,,,,,,,,,,,,,,,,,,,511.3291538999765,511.3450063999626,511.84520599996904,511.82861019996926,511.8316651000059,511.84520599996904,511.84520599996904,511.84520599996904,513.062314699986,Objects\178a.jpg,post,s,1.20977130002575,None,,,,,,,,00053,001,2026-01-18_19h05.55.236,MST_test,2024.2.0,60.055839911674546,2026-01-18 19h06.10.848303 +0530,
126,0,127,n,1.4358921000384726,None,127,0,126,513.0784538000007,,,,,,,,,,,,,,,,,,,,,,,,,,,,,,,,,,,,,,,,,,,,,,,,,,513.0624042999698,513.0784538000007,513.5785770000075,513.5619003999745,513.5718071999727,513.5785770000075,513.5785770000075,513.5785770000075,515.0287352000014,Foils\090a.jpg,none,n,1.4358921000384726,None,,,,,,,,00053,001,2026-01-18_19h05.55.236,MST_test,2024.2.0,60.055839911674546,2026-01-18 19h06.10.848303 +0530,
127,0,128,o,2.573439800005872,None,128,0,127,515.0448225999717,,,,,,,,,,,,,,,,,,,,,,,,,,,,,,,,,,,,,,,,,,,,,,,,,,515.0288244999829,515.0448225999717,515.5450322999968,515.5283138999948,515.5308269999805,515.5450322999968,515.5450322999968,515.5450322999968,518.1288092000177,Objects\084a.jpg,post,o,2.573439800005872,None,,,,,,,,00053,001,2026-01-18_19h05.55.236,MST_test,2024.2.0,60.055839911674546,2026-01-18 19h06.10.848303 +0530,
128,0,129,s,5.553957599971909,None,129,0,128,518.1448305000085,,,,,,,,,,,,,,,,,,,,,,,,,,,,,,,,,,,,,,,,,,,,,,,,,,518.1288970999885,518.1448305000085,518.6450609000167,518.628290899971,518.630868999986,518.6450609000167,518.6450609000167,518.6450609000167,524.212297799997,Objects\009a.jpg,mid,s,5.553957599971909,None,,,,,,,,00053,001,2026-01-18_19h05.55.236,MST_test,2024.2.0,60.055839911674546,2026-01-18 19h06.10.848303 +0530,
129,0,130,s,2.9906918999622576,None,130,0,129,524.2281429999857,,,,,,,,,,,,,,,,,,,,,,,,,,,,,,,,,,,,,,,,,,,,,,,,,,524.2123921000166,524.2281429999857,524.7285147999646,524.7118111000163,524.7236614999711,524.7285147999646,524.7285147999646,524.7285147999646,527.728755499993,Objects\057b.jpg,mid,s,2.9906918999622576,None,,,,,,,,00053,001,2026-01-18_19h05.55.236,MST_test,2024.2.0,60.055839911674546,2026-01-18 19h06.10.848303 +0530,
130,0,131,s,1.2096693000057712,None,131,0,130,527.7448806000175,,,,,,,,,,,,,,,,,,,,,,,,,,,,,,,,,,,,,,,,,,,,,,,,,,527.7288512999658,527.7448806000175,528.2453896999941,528.2283933999715,528.2389956999687,528.2453896999941,528.2453896999941,528.2453896999941,529.4625395999756,Objects\340b.jpg,pre,s,1.2096693000057712,None,,,,,,,,00053,001,2026-01-18_19h05.55.236,MST_test,2024.2.0,60.055839911674546,2026-01-18 19h06.10.848303 +0530,
131,0,132,n,2.9878675999934785,None,132,0,131,529.4781317000161,,,,,,,,,,,,,,,,,,,,,,,,,,,,,,,,,,,,,,,,,,,,,,,,,,529.4626437000115,529.4781317000161,529.9784592000069,529.9618433999713,529.9721712999744,529.9784592000069,529.9784592000069,529.9784592000069,532.9787005999824,Foils\113a.jpg,none,n,2.9878675999934785,None,,,,,,,,00053,001,2026-01-18_19h05.55.236,MST_test,2024.2.0,60.055839911674546,2026-01-18 19h06.10.848303 +0530,
132,0,133,o,1.351338900043629,None,133,0,132,532.9948134999722,,,,,,,,,,,,,,,,,,,,,,,,,,,,,,,,,,,,,,,,,,,,,,,,,,532.9787888000137,532.9948134999722,533.4950646999641,533.4783146000118,533.4805648999754,533.4950646999641,533.4950646999641,533.4950646999641,534.8620249999803,Objects\051a.jpg,post,o,1.351338900043629,None,,,,,,,,00053,001,2026-01-18_19h05.55.236,MST_test,2024.2.0,60.055839911674546,2026-01-18 19h06.10.848303 +0530,
133,0,134,o,1.7488158000051044,None,134,0,133,534.8781551999855,,,,,,,,,,,,,,,,,,,,,,,,,,,,,,,,,,,,,,,,,,,,,,,,,,534.8621146999649,534.8781551999855,535.3782485999982,535.3617846000125,535.3644006999675,535.3782485999982,535.3782485999982,535.3782485999982,537.1286175000132,Objects\008a.jpg,pre,o,1.7488158000051044,None,,,,,,,,00053,001,2026-01-18_19h05.55.236,MST_test,2024.2.0,60.055839911674546,2026-01-18 19h06.10.848303 +0530,
134,0,135,o,1.193724300013855,None,135,0,134,537.1448841000092,,,,,,,,,,,,,,,,,,,,,,,,,,,,,,,,,,,,,,,,,,,,,,,,,,537.1287086000084,537.1448841000092,537.6453439000179,537.6284216999775,537.6315123999957,537.6453439000179,537.6453439000179,537.6453439000179,538.8454761999892,Objects\247a.jpg,pre,o,1.193724300013855,None,,,,,,,,00053,001,2026-01-18_19h05.55.236,MST_test,2024.2.0,60.055839911674546,2026-01-18 19h06.10.848303 +0530,
135,0,136,o,2.548337000014726,None,136,0,135,538.8615554000135,,,,,,,,,,,,,,,,,,,,,,,,,,,,,,,,,,,,,,,,,,,,,,,,,,538.8455687999958,538.8615554000135,539.3620008999715,539.3450741000124,539.3550336000044,539.3620008999715,539.3620008999715,539.3620008999715,541.9121872999822,Objects\362b.jpg,mid,o,2.548337000014726,None,,,,,,,,00053,001,2026-01-18_19h05.55.236,MST_test,2024.2.0,60.055839911674546,2026-01-18 19h06.10.848303 +0530,
136,0,137,n,1.43367080000462,None,137,0,136,541.928050699993,,,,,,,,,,,,,,,,,,,,,,,,,,,,,,,,,,,,,,,,,,,,,,,,,,541.9122830000124,541.928050699993,542.4285979999695,542.4118222999969,542.4236831999733,542.4285979999695,542.4285979999695,542.4285979999695,543.8787356999819,Objects\075b.jpg,pre,n,1.43367080000462,None,,,,,,,,00053,001,2026-01-18_19h05.55.236,MST_test,2024.2.0,60.055839911674546,2026-01-18 19h06.10.848303 +0530,
137,0,138,n,1.5321852000197396,None,138,0,137,543.8948815999902,,,,,,,,,,,,,,,,,,,,,,,,,,,,,,,,,,,,,,,,,,,,,,,,,,543.8788292999961,543.8948815999902,544.3950724999886,544.3783025000012,544.3884139999864,544.3950724999886,544.3950724999886,544.3950724999886,545.9287423999631,Foils\065a.jpg,none,n,1.5321852000197396,None,,,,,,,,00053,001,2026-01-18_19h05.55.236,MST_test,2024.2.0,60.055839911674546,2026-01-18 19h06.10.848303 +0530,
138,0,139,s,2.081858499965165,None,139,0,138,545.9448811999755,,,,,,,,,,,,,,,,,,,,,,,,,,,,,,,,,,,,,,,,,,,,,,,,,,545.9288320000051,545.9448811999755,546.4452496999875,546.4283813000075,546.4309871000005,546.4452496999875,546.4452496999875,546.4452496999875,548.5285677000065,Objects\368a.jpg,pre,s,2.081858499965165,None,,,,,,,,00053,001,2026-01-18_19h05.55.236,MST_test,2024.2.0,60.055839911674546,2026-01-18 19h06.10.848303 +0530,
139,0,140,s,2.0894559000153095,None,140,0,139,548.5448766999762,,,,,,,,,,,,,,,,,,,,,,,,,,,,,,,,,,,,,,,,,,,,,,,,,,548.528659100004,548.5448766999762,549.0451706000022,549.0284437999944,549.03868160001,549.0451706000022,549.0451706000022,549.0451706000022,551.1454694999848,Objects\211b.jpg,mid,s,2.0894559000153095,None,,,,,,,,00053,001,2026-01-18_19h05.55.236,MST_test,2024.2.0,60.055839911674546,2026-01-18 19h06.10.848303 +0530,
140,0,141,s,2.936463799967896,None,141,0,140,551.1615405000048,,,,,,,,,,,,,,,,,,,,,,,,,,,,,,,,,,,,,,,,,,,,,,,,,,551.1455601999769,551.1615405000048,551.6619333999697,551.6452472999808,551.6553053999669,551.6619333999697,551.6619333999697,551.6619333999697,554.6121177999885,Objects\015b.jpg,post,s,2.936463799967896,None,,,,,,,,00053,001,2026-01-18_19h05.55.236,MST_test,2024.2.0,60.055839911674546,2026-01-18 19h06.10.848303 +0530,
141,0,142,n,1.8867987000267021,None,142,0,141,554.628136400017,,,,,,,,,,,,,,,,,,,,,,,,,,,,,,,,,,,,,,,,,,,,,,,,,,554.6122061999631,554.628136400017,555.1284300999832,555.1117940999684,555.1223064999795,555.1284300999832,555.1284300999832,555.1284300999832,557.02861139999,Foils\105a.jpg,none,n,1.8867987000267021,None,,,,,,,,00053,001,2026-01-18_19h05.55.236,MST_test,2024.2.0,60.055839911674546,2026-01-18 19h06.10.848303 +0530,
142,0,143,o,0.9980193999945186,None,143,0,142,557.0448909999686,,,,,,,,,,,,,,,,,,,,,,,,,,,,,,,,,,,,,,,,,,,,,,,,,,557.0287019999814,557.0448909999686,557.5450318999938,557.5283491999726,557.5308029999724,557.5450318999938,557.5450318999938,557.5450318999938,558.5456022999715,Objects\067a.jpg,post,o,0.9980193999945186,None,,,,,,,,00053,001,2026-01-18_19h05.55.236,MST_test,2024.2.0,60.055839911674546,2026-01-18 19h06.10.848303 +0530,
143,0,144,n,1.9533898999798112,None,144,0,143,558.561612599995,,,,,,,,,,,,,,,,,,,,,,,,,,,,,,,,,,,,,,,,,,,,,,,,,,558.5456966999918,558.561612599995,559.0617195999948,559.0451249000034,559.054833000002,559.0617195999948,559.0617195999948,559.0617195999948,561.028661099961,Foils\074a.jpg,none,n,1.9533898999798112,None,,,,,,,,00053,001,2026-01-18_19h05.55.236,MST_test,2024.2.0,60.055839911674546,2026-01-18 19h06.10.848303 +0530,
144,0,145,n,1.0543280999991111,None,145,0,144,561.0449492000043,,,,,,,,,,,,,,,,,,,,,,,,,,,,,,,,,,,,,,,,,,,,,,,,,,561.0287536999676,561.0449492000043,561.5451655999641,561.5283104999689,561.5391826999839,561.5451655999641,561.5451655999641,561.5451655999641,562.6124219999765,Foils\010a.jpg,none,n,1.0543280999991111,None,,,,,,,,00053,001,2026-01-18_19h05.55.236,MST_test,2024.2.0,60.055839911674546,2026-01-18 19h06.10.848303 +0530,
145,0,146,s,1.5658914999803528,None,146,0,145,562.6282537999796,,,,,,,,,,,,,,,,,,,,,,,,,,,,,,,,,,,,,,,,,,,,,,,,,,562.6125232999912,562.6282537999796,563.1283922999864,563.1118340999819,563.1215494999778,563.1283922999864,563.1283922999864,563.1283922999864,564.695620500017,Objects\108b.jpg,post,s,1.5658914999803528,None,,,,,,,,00053,001,2026-01-18_19h05.55.236,MST_test,2024.2.0,60.055839911674546,2026-01-18 19h06.10.848303 +0530,
146,0,147,o,1.523127399967052,None,147,0,146,564.711520700017,,,,,,,,,,,,,,,,,,,,,,,,,,,,,,,,,,,,,,,,,,,,,,,,,,564.6957143999753,564.711520700017,565.2117747999728,565.1951452000067,565.2048729999806,565.2117747999728,565.2117747999728,565.2117747999728,566.7453685000073,Objects\098b.jpg,mid,o,1.523127399967052,None,,,,,,,,00053,001,2026-01-18_19h05.55.236,MST_test,2024.2.0,60.055839911674546,2026-01-18 19h06.10.848303 +0530,
147,0,148,s,2.0405652999761514,None,148,0,147,566.7615481999819,,,,,,,,,,,,,,,,,,,,,,,,,,,,,,,,,,,,,,,,,,,,,,,,,,566.7454605000094,566.7615481999819,567.2617736000102,567.245121999993,567.2550165000139,567.2617736000102,567.2617736000102,567.2617736000102,569.3120816000155,Objects\153b.jpg,post,s,2.0405652999761514,None,,,,,,,,00053,001,2026-01-18_19h05.55.236,MST_test,2024.2.0,60.055839911674546,2026-01-18 19h06.10.848303 +0530,
148,0,149,o,1.370872400002554,None,149,0,148,569.3281150999828,,,,,,,,,,,,,,,,,,,,,,,,,,,,,,,,,,,,,,,,,,,,,,,,,,569.3121736999601,569.3281150999828,569.8283995999955,569.8117906000116,569.8222002999973,569.8283995999955,569.8283995999955,569.8283995999955,571.212120399985,Objects\232b.jpg,pre,o,1.370872400002554,None,,,,,,,,00053,001,2026-01-18_19h05.55.236,MST_test,2024.2.0,60.055839911674546,2026-01-18 19h06.10.848303 +0530,
149,0,150,s,2.7104263000073843,None,150,0,149,571.2280543000088,,,,,,,,,,,,,,,,,,,,,,,,,,,,,,,,,,,,,,,,,,,,,,,,,,571.2122237000149,571.2280543000088,571.7284808999975,571.7117302999832,571.7149952999898,571.7284808999975,571.7284808999975,571.7284808999975,574.4453620999702,Objects\093a.jpg,mid,s,2.7104263000073843,None,,,,,,,,00053,001,2026-01-18_19h05.55.236,MST_test,2024.2.0,60.055839911674546,2026-01-18 19h06.10.848303 +0530,
,,,,,,,,,,,,,,,,,,,,,,,,,,,,,,,,,,,,,,,,,,,,,,,,,,,,,,,,,,,,,,,,,,,,,,,,,574.4454259999911,574.4615799000021,574.4615799000021,576.3285520999925,space,1.8576040999614634,None,00053,001,2026-01-18_19h05.55.236,MST_test,2024.2.0,60.055839911674546,2026-01-18 19h06.10.848303 +0530,
