Sl_no,image_path,thisN,thisTrialN,thisRepN,key_resp_5.keys,key_resp_5.rt,key_resp_5.duration,key_resp_7.keys,key_resp_7.rt,key_resp_7.duration,key_resp_9.keys,key_resp_8.keys,key_resp_8.rt,key_resp_8.duration,key_resp_9.rt,key_resp_9.duration,practice.thisRepN,practice.thisTrialN,practice.thisN,trials.thisRepN,trials.thisTrialN,trials.thisN,thisRow.t,notes,welcome_page.started,text.started,key_resp.started,welcome_page.stopped,key_resp.keys,key_resp.rt,key_resp.duration,instructions.started,ins.started,key_resp_2.started,instructions.stopped,key_resp_2.keys,key_resp_2.rt,key_resp_2.duration,objects_only_instruction.started,text_3.started,key_resp_3.started,objects_only_instruction.stopped,key_resp_3.keys,key_resp_3.rt,key_resp_3.duration,ISI.started,text_4.started,ISI.stopped,practice_block.started,image.started,key_resp_5.started,text_5.started,practice_block.stopped,practice.key_resp_5.keys,practice.key_resp_5.rt,practice.key_resp_5.duration,indoor_outdoor.started,indoor_outdoor.stopped,practice.key_resp_7.keys,text_4.stopped,image.stopped,key_resp_5.stopped,text_5.stopped,text_7.started,key_resp_7.started,practice.key_resp_7.rt,practice.key_resp_7.duration,practice_to_main.started,text_2.started,key_resp_4.started,practice_to_main.stopped,key_resp_4.keys,key_resp_4.rt,key_resp_4.duration,objects.started,image_2.started,text_9.started,key_resp_9.started,objects.stopped,category,trials.key_resp_9.keys,encoding_task.started,text_8.started,key_resp_8.started,encoding_task.stopped,trials.key_resp_8.keys,trials.key_resp_8.rt,trials.key_resp_8.duration,image_2.stopped,text_9.stopped,key_resp_9.stopped,trials.key_resp_9.rt,trials.key_resp_9.duration,end_experiment.started,text_6.started,key_resp_6.started,end_experiment.stopped,key_resp_6.keys,key_resp_6.rt,key_resp_6.duration,list_of_stimuli,encoding_task_accuracy,participant,session,date,expName,psychopyVersion,frameRate,expStart,
,,,,,,,,,,,,,,,,,,,,,,,,,0.0011758999899029732,0.002667199994903058,0.002667199994903058,273.28965180000523,space,273.27207830001134,None,,,,,,,,,,,,,,,,,,,,,,,,,,,,,,,,,,,,,,,,,,,,,,,,,,,,,,,,,,,,,,,,,,,,,,,,00053,001,2026-01-18_18h34.57.020,MST_task,2024.2.0,59.998944017529325,2026-01-18 18h35.16.930505 +0530,
,,,,,,,,,,,,,,,,,,,,,,,,,,,,,,,,273.2896926999674,273.30419219995383,273.30419219995383,304.6047607999644,space,31.29873470001621,None,,,,,,,,,,,,,,,,,,,,,,,,,,,,,,,,,,,,,,,,,,,,,,,,,,,,,,,,,,,,,,,,,00053,001,2026-01-18_18h34.57.020,MST_task,2024.2.0,59.998944017529325,2026-01-18 18h35.16.930505 +0530,
,,,,,,,,,,,,,,,,,,,,,,,,,,,,,,,,,,,,,,,304.60479099996155,304.6207574,304.6207574,307.5714860999724,space,2.942143899970688,None,,,,,,,,,,,,,,,,,,,,,,,,,,,,,,,,,,,,,,,,,,,,,,,,,,,,,,,,,,00053,001,2026-01-18_18h34.57.020,MST_task,2024.2.0,59.998944017529325,2026-01-18 18h35.16.930505 +0530,
6,practice_images/158a.jpg,0,0,1,j,2.888977199967485,None,None,,,,,,,,,1,0,0,,,,307.59270049998304,,,,,,,,,,,,,,,,,,,,,,,307.59039749996737,307.59270049998304,308.0877229999751,308.1016289999825,308.11297560000094,308.11297560000094,308.11297560000094,311.0878876999486,j,2.888977199967485,None,311.0895352999796,311.08955459995195,None,,,,,,,,,,,,,,,,,,,,,,,,,,,,,,,,,,,,,,,,,,,,00053,001,2026-01-18_18h34.57.020,MST_task,2024.2.0,59.998944017529325,2026-01-18 18h35.16.930505 +0530,
4,practice_images/002b.jpg,1,1,1,f,2.4694992000004277,0.10397779999766499,None,,,,,,,,,1,1,1,,,,311.1042846000055,,,,,,,,,,,,,,,,,,,,,,,311.0896201999858,311.1042846000055,311.58781959995395,311.5974709999864,311.6044042999856,311.6044042999856,311.6044042999856,314.5880241999985,f,2.4694992000004277,0.10397779999766499,314.5880621999968,314.5880737999687,None,311.6044042999856,314.60420189995784,314.60420189995784,314.60420189995784,,,,,,,,,,,,,,,,,,,,,,,,,,,,,,,,,,,,,,,,00053,001,2026-01-18_18h34.57.020,MST_task,2024.2.0,59.998944017529325,2026-01-18 18h35.16.930505 +0530,
1,practice_images/013a.jpg,2,2,1,j,1.2492791999829933,0.1370619999943301,None,,,,,,,,,1,2,2,,,,314.60420189995784,,,,,,,,,,,,,,,,,,,,,,,314.5881369999843,314.60420189995784,315.0878532999777,315.09648899995955,315.1045540999621,315.1045540999621,315.1045540999621,318.08801419998053,j,1.2492791999829933,0.1370619999943301,318.088051299972,318.0880632000044,None,315.1045540999621,318.10423679999076,318.10423679999076,318.10423679999076,,,,,,,,,,,,,,,,,,,,,,,,,,,,,,,,,,,,,,,,00053,001,2026-01-18_18h34.57.020,MST_task,2024.2.0,59.998944017529325,2026-01-18 18h35.16.930505 +0530,
5,practice_images/139a.jpg,3,3,1,f,2.6378174999845214,0.14398649998474866,None,,,,,,,,,1,3,3,,,,318.10423679999076,,,,,,,,,,,,,,,,,,,,,,,318.0881340999622,318.10423679999076,318.5878517999663,318.5969279999845,318.6046477999771,318.6046477999771,318.6046477999771,321.58808999997564,f,2.6378174999845214,0.14398649998474866,321.5881293999846,321.5881415999611,None,318.6046477999771,321.6042702999548,321.6042702999548,321.6042702999548,,,,,,,,,,,,,,,,,,,,,,,,,,,,,,,,,,,,,,,,00053,001,2026-01-18_18h34.57.020,MST_task,2024.2.0,59.998944017529325,2026-01-18 18h35.16.930505 +0530,
10,practice_images/182a.jpg,4,4,1,f,1.0894492000225,0.14498590002767742,None,,,,,,,,,1,4,4,,,,321.6042702999548,,,,,,,,,,,,,,,,,,,,,,,321.5882048999774,321.6042702999548,322.08793809998315,322.0967216999852,322.10440660000313,322.10440660000313,322.10440660000313,325.0879524999764,f,1.0894492000225,0.14498590002767742,325.08798849995947,325.0880000999896,None,322.10440660000313,325.1042599999928,325.1042599999928,325.1042599999928,,,,,,,,,,,,,,,,,,,,,,,,,,,,,,,,,,,,,,,,00053,001,2026-01-18_18h34.57.020,MST_task,2024.2.0,59.998944017529325,2026-01-18 18h35.16.930505 +0530,
3,practice_images/037a.jpg,5,5,1,None,,,j,14.478027400036808,None,,,,,,,1,5,5,,,,325.1042599999928,,,,,,,,,,,,,,,,,,,,,,,325.0880608999869,325.1042599999928,325.5878466999857,325.6000907999696,325.6044386999565,325.6044386999565,325.6044386999565,328.58791969995946,None,,,328.59001849999186,343.08790699997917,j,325.6044386999565,328.6042871999671,328.6042871999671,328.6042871999671,328.6042871999671,328.6042871999671,14.478027400036808,None,,,,,,,,,,,,,,,,,,,,,,,,,,,,,,,,,,,,00053,001,2026-01-18_18h34.57.020,MST_task,2024.2.0,59.998944017529325,2026-01-18 18h35.16.930505 +0530,
7,practice_images/166a.jpg,6,6,1,None,,,j,13.526582400023472,None,,,,,,,1,6,6,,,,343.10414889996173,,,,,,,,,,,,,,,,,,,,,,,343.0879997999873,343.10414889996173,343.5877211999614,343.59701859997585,343.6043529000017,343.6043529000017,343.6043529000017,346.5880119999638,None,,,346.588049199956,360.13794469996355,j,343.6043529000017,346.60428829997545,346.60428829997545,346.60428829997545,346.60428829997545,346.60428829997545,13.526582400023472,None,,,,,,,,,,,,,,,,,,,,,,,,,,,,,,,,,,,,00053,001,2026-01-18_18h34.57.020,MST_task,2024.2.0,59.998944017529325,2026-01-18 18h35.16.930505 +0530,
8,practice_images/178a.jpg,7,7,1,f,2.9478840999654494,None,None,,,,,,,,,1,7,7,,,,360.15408229996683,,,,,,,,,,,,,,,,,,,,,,,360.13802699994994,360.15408229996683,360.63784409995424,360.64692999998806,360.65434379997896,360.65434379997896,360.65434379997896,363.63784819998546,f,2.9478840999654494,None,363.6378857999807,363.63790410000365,None,360.65434379997896,363.65416579996236,363.65416579996236,363.65416579996236,,,,,,,,,,,,,,,,,,,,,,,,,,,,,,,,,,,,,,,,00053,001,2026-01-18_18h34.57.020,MST_task,2024.2.0,59.998944017529325,2026-01-18 18h35.16.930505 +0530,
2,practice_images/031a.jpg,8,8,1,j,1.5516359999892302,0.13609789998736233,None,,,,,,,,,1,8,8,,,,363.65416579996236,,,,,,,,,,,,,,,,,,,,,,,363.6379634999903,363.65416579996236,364.1377615999663,364.1487155999639,364.15437569998903,364.15437569998903,364.15437569998903,367.1379186999984,j,1.5516359999892302,0.13609789998736233,367.13795509998454,367.1379673999618,None,364.15437569998903,367.15416039997945,367.15416039997945,367.15416039997945,,,,,,,,,,,,,,,,,,,,,,,,,,,,,,,,,,,,,,,,00053,001,2026-01-18_18h34.57.020,MST_task,2024.2.0,59.998944017529325,2026-01-18 18h35.16.930505 +0530,
9,practice_images/180a.jpg,9,9,1,j,1.1722062000189908,0.13599749997956678,None,,,,,,,,,1,9,9,,,,367.15416039997945,,,,,,,,,,,,,,,,,,,,,,,367.1380309999804,367.15416039997945,367.637788299995,367.648418799974,367.65437639999436,367.65437639999436,367.65437639999436,370.6379805000033,j,1.1722062000189908,0.13599749997956678,370.6380205999594,370.63803269999335,None,367.65437639999436,370.6542101999512,370.6542101999512,370.6542101999512,,,,,,,,,,,,,,,,,,,,,,,,,,,,,,,,,,,,,,,,00053,001,2026-01-18_18h34.57.020,MST_task,2024.2.0,59.998944017529325,2026-01-18 18h35.16.930505 +0530,
,,,,,,,,,,,,,,,,,,,,,,,,,,,,,,,,,,,,,,,,,,,,,,,,,,,,,,,,,,,,,,,,,,,,370.63807349995477,370.6542101999512,370.6542101999512,397.8047733999556,space,27.148498800001107,None,,,,,,,,,,,,,,,,,,,,,,,,,,,,,00053,001,2026-01-18_18h34.57.020,MST_task,2024.2.0,59.998944017529325,2026-01-18 18h35.16.930505 +0530,
,Objects\313a.jpg,0,0,1,,,,,,,None,j,2.0725232000113465,None,,,,,,1,0,0,397.82070329994895,,,,,,,,,,,,,,,,,,,,,,,397.80541129998164,397.82070329994895,398.304460299958,,,,,,,,,,,,398.328385300003,,,,,,,,,,,,,,,398.3255261000013,398.328385300003,398.328385300003,398.328385300003,401.3210200999747,shoe,None,401.323155399994,401.3375195999979,401.3375195999979,403.42138789995806,j,2.0725232000113465,None,,,,,,,,,,,,,,,00053,001,2026-01-18_18h34.57.020,MST_task,2024.2.0,59.998944017529325,2026-01-18 18h35.16.930505 +0530,
,Objects\099a.jpg,1,0,2,,,,,,,j,None,,,2.0009279000223614,0.15114839997841045,,,,2,0,1,403.43753349996405,,,,,,,,,,,,,,,,,,,,,,,403.4214827999822,403.43753349996405,403.9209661000059,,,,,,,,,,,,403.9378427999909,,,,,,,,,,,,,,,403.9313427999732,403.9378427999909,403.9378427999909,403.9378427999909,406.92145679995883,shoe,j,406.92150569998194,,,406.9215176999569,None,,,406.93757049995475,406.93757049995475,406.93757049995475,2.0009279000223614,0.15114839997841045,,,,,,,,,,00053,001,2026-01-18_18h34.57.020,MST_task,2024.2.0,59.998944017529325,2026-01-18 18h35.16.930505 +0530,
,Objects\244a.jpg,2,0,3,,,,,,,f,None,,,0.9962860000086948,0.14421559998299927,,,,3,0,2,406.93757049995475,,,,,,,,,,,,,,,,,,,,,,,406.92158639995614,406.93757049995475,407.4209487999906,,,,,,,,,,,,407.4379777999711,,,,,,,,,,,,,,,407.4308863999904,407.4379777999711,407.4379777999711,407.4379777999711,410.4211383999791,shoe,f,410.4211823999649,,,410.42119389999425,None,,,410.43751439999323,410.43751439999323,410.43751439999323,0.9962860000086948,0.14421559998299927,,,,,,,,,,00053,001,2026-01-18_18h34.57.020,MST_task,2024.2.0,59.998944017529325,2026-01-18 18h35.16.930505 +0530,
,Objects\264a.jpg,3,0,4,,,,,,,f,None,,,0.9684086999623105,0.14410939998924732,,,,4,0,3,410.43751439999323,,,,,,,,,,,,,,,,,,,,,,,410.42125600000145,410.43751439999323,410.92102879995946,,,,,,,,,,,,410.93783829995664,,,,,,,,,,,,,,,410.9313292999868,410.93783829995664,410.93783829995664,410.93783829995664,413.9213919999893,shoe,f,413.92144069995265,,,413.9214529999881,None,,,413.9374836999923,413.9374836999923,413.9374836999923,0.9684086999623105,0.14410939998924732,,,,,,,,,,00053,001,2026-01-18_18h34.57.020,MST_task,2024.2.0,59.998944017529325,2026-01-18 18h35.16.930505 +0530,
,Objects\219a.jpg,4,0,5,,,,,,,None,f,1.1409137999871746,None,,,,,,5,0,4,413.9374836999923,,,,,,,,,,,,,,,,,,,,,,,413.92151939996984,413.9374836999923,414.42100969998864,,,,,,,,,,,,414.43786539998837,,,,,,,,,,,,,,,414.4322666999651,414.43786539998837,414.43786539998837,414.43786539998837,417.4214878999628,shoe,None,417.42152659996646,417.4375548999524,417.4375548999524,418.58813759998884,f,1.1409137999871746,None,417.4375548999524,417.4375548999524,417.4375548999524,,,,,,,,,,,,00053,001,2026-01-18_18h34.57.020,MST_task,2024.2.0,59.998944017529325,2026-01-18 18h35.16.930505 +0530,
,Objects\243a.jpg,5,0,6,,,,,,,f,None,,,1.858105199993588,0.1430592000251636,,,,6,0,5,418.6043408999685,,,,,,,,,,,,,,,,,,,,,,,418.58822869998403,418.6043408999685,419.0878038999508,,,,,,,,,,,,419.1046606999589,,,,,,,,,,,,,,,419.0985571999918,419.1046606999589,419.1046606999589,419.1046606999589,422.08811479998985,shoe,f,422.088159499981,,,422.0881720999605,None,,,422.10431439999957,422.10431439999957,422.10431439999957,1.858105199993588,0.1430592000251636,,,,,,,,,,00053,001,2026-01-18_18h34.57.020,MST_task,2024.2.0,59.998944017529325,2026-01-18 18h35.16.930505 +0530,
,Objects\336a.jpg,6,0,7,,,,,,,f,None,,,1.8615259999642149,0.14400540001224726,,,,7,0,6,422.10431439999957,,,,,,,,,,,,,,,,,,,,,,,422.0882380999974,422.10431439999957,422.587824199989,,,,,,,,,,,,422.60468799999217,,,,,,,,,,,,,,,422.59878159995424,422.60468799999217,422.60468799999217,422.60468799999217,425.5882566999644,shoe,f,425.5883002000046,,,425.5883117999765,None,,,425.604313799995,425.604313799995,425.604313799995,1.8615259999642149,0.14400540001224726,,,,,,,,,,00053,001,2026-01-18_18h34.57.020,MST_task,2024.2.0,59.998944017529325,2026-01-18 18h35.16.930505 +0530,
,Objects\022a.jpg,7,0,8,,,,,,,f,None,,,1.304092500009574,0.14390650001587346,,,,8,0,7,425.604313799995,,,,,,,,,,,,,,,,,,,,,,,425.58837529999437,425.604313799995,426.0878849999863,,,,,,,,,,,,426.1058264999883,,,,,,,,,,,,,,,426.1033636999782,426.1058264999883,426.1058264999883,426.1058264999883,429.10455200000433,indoor,f,429.1061947999988,,,429.1062148999772,None,,,,,,1.304092500009574,0.14390650001587346,,,,,,,,,,00053,001,2026-01-18_18h34.57.020,MST_task,2024.2.0,59.998944017529325,2026-01-18 18h35.16.930505 +0530,
,Objects\072a.jpg,8,0,9,,,,,,,f,None,,,1.5335799000458792,0.15145020000636578,,,,9,0,8,429.1210174000007,,,,,,,,,,,,,,,,,,,,,,,429.1062846999848,429.1210174000007,429.6045497999876,,,,,,,,,,,,429.62114639999345,,,,,,,,,,,,,,,429.61613179999404,429.62114639999345,429.62114639999345,429.62114639999345,432.6048715999932,indoor,f,432.6049136999645,,,432.6049251999939,None,,,432.6208533999743,432.6208533999743,432.6208533999743,1.5335799000458792,0.15145020000636578,,,,,,,,,,00053,001,2026-01-18_18h34.57.020,MST_task,2024.2.0,59.998944017529325,2026-01-18 18h35.16.930505 +0530,
,Objects\305a.jpg,9,0,10,,,,,,,None,f,0.40128200000617653,None,,,,,,10,0,9,432.6208533999743,,,,,,,,,,,,,,,,,,,,,,,432.6049889999558,432.6208533999743,433.10451109998394,,,,,,,,,,,,433.1212289999821,,,,,,,,,,,,,,,433.11412769998424,433.1212289999821,433.1212289999821,433.1212289999821,436.1048893999541,indoor,None,436.1049351999536,436.1207984999637,436.1207984999637,436.53805390000343,f,0.40128200000617653,None,436.1207984999637,436.1207984999637,436.1207984999637,,,,,,,,,,,,00053,001,2026-01-18_18h34.57.020,MST_task,2024.2.0,59.998944017529325,2026-01-18 18h35.16.930505 +0530,
,Objects\261a.jpg,10,0,11,,,,,,,f,None,,,1.107196400000248,0.16026219999184832,,,,11,0,10,436.5542923999601,,,,,,,,,,,,,,,,,,,,,,,436.5381537999492,436.5542923999601,437.03789859998506,,,,,,,,,,,,437.054718600004,,,,,,,,,,,,,,,437.0485809999518,437.054718600004,437.054718600004,437.054718600004,440.03825179999694,indoor,f,440.0382965999888,,,440.0383085999638,None,,,440.0542889999924,440.0542889999924,440.0542889999924,1.107196400000248,0.16026219999184832,,,,,,,,,,00053,001,2026-01-18_18h34.57.020,MST_task,2024.2.0,59.998944017529325,2026-01-18 18h35.16.930505 +0530,
,Objects\154a.jpg,11,0,12,,,,,,,None,f,1.536204900010489,None,,,,,,12,0,11,440.0542889999924,,,,,,,,,,,,,,,,,,,,,,,440.03837129997555,440.0542889999924,440.53784059995087,,,,,,,,,,,,440.5546916999738,,,,,,,,,,,,,,,440.5488070999854,440.5546916999738,440.5546916999738,440.5546916999738,443.53813089994946,indoor,None,443.53816949995235,443.5543506999966,443.5543506999966,445.10471679997863,f,1.536204900010489,None,443.5543506999966,443.5543506999966,443.5543506999966,,,,,,,,,,,,00053,001,2026-01-18_18h34.57.020,MST_task,2024.2.0,59.998944017529325,2026-01-18 18h35.16.930505 +0530,
,Objects\077a.jpg,12,0,13,,,,,,,j,None,,,1.2049560000305064,0.13603629998397082,,,,13,0,12,445.1208204999566,,,,,,,,,,,,,,,,,,,,,,,445.1048029999947,445.1208204999566,445.6044125999906,,,,,,,,,,,,445.6209681999753,,,,,,,,,,,,,,,445.6149893999682,445.6209681999753,445.6209681999753,445.6209681999753,448.6047853999771,indoor,j,448.60482879995834,,,448.6048404999892,None,,,448.62097639997955,448.62097639997955,448.62097639997955,1.2049560000305064,0.13603629998397082,,,,,,,,,,00053,001,2026-01-18_18h34.57.020,MST_task,2024.2.0,59.998944017529325,2026-01-18 18h35.16.930505 +0530,
,Objects\174a.jpg,13,0,14,,,,,,,f,None,,,1.2570114000118338,0.14455999998608604,,,,14,0,13,448.62097639997955,,,,,,,,,,,,,,,,,,,,,,,448.6049037000048,448.62097639997955,449.10455609997734,,,,,,,,,,,,449.12100379995536,,,,,,,,,,,,,,,449.1155378999538,449.12100379995536,449.12100379995536,449.12100379995536,452.1048426000052,indoor,f,452.1048855999834,,,452.1048971999553,None,,,452.12095239997143,452.12095239997143,452.12095239997143,1.2570114000118338,0.14455999998608604,,,,,,,,,,00053,001,2026-01-18_18h34.57.020,MST_task,2024.2.0,59.998944017529325,2026-01-18 18h35.16.930505 +0530,
,Objects\051a.jpg,14,0,15,,,,,,,f,None,,,2.0699445999925956,0.12688960001105443,,,,15,0,14,452.12095239997143,,,,,,,,,,,,,,,,,,,,,,,452.1049610999762,452.12095239997143,452.60449429997243,,,,,,,,,,,,452.6211767999921,,,,,,,,,,,,,,,452.61693899997044,452.6211767999921,452.6211767999921,452.6211767999921,455.6050262999488,shoe,f,455.6072654000018,,,455.6072875999962,None,,,455.62101959995925,455.62101959995925,455.62101959995925,2.0699445999925956,0.12688960001105443,,,,,,,,,,00053,001,2026-01-18_18h34.57.020,MST_task,2024.2.0,59.998944017529325,2026-01-18 18h35.16.930505 +0530,
,Objects\066a.jpg,15,0,16,,,,,,,None,j,2.833337299991399,None,,,,,,16,0,15,455.62101959995925,,,,,,,,,,,,,,,,,,,,,,,455.607365200005,455.62101959995925,456.1046437000041,,,,,,,,,,,,456.1211961999652,,,,,,,,,,,,,,,456.11621969996486,456.1211961999652,456.1211961999652,456.1211961999652,459.10500629997114,shoe,None,459.1050446999725,459.12089769996237,459.12089769996237,461.95489689998794,j,2.833337299991399,None,459.12089769996237,459.12089769996237,459.12089769996237,,,,,,,,,,,,00053,001,2026-01-18_18h34.57.020,MST_task,2024.2.0,59.998944017529325,2026-01-18 18h35.16.930505 +0530,
,Objects\323a.jpg,16,0,17,,,,,,,j,None,,,2.434592999983579,0.136574300006032,,,,17,0,16,461.97097899997607,,,,,,,,,,,,,,,,,,,,,,,461.95498479995877,461.97097899997607,462.45455669995863,,,,,,,,,,,,462.4713467999827,,,,,,,,,,,,,,,462.4675634999876,462.4713467999827,462.4713467999827,462.4713467999827,465.4570470000035,shoe,j,465.457092800003,,,465.4571052999818,None,,,,,,2.434592999983579,0.136574300006032,,,,,,,,,,00053,001,2026-01-18_18h34.57.020,MST_task,2024.2.0,59.998944017529325,2026-01-18 18h35.16.930505 +0530,
,Objects\300a.jpg,17,0,18,,,,,,,None,f,0.1918176999897696,None,,,,,,18,0,17,465.47096509998664,,,,,,,,,,,,,,,,,,,,,,,465.4571719999658,465.47096509998664,465.95460689999163,,,,,,,,,,,,465.97135779995006,,,,,,,,,,,,,,,465.96534159994917,465.97135779995006,465.97135779995006,465.97135779995006,468.9549112999812,shoe,None,468.95495119999396,468.9709799999837,468.9709799999837,469.171329099976,f,0.1918176999897696,None,468.9709799999837,468.9709799999837,468.9709799999837,,,,,,,,,,,,00053,001,2026-01-18_18h34.57.020,MST_task,2024.2.0,59.998944017529325,2026-01-18 18h35.16.930505 +0530,
,Objects\080a.jpg,18,0,19,,,,,,,f,None,,,1.7137810999993235,0.17597939999541268,,,,19,0,18,469.18758499994874,,,,,,,,,,,,,,,,,,,,,,,469.1714213999803,469.18758499994874,469.6714778000023,,,,,,,,,,,,469.6881526999641,,,,,,,,,,,,,,,469.6825359999784,469.6881526999641,469.6881526999641,469.6881526999641,472.671462600003,shoe,f,472.6715078999987,,,472.67152039997745,None,,,472.68779479997465,472.68779479997465,472.68779479997465,1.7137810999993235,0.17597939999541268,,,,,,,,,,00053,001,2026-01-18_18h34.57.020,MST_task,2024.2.0,59.998944017529325,2026-01-18 18h35.16.930505 +0530,
,Objects\314a.jpg,19,0,20,,,,,,,None,f,5.856203100003768,None,,,,,,20,0,19,472.68779479997465,,,,,,,,,,,,,,,,,,,,,,,472.6715850000037,472.68779479997465,473.1716557999607,,,,,,,,,,,,473.1880342999939,,,,,,,,,,,,,,,473.1818790999823,473.1880342999939,473.1880342999939,473.1880342999939,476.1715251999558,shoe,None,476.17156309995335,476.1875791999628,476.1875791999628,482.0549032999552,f,5.856203100003768,None,476.1875791999628,476.1875791999628,476.1875791999628,,,,,,,,,,,,00053,001,2026-01-18_18h34.57.020,MST_task,2024.2.0,59.998944017529325,2026-01-18 18h35.16.930505 +0530,
,Objects\364a.jpg,20,0,21,,,,,,,f,None,,,2.111444699985441,0.16028650000225753,,,,21,0,20,482.0707715000026,,,,,,,,,,,,,,,,,,,,,,,482.0549940999481,482.0707715000026,482.5544791999855,,,,,,,,,,,,482.57116439996753,,,,,,,,,,,,,,,482.5645726999501,482.57116439996753,482.57116439996753,482.57116439996753,485.55482449999545,shoe,f,485.5548677999759,,,485.5548799999524,None,,,485.5706443999661,485.5706443999661,485.5706443999661,2.111444699985441,0.16028650000225753,,,,,,,,,,00053,001,2026-01-18_18h34.57.020,MST_task,2024.2.0,59.998944017529325,2026-01-18 18h35.16.930505 +0530,
,Objects\315a.jpg,21,0,22,,,,,,,None,f,0.3801664999919012,None,,,,,,22,0,21,485.5706443999661,,,,,,,,,,,,,,,,,,,,,,,485.55496959999437,485.5706443999661,486.0545779999811,,,,,,,,,,,,486.07107819995144,,,,,,,,,,,,,,,486.0666569999885,486.07107819995144,486.07107819995144,486.07107819995144,489.0547411000007,indoor,None,489.05640790000325,489.0708161999937,489.0708161999937,489.454701599956,f,0.3801664999919012,None,489.0708161999937,489.0708161999937,489.0708161999937,,,,,,,,,,,,00053,001,2026-01-18_18h34.57.020,MST_task,2024.2.0,59.998944017529325,2026-01-18 18h35.16.930505 +0530,
,Objects\319a.jpg,22,0,23,,,,,,,f,None,,,1.8632154999650083,0.15221470000687987,,,,23,0,22,489.470705499989,,,,,,,,,,,,,,,,,,,,,,,489.45479259995045,489.470705499989,489.9544382999884,,,,,,,,,,,,489.9710311999661,,,,,,,,,,,,,,,489.9661875999882,489.9710311999661,489.9710311999661,489.9710311999661,492.95478869997896,indoor,f,492.9548319999594,,,492.95484409999335,None,,,492.97080229996936,492.97080229996936,492.97080229996936,1.8632154999650083,0.15221470000687987,,,,,,,,,,00053,001,2026-01-18_18h34.57.020,MST_task,2024.2.0,59.998944017529325,2026-01-18 18h35.16.930505 +0530,
,Objects\250a.jpg,23,0,24,,,,,,,f,None,,,2.0589112999732606,0.16110890003619716,,,,24,0,23,492.97080229996936,,,,,,,,,,,,,,,,,,,,,,,492.9549080999568,492.97080229996936,493.4543740999652,,,,,,,,,,,,493.47114619996864,,,,,,,,,,,,,,,493.4674834999605,493.47114619996864,493.47114619996864,493.47114619996864,496.4548426999827,indoor,f,496.4548863999662,,,496.4548977999948,None,,,496.4708168999641,496.4708168999641,496.4708168999641,2.0589112999732606,0.16110890003619716,,,,,,,,,,00053,001,2026-01-18_18h34.57.020,MST_task,2024.2.0,59.998944017529325,2026-01-18 18h35.16.930505 +0530,
,Objects\218a.jpg,24,0,25,,,,,,,j,None,,,1.6559757000068203,0.1519877000246197,,,,25,0,24,496.4708168999641,,,,,,,,,,,,,,,,,,,,,,,496.4549774999614,496.4708168999641,496.95456209999975,,,,,,,,,,,,496.9709462999599,,,,,,,,,,,,,,,496.9642162999953,496.9709462999599,496.9709462999599,496.9709462999599,499.95475539995823,indoor,j,499.95479679998243,,,499.9548081999528,None,,,499.97073719999753,499.97073719999753,499.97073719999753,1.6559757000068203,0.1519877000246197,,,,,,,,,,00053,001,2026-01-18_18h34.57.020,MST_task,2024.2.0,59.998944017529325,2026-01-18 18h35.16.930505 +0530,
,Objects\267a.jpg,25,0,26,,,,,,,f,None,,,1.666957299981732,0.13580270000966266,,,,26,0,25,499.97073719999753,,,,,,,,,,,,,,,,,,,,,,,499.95487229997525,499.97073719999753,500.45473029999994,,,,,,,,,,,,500.47125119995326,,,,,,,,,,,,,,,500.46592069999315,500.47125119995326,500.47125119995326,500.47125119995326,503.4549745999975,indoor,f,503.45501869998407,,,503.45503039995674,None,,,503.470897399995,503.470897399995,503.470897399995,1.666957299981732,0.13580270000966266,,,,,,,,,,00053,001,2026-01-18_18h34.57.020,MST_task,2024.2.0,59.998944017529325,2026-01-18 18h35.16.930505 +0530,
,Objects\030a.jpg,26,0,27,,,,,,,f,None,,,1.3912490999791771,0.13597570004640147,,,,27,0,26,503.470897399995,,,,,,,,,,,,,,,,,,,,,,,503.45509559998754,503.470897399995,503.9545409999555,,,,,,,,,,,,503.9710911999573,,,,,,,,,,,,,,,503.96504909999203,503.9710911999573,503.9710911999573,503.9710911999573,506.95479829999385,indoor,f,506.95484119997127,,,506.95485290000215,None,,,506.9708114999812,506.9708114999812,506.9708114999812,1.3912490999791771,0.13597570004640147,,,,,,,,,,00053,001,2026-01-18_18h34.57.020,MST_task,2024.2.0,59.998944017529325,2026-01-18 18h35.16.930505 +0530,
,Objects\277a.jpg,27,0,28,,,,,,,None,f,0.403699999966193,None,,,,,,28,0,27,506.9708114999812,,,,,,,,,,,,,,,,,,,,,,,506.9549152999534,506.9708114999812,507.4546889999765,,,,,,,,,,,,507.47130380000453,,,,,,,,,,,,,,,507.4672016999684,507.47130380000453,507.47130380000453,507.47130380000453,510.4568624999956,indoor,None,510.45690329995705,510.47081420000177,510.47081420000177,510.88794779998716,f,0.403699999966193,None,510.47081420000177,510.47081420000177,510.47081420000177,,,,,,,,,,,,00053,001,2026-01-18_18h34.57.020,MST_task,2024.2.0,59.998944017529325,2026-01-18 18h35.16.930505 +0530,
,Objects\015a.jpg,28,0,29,,,,,,,f,None,,,2.0223023999715224,0.15150290000019595,,,,29,0,28,510.904208699998,,,,,,,,,,,,,,,,,,,,,,,510.88803579995874,510.904208699998,511.38783289998537,,,,,,,,,,,,511.4045498999767,,,,,,,,,,,,,,,511.401261299965,511.4045498999767,511.4045498999767,511.4045498999767,514.3885144999949,shoe,f,514.3908797999611,,,514.390899799997,None,,,514.4043295999872,514.4043295999872,514.4043295999872,2.0223023999715224,0.15150290000019595,,,,,,,,,,00053,001,2026-01-18_18h34.57.020,MST_task,2024.2.0,59.998944017529325,2026-01-18 18h35.16.930505 +0530,
,Objects\189a.jpg,29,0,30,,,,,,,j,None,,,2.690687900001649,0.14324830000987276,,,,30,0,29,514.4043295999872,,,,,,,,,,,,,,,,,,,,,,,514.3910113999736,514.4043295999872,514.8878136999556,,,,,,,,,,,,514.9045006999513,,,,,,,,,,,,,,,514.8978727999493,514.9045006999513,514.9045006999513,514.9045006999513,517.8880678999703,shoe,j,517.8881124999607,,,517.8881246999954,None,,,517.9042111999588,517.9042111999588,517.9042111999588,2.690687900001649,0.14324830000987276,,,,,,,,,,00053,001,2026-01-18_18h34.57.020,MST_task,2024.2.0,59.998944017529325,2026-01-18 18h35.16.930505 +0530,
,Objects\343a.jpg,30,0,31,,,,,,,f,None,,,1.7414278999785893,0.16855330002726987,,,,31,0,30,517.9042111999588,,,,,,,,,,,,,,,,,,,,,,,517.8882236999925,517.9042111999588,518.3879006999778,,,,,,,,,,,,518.4045709999627,,,,,,,,,,,,,,,518.3974639999797,518.4045709999627,518.4045709999627,518.4045709999627,521.3880441999645,shoe,f,521.3880880999495,,,521.3881001999835,None,,,521.4042141999817,521.4042141999817,521.4042141999817,1.7414278999785893,0.16855330002726987,,,,,,,,,,00053,001,2026-01-18_18h34.57.020,MST_task,2024.2.0,59.998944017529325,2026-01-18 18h35.16.930505 +0530,
,Objects\347a.jpg,31,0,32,,,,,,,f,None,,,2.25033390003955,0.17610609997063875,,,,32,0,31,521.4042141999817,,,,,,,,,,,,,,,,,,,,,,,521.3881643999484,521.4042141999817,521.887819399999,,,,,,,,,,,,521.9045042999787,,,,,,,,,,,,,,,521.8987001999631,521.9045042999787,521.9045042999787,521.9045042999787,524.8880788999959,shoe,f,524.8881230999832,,,524.8881348999566,None,,,524.9042139999801,524.9042139999801,524.9042139999801,2.25033390003955,0.17610609997063875,,,,,,,,,,00053,001,2026-01-18_18h34.57.020,MST_task,2024.2.0,59.998944017529325,2026-01-18 18h35.16.930505 +0530,
,Objects\291a.jpg,32,0,33,,,,,,,None,f,0.1180179999792017,None,,,,,,33,0,32,524.9042139999801,,,,,,,,,,,,,,,,,,,,,,,524.8881979999715,524.9042139999801,525.3878116999986,,,,,,,,,,,,525.4046434999909,,,,,,,,,,,,,,,525.3985202999902,525.4046434999909,525.4046434999909,525.4046434999909,528.3882336999523,shoe,None,528.3882762999856,528.4042400000035,528.4042400000035,528.5382300999481,f,0.1180179999792017,None,528.4042400000035,528.4042400000035,528.4042400000035,,,,,,,,,,,,00053,001,2026-01-18_18h34.57.020,MST_task,2024.2.0,59.998944017529325,2026-01-18 18h35.16.930505 +0530,
,Objects\168a.jpg,33,0,34,,,,,,,None,f,1.8998291000025347,None,,,,,,34,0,33,528.5542174999719,,,,,,,,,,,,,,,,,,,,,,,528.538321,528.5542174999719,529.0377427999629,,,,,,,,,,,,529.0545403999859,,,,,,,,,,,,,,,529.0482477999758,529.0545403999859,529.0545403999859,529.0545403999859,532.03810169996,shoe,None,532.0381406999659,532.0541628999636,532.0541628999636,533.9547274999786,f,1.8998291000025347,None,532.0541628999636,532.0541628999636,532.0541628999636,,,,,,,,,,,,00053,001,2026-01-18_18h34.57.020,MST_task,2024.2.0,59.998944017529325,2026-01-18 18h35.16.930505 +0530,
,Objects\355a.jpg,34,0,35,,,,,,,f,None,,,2.0667820000089705,0.11201250000158325,,,,35,0,34,533.9707815999864,,,,,,,,,,,,,,,,,,,,,,,533.954847099958,533.9707815999864,534.454455900006,,,,,,,,,,,,534.4712321999832,,,,,,,,,,,,,,,534.4675165999797,534.4712321999832,534.4712321999832,534.4712321999832,537.4566802000045,shoe,f,537.4567241999903,,,537.4567371999728,None,,,,,,2.0667820000089705,0.11201250000158325,,,,,,,,,,00053,001,2026-01-18_18h34.57.020,MST_task,2024.2.0,59.998944017529325,2026-01-18 18h35.16.930505 +0530,
,Objects\160a.jpg,35,0,36,,,,,,,None,j,2.6718772999593057,None,,,,,,36,0,35,537.4710500999936,,,,,,,,,,,,,,,,,,,,,,,537.4568039999576,537.4710500999936,537.9546106999624,,,,,,,,,,,,537.971411699953,,,,,,,,,,,,,,,537.967604299949,537.971411699953,537.971411699953,537.971411699953,540.9548406999675,indoor,None,540.9565102999914,540.9710065999534,540.9710065999534,543.6551373999682,j,2.6718772999593057,None,540.9710065999534,540.9710065999534,540.9710065999534,,,,,,,,,,,,00053,001,2026-01-18_18h34.57.020,MST_task,2024.2.0,59.998944017529325,2026-01-18 18h35.16.930505 +0530,
,Objects\133a.jpg,36,0,37,,,,,,,j,None,,,1.6874473000061698,0.1760204000165686,,,,37,0,36,543.6708324999781,,,,,,,,,,,,,,,,,,,,,,,543.6552307999809,543.6708324999781,544.1546258999733,,,,,,,,,,,,544.1711950000026,,,,,,,,,,,,,,,544.1651529999799,544.1711950000026,544.1711950000026,544.1711950000026,547.1547720999806,indoor,j,547.1548163999687,,,547.1548286000034,None,,,547.1709802999976,547.1709802999976,547.1709802999976,1.6874473000061698,0.1760204000165686,,,,,,,,,,00053,001,2026-01-18_18h34.57.020,MST_task,2024.2.0,59.998944017529325,2026-01-18 18h35.16.930505 +0530,
,Objects\279a.jpg,37,0,38,,,,,,,f,None,,,1.7232743999920785,0.15199649997521192,,,,38,0,37,547.1709802999976,,,,,,,,,,,,,,,,,,,,,,,547.1548928999691,547.1709802999976,547.6545968999853,,,,,,,,,,,,547.6713336999528,,,,,,,,,,,,,,,547.6670382999582,547.6713336999528,547.6713336999528,547.6713336999528,550.654710599978,indoor,f,550.6547533999546,,,550.6547656999901,None,,,550.6708757999586,550.6708757999586,550.6708757999586,1.7232743999920785,0.15199649997521192,,,,,,,,,,00053,001,2026-01-18_18h34.57.020,MST_task,2024.2.0,59.998944017529325,2026-01-18 18h35.16.930505 +0530,
,Objects\093a.jpg,38,0,39,,,,,,,j,None,,,1.5188159000244923,0.13711979996878654,,,,39,0,38,550.6708757999586,,,,,,,,,,,,,,,,,,,,,,,550.6548287000041,550.6708757999586,551.1546352999867,,,,,,,,,,,,551.1712559000007,,,,,,,,,,,,,,,551.1650034000049,551.1712559000007,551.1712559000007,551.1712559000007,554.1548404999776,indoor,j,554.1548853999702,,,554.1548968999996,None,,,554.1710454999702,554.1710454999702,554.1710454999702,1.5188159000244923,0.13711979996878654,,,,,,,,,,00053,001,2026-01-18_18h34.57.020,MST_task,2024.2.0,59.998944017529325,2026-01-18 18h35.16.930505 +0530,
,Objects\252a.jpg,39,0,40,,,,,,,f,None,,,2.8752399000222795,None,,,,40,0,39,554.1710454999702,,,,,,,,,,,,,,,,,,,,,,,554.1549593999516,554.1710454999702,554.6545843000058,,,,,,,,,,,,554.6711121999542,,,,,,,,,,,,,,,554.6642512999824,554.6711121999542,554.6711121999542,554.6711121999542,557.6548642999842,indoor,f,557.6549091999768,,,557.6549213999533,None,,,557.6707681999542,557.6707681999542,557.6707681999542,2.8752399000222795,None,,,,,,,,,,00053,001,2026-01-18_18h34.57.020,MST_task,2024.2.0,59.998944017529325,2026-01-18 18h35.16.930505 +0530,
,Objects\121a.jpg,40,0,41,,,,,,,None,f,3.4240380999981426,None,,,,,,41,0,40,557.6707681999542,,,,,,,,,,,,,,,,,,,,,,,557.6549870999879,557.6707681999542,558.1545415999717,,,,,,,,,,,,558.1712145999772,,,,,,,,,,,,,,,558.164399500005,558.1712145999772,558.1712145999772,558.1712145999772,561.1552805999527,indoor,None,561.1553211999708,561.1710109999985,561.1710109999985,564.604688899999,f,3.4240380999981426,None,561.1710109999985,561.1710109999985,561.1710109999985,,,,,,,,,,,,00053,001,2026-01-18_18h34.57.020,MST_task,2024.2.0,59.998944017529325,2026-01-18 18h35.16.930505 +0530,
,Objects\008a.jpg,41,0,42,,,,,,,f,None,,,1.321210699970834,0.1440326999872923,,,,42,0,41,564.6209643000038,,,,,,,,,,,,,,,,,,,,,,,564.6047806999995,564.6209643000038,565.1045419999864,,,,,,,,,,,,565.1209166999906,,,,,,,,,,,,,,,565.1152036999702,565.1209166999906,565.1209166999906,565.1209166999906,568.1046819000039,indoor,f,568.1047263999935,,,568.1047378999647,None,,,568.12080959999,568.12080959999,568.12080959999,1.321210699970834,0.1440326999872923,,,,,,,,,,00053,001,2026-01-18_18h34.57.020,MST_task,2024.2.0,59.998944017529325,2026-01-18 18h35.16.930505 +0530,
,Objects\097a.jpg,42,0,43,,,,,,,j,None,,,2.909082199970726,None,,,,43,0,42,568.12080959999,,,,,,,,,,,,,,,,,,,,,,,568.1048004999757,568.12080959999,568.6044750000001,,,,,,,,,,,,568.6209892999614,,,,,,,,,,,,,,,568.6169958999963,568.6209892999614,568.6209892999614,568.6209892999614,571.6051022000029,shoe,j,571.6074246999924,,,571.6074456999777,None,,,571.6208237999817,571.6208237999817,571.6208237999817,2.909082199970726,None,,,,,,,,,,00053,001,2026-01-18_18h34.57.020,MST_task,2024.2.0,59.998944017529325,2026-01-18 18h35.16.930505 +0530,
,Objects\296a.jpg,43,0,44,,,,,,,j,None,,,1.7131999999983236,0.1520684999995865,,,,44,0,43,571.6208237999817,,,,,,,,,,,,,,,,,,,,,,,571.607519299956,571.6208237999817,572.1045568999834,,,,,,,,,,,,572.1212950999616,,,,,,,,,,,,,,,572.1149933999986,572.1212950999616,572.1212950999616,572.1212950999616,575.1047791999881,shoe,j,575.1048335999949,,,575.1048454999691,None,,,575.1207501000026,575.1207501000026,575.1207501000026,1.7131999999983236,0.1520684999995865,,,,,,,,,,00053,001,2026-01-18_18h34.57.020,MST_task,2024.2.0,59.998944017529325,2026-01-18 18h35.16.930505 +0530,
,Objects\344a.jpg,44,0,45,,,,,,,j,None,,,0.8773745000362396,0.18400119995931163,,,,45,0,44,575.1207501000026,,,,,,,,,,,,,,,,,,,,,,,575.1049086999847,575.1207501000026,575.6045080999611,,,,,,,,,,,,575.6210872999509,,,,,,,,,,,,,,,575.6148229999817,575.6210872999509,575.6210872999509,575.6210872999509,578.605194499949,shoe,j,578.6052371999831,,,578.6052482999512,None,,,578.6207847999758,578.6207847999758,578.6207847999758,0.8773745000362396,0.18400119995931163,,,,,,,,,,00053,001,2026-01-18_18h34.57.020,MST_task,2024.2.0,59.998944017529325,2026-01-18 18h35.16.930505 +0530,
,Objects\009a.jpg,45,0,46,,,,,,,j,None,,,2.4969746000133455,0.1370683999848552,,,,46,0,45,578.6207847999758,,,,,,,,,,,,,,,,,,,,,,,578.6053115999675,578.6207847999758,579.1046088999719,,,,,,,,,,,,579.121142799966,,,,,,,,,,,,,,,579.115325599967,579.121142799966,579.121142799966,579.121142799966,582.1048106999951,shoe,j,582.1048543999786,,,582.1048659999506,None,,,582.1207354999497,582.1207354999497,582.1207354999497,2.4969746000133455,0.1370683999848552,,,,,,,,,,00053,001,2026-01-18_18h34.57.020,MST_task,2024.2.0,59.998944017529325,2026-01-18 18h35.16.930505 +0530,
,Objects\282a.jpg,46,0,47,,,,,,,j,None,,,1.2609567999606952,0.14453500002855435,,,,47,0,46,582.1207354999497,,,,,,,,,,,,,,,,,,,,,,,582.1049290999654,582.1207354999497,582.6047186999931,,,,,,,,,,,,582.6210893999669,,,,,,,,,,,,,,,582.616252399981,582.6210893999669,582.6210893999669,582.6210893999669,585.6048249999876,shoe,j,585.6048686999711,,,585.6048797999974,None,,,585.620786399988,585.620786399988,585.620786399988,1.2609567999606952,0.14453500002855435,,,,,,,,,,00053,001,2026-01-18_18h34.57.020,MST_task,2024.2.0,59.998944017529325,2026-01-18 18h35.16.930505 +0530,
,Objects\007a.jpg,47,0,48,,,,,,,j,None,,,1.2971444000140764,0.15192019997630268,,,,48,0,47,585.620786399988,,,,,,,,,,,,,,,,,,,,,,,585.6049440999632,585.620786399988,586.1046219999553,,,,,,,,,,,,586.121240599954,,,,,,,,,,,,,,,586.1149188999552,586.121240599954,586.121240599954,586.121240599954,589.1049857999897,shoe,j,589.1050356999622,,,589.1050481999991,None,,,589.1208199999528,589.1208199999528,589.1208199999528,1.2971444000140764,0.15192019997630268,,,,,,,,,,00053,001,2026-01-18_18h34.57.020,MST_task,2024.2.0,59.998944017529325,2026-01-18 18h35.16.930505 +0530,
,Objects\111a.jpg,48,0,49,,,,,,,j,None,,,1.9490161000285298,0.1444105000118725,,,,49,0,48,589.1208199999528,,,,,,,,,,,,,,,,,,,,,,,589.1051156999893,589.1208199999528,589.6045422999887,,,,,,,,,,,,589.6210861,,,,,,,,,,,,,,,589.6144873999874,589.6210861,589.6210861,589.6210861,592.6047476999811,shoe,j,592.6047912999638,,,592.604802899994,None,,,592.6207648999989,592.6207648999989,592.6207648999989,1.9490161000285298,0.1444105000118725,,,,,,,,,,00053,001,2026-01-18_18h34.57.020,MST_task,2024.2.0,59.998944017529325,2026-01-18 18h35.16.930505 +0530,
,Objects\198a.jpg,49,0,50,,,,,,,f,None,,,1.370041600021068,0.16689699998823926,,,,50,0,49,592.6207648999989,,,,,,,,,,,,,,,,,,,,,,,592.604906899971,592.6207648999989,593.1046826999518,,,,,,,,,,,,593.1211359999725,,,,,,,,,,,,,,,593.1171373999678,593.1211359999725,593.1211359999725,593.1211359999725,596.1048185999971,indoor,f,596.1065732999705,,,596.1065911999904,None,,,596.1208016999881,596.1208016999881,596.1208016999881,1.370041600021068,0.16689699998823926,,,,,,,,,,00053,001,2026-01-18_18h34.57.020,MST_task,2024.2.0,59.998944017529325,2026-01-18 18h35.16.930505 +0530,
,Objects\293a.jpg,50,0,51,,,,,,,None,f,0.7263095999951474,None,,,,,,51,0,50,596.1208016999881,,,,,,,,,,,,,,,,,,,,,,,596.1066597999888,596.1208016999881,596.6046357000014,,,,,,,,,,,,596.6212649999652,,,,,,,,,,,,,,,596.6151051999768,596.6212649999652,596.6212649999652,596.6212649999652,599.6047981999582,indoor,None,599.6048371999641,599.6207437999547,599.6207437999547,600.3546325999778,f,0.7263095999951474,None,599.6207437999547,599.6207437999547,599.6207437999547,,,,,,,,,,,,00053,001,2026-01-18_18h34.57.020,MST_task,2024.2.0,59.998944017529325,2026-01-18 18h35.16.930505 +0530,
,Objects\376a.jpg,51,0,52,,,,,,,f,None,,,2.2914454999845475,0.13599989999784157,,,,52,0,51,600.3707769999746,,,,,,,,,,,,,,,,,,,,,,,600.3547194999992,600.3707769999746,600.8544754000031,,,,,,,,,,,,600.8712883999688,,,,,,,,,,,,,,,600.8650759999873,600.8712883999688,600.8712883999688,600.8712883999688,603.8548407999915,indoor,f,603.8548872999963,,,603.8548994999728,None,,,603.8707831999636,603.8707831999636,603.8707831999636,2.2914454999845475,0.13599989999784157,,,,,,,,,,00053,001,2026-01-18_18h34.57.020,MST_task,2024.2.0,59.998944017529325,2026-01-18 18h35.16.930505 +0530,
,Objects\362a.jpg,52,0,53,,,,,,,j,None,,,2.0945946000283584,0.1606323000160046,,,,53,0,52,603.8707831999636,,,,,,,,,,,,,,,,,,,,,,,603.8549637999968,603.8707831999636,604.3545021999744,,,,,,,,,,,,604.3712864999543,,,,,,,,,,,,,,,604.3644951999886,604.3712864999543,604.3712864999543,604.3712864999543,607.3548031999962,indoor,j,607.3548462999752,,,607.354857600003,None,,,607.370795099996,607.370795099996,607.370795099996,2.0945946000283584,0.1606323000160046,,,,,,,,,,00053,001,2026-01-18_18h34.57.020,MST_task,2024.2.0,59.998944017529325,2026-01-18 18h35.16.930505 +0530,
,Objects\164a.jpg,53,0,54,,,,,,,f,None,,,1.571607399964705,0.14341860002605245,,,,54,0,53,607.370795099996,,,,,,,,,,,,,,,,,,,,,,,607.3549224999733,607.370795099996,607.8544204999926,,,,,,,,,,,,607.8711750999792,,,,,,,,,,,,,,,607.8673948999494,607.8711750999792,607.8711750999792,607.8711750999792,610.8548515999573,indoor,f,610.8548970999545,,,610.8549088999862,None,,,610.8707590999547,610.8707590999547,610.8707590999547,1.571607399964705,0.14341860002605245,,,,,,,,,,00053,001,2026-01-18_18h34.57.020,MST_task,2024.2.0,59.998944017529325,2026-01-18 18h35.16.930505 +0530,
,Objects\138a.jpg,54,0,55,,,,,,,j,None,,,1.6395317999995314,0.15203830000245944,,,,55,0,54,610.8707590999547,,,,,,,,,,,,,,,,,,,,,,,610.8549746999633,610.8707590999547,611.3544697999605,,,,,,,,,,,,611.3711390999961,,,,,,,,,,,,,,,611.3660219999729,611.3711390999961,611.3711390999961,611.3711390999961,614.3547681999626,indoor,j,614.3548112999997,,,614.3548227999709,None,,,614.3708270999487,614.3708270999487,614.3708270999487,1.6395317999995314,0.15203830000245944,,,,,,,,,,00053,001,2026-01-18_18h34.57.020,MST_task,2024.2.0,59.998944017529325,2026-01-18 18h35.16.930505 +0530,
,Objects\122a.jpg,55,0,56,,,,,,,f,None,,,2.5396786999772303,0.1440895000123419,,,,56,0,55,614.3708270999487,,,,,,,,,,,,,,,,,,,,,,,614.3548854999826,614.3708270999487,614.8544139000005,,,,,,,,,,,,614.8710568999522,,,,,,,,,,,,,,,614.864013399987,614.8710568999522,614.8710568999522,614.8710568999522,617.8547206999501,indoor,f,617.8547687999671,,,617.8547809000011,None,,,617.8707668999559,617.8707668999559,617.8707668999559,2.5396786999772303,0.1440895000123419,,,,,,,,,,00053,001,2026-01-18_18h34.57.020,MST_task,2024.2.0,59.998944017529325,2026-01-18 18h35.16.930505 +0530,
,Objects\153a.jpg,56,0,57,,,,,,,f,None,,,2.4641904000309296,0.11996619997080415,,,,57,0,56,617.8707668999559,,,,,,,,,,,,,,,,,,,,,,,617.8548436999554,617.8707668999559,618.3545422999887,,,,,,,,,,,,618.3709915999789,,,,,,,,,,,,,,,618.3672095999937,618.3709915999789,618.3709915999789,618.3709915999789,621.354942899954,shoe,f,621.3571474999771,,,621.3571667999495,None,,,621.3707526999642,621.3707526999642,621.3707526999642,2.4641904000309296,0.11996619997080415,,,,,,,,,,00053,001,2026-01-18_18h34.57.020,MST_task,2024.2.0,59.998944017529325,2026-01-18 18h35.16.930505 +0530,
,Objects\062a.jpg,57,0,58,,,,,,,None,j,1.0920269000343978,None,,,,,,58,0,57,621.3707526999642,,,,,,,,,,,,,,,,,,,,,,,621.3572344999993,621.3707526999642,621.8544183999766,,,,,,,,,,,,621.8710893999669,,,,,,,,,,,,,,,621.8644457999617,621.8710893999669,621.8710893999669,621.8710893999669,624.8546945999842,shoe,None,624.854732399981,624.8708639999968,624.8708639999968,625.9713754999684,j,1.0920269000343978,None,624.8708639999968,624.8708639999968,624.8708639999968,,,,,,,,,,,,00053,001,2026-01-18_18h34.57.020,MST_task,2024.2.0,59.998944017529325,2026-01-18 18h35.16.930505 +0530,
,Objects\321a.jpg,58,0,59,,,,,,,f,None,,,2.3864956000470556,0.16000549995806068,,,,59,0,58,625.9876311999978,,,,,,,,,,,,,,,,,,,,,,,625.9714681999758,625.9876311999978,626.4711062999559,,,,,,,,,,,,626.4879291999969,,,,,,,,,,,,,,,626.481575199985,626.4879291999969,626.4879291999969,626.4879291999969,629.4715324999997,shoe,f,629.471576699987,,,629.4715891999658,None,,,629.4875174000044,629.4875174000044,629.4875174000044,2.3864956000470556,0.16000549995806068,,,,,,,,,,00053,001,2026-01-18_18h34.57.020,MST_task,2024.2.0,59.998944017529325,2026-01-18 18h35.16.930505 +0530,
,Objects\263a.jpg,59,0,60,,,,,,,j,None,,,1.4068862000131048,0.14352089999010786,,,,60,0,59,629.4875174000044,,,,,,,,,,,,,,,,,,,,,,,629.4716524999822,629.4875174000044,629.971166000003,,,,,,,,,,,,629.98798049998,,,,,,,,,,,,,,,629.9815492999624,629.98798049998,629.98798049998,629.98798049998,632.9715316999936,shoe,j,632.9715789000038,,,632.971591199981,None,,,632.9875806999626,632.9875806999626,632.9875806999626,1.4068862000131048,0.14352089999010786,,,,,,,,,,00053,001,2026-01-18_18h34.57.020,MST_task,2024.2.0,59.998944017529325,2026-01-18 18h35.16.930505 +0530,
,Objects\331a.jpg,60,0,61,,,,,,,None,j,1.9633974999887869,None,,,,,,61,0,60,632.9875806999626,,,,,,,,,,,,,,,,,,,,,,,632.9716971999733,632.9875806999626,633.4711085999734,,,,,,,,,,,,633.4879708999651,,,,,,,,,,,,,,,633.4812795000034,633.4879708999651,633.4879708999651,633.4879708999651,636.4714229999809,shoe,None,636.4714606999769,636.4875944999512,636.4875944999512,638.4546294999891,j,1.9633974999887869,None,636.4875944999512,636.4875944999512,636.4875944999512,,,,,,,,,,,,00053,001,2026-01-18_18h34.57.020,MST_task,2024.2.0,59.998944017529325,2026-01-18 18h35.16.930505 +0530,
,Objects\031a.jpg,61,0,62,,,,,,,j,None,,,1.184700799989514,0.16588290000800043,,,,62,0,61,638.4707590999897,,,,,,,,,,,,,,,,,,,,,,,638.4547138999915,638.4707590999897,638.9545491999597,,,,,,,,,,,,638.9713133999612,,,,,,,,,,,,,,,638.9655120999669,638.9713133999612,638.9713133999612,638.9713133999612,641.955472200003,shoe,j,641.9555153999827,,,641.9555277999607,None,,,,,,1.184700799989514,0.16588290000800043,,,,,,,,,,00053,001,2026-01-18_18h34.57.020,MST_task,2024.2.0,59.998944017529325,2026-01-18 18h35.16.930505 +0530,
,Objects\242a.jpg,62,0,63,,,,,,,None,f,3.6354150000261143,None,,,,,,63,0,62,641.9708300000057,,,,,,,,,,,,,,,,,,,,,,,641.955622199981,641.9708300000057,642.4563649999909,,,,,,,,,,,,642.4711052000057,,,,,,,,,,,,,,,642.4671268999809,642.4711052000057,642.4711052000057,642.4711052000057,645.4547923999489,shoe,None,645.4548295999994,645.4707671999931,645.4707671999931,649.1215409999713,f,3.6354150000261143,None,645.4707671999931,645.4707671999931,645.4707671999931,,,,,,,,,,,,00053,001,2026-01-18_18h34.57.020,MST_task,2024.2.0,59.998944017529325,2026-01-18 18h35.16.930505 +0530,
,Objects\084a.jpg,63,0,64,,,,,,,j,None,,,2.357191100018099,0.15959639998618513,,,,64,0,63,649.1376212000032,,,,,,,,,,,,,,,,,,,,,,,649.1216296000057,649.1376212000032,649.6210506999632,,,,,,,,,,,,649.6378206999507,,,,,,,,,,,,,,,649.6330988999689,649.6378206999507,649.6378206999507,649.6378206999507,652.6215762999491,indoor,j,652.6233048999566,,,652.6233225999749,None,,,652.6375872999779,652.6375872999779,652.6375872999779,2.357191100018099,0.15959639998618513,,,,,,,,,,00053,001,2026-01-18_18h34.57.020,MST_task,2024.2.0,59.998944017529325,2026-01-18 18h35.16.930505 +0530,
,Objects\141a.jpg,64,0,65,,,,,,,None,j,0.3376099999877624,None,,,,,,65,0,64,652.6375872999779,,,,,,,,,,,,,,,,,,,,,,,652.623392199981,652.6375872999779,653.1210372999776,,,,,,,,,,,,653.1378322999808,,,,,,,,,,,,,,,653.1311551999534,653.1378322999808,653.1378322999808,653.1378322999808,656.1214016999584,indoor,None,656.1214493999723,656.1375919999555,656.1375919999555,656.488136800006,j,0.3376099999877624,None,656.1375919999555,656.1375919999555,656.1375919999555,,,,,,,,,,,,00053,001,2026-01-18_18h34.57.020,MST_task,2024.2.0,59.998944017529325,2026-01-18 18h35.16.930505 +0530,
,Objects\249a.jpg,65,0,66,,,,,,,j,None,,,2.301641899975948,0.12074630003189668,,,,66,0,65,656.5042307999684,,,,,,,,,,,,,,,,,,,,,,,656.4882275999989,656.5042307999684,656.9879209999926,,,,,,,,,,,,657.0046810999629,,,,,,,,,,,,,,,656.997227099957,657.0046810999629,657.0046810999629,657.0046810999629,659.9884097999893,indoor,j,659.9884521999629,,,659.9884639999946,None,,,660.0044651999488,660.0044651999488,660.0044651999488,2.301641899975948,0.12074630003189668,,,,,,,,,,00053,001,2026-01-18_18h34.57.020,MST_task,2024.2.0,59.998944017529325,2026-01-18 18h35.16.930505 +0530,
,Objects\292a.jpg,66,0,67,,,,,,,j,None,,,2.217192400014028,0.14486549998400733,,,,67,0,66,660.0044651999488,,,,,,,,,,,,,,,,,,,,,,,659.9885270999512,660.0044651999488,660.4879642999731,,,,,,,,,,,,660.5047123999684,,,,,,,,,,,,,,,660.4978472999646,660.5047123999684,660.5047123999684,660.5047123999684,663.4881664999994,indoor,j,663.4882089999737,,,663.4882207000046,None,,,663.5043729000026,663.5043729000026,663.5043729000026,2.217192400014028,0.14486549998400733,,,,,,,,,,00053,001,2026-01-18_18h34.57.020,MST_task,2024.2.0,59.998944017529325,2026-01-18 18h35.16.930505 +0530,
,Objects\256a.jpg,67,0,68,,,,,,,j,None,,,2.7974517000257038,0.15230349998455495,,,,68,0,67,663.5043729000026,,,,,,,,,,,,,,,,,,,,,,,663.4882844999665,663.5043729000026,663.9880109999795,,,,,,,,,,,,664.0047797999578,,,,,,,,,,,,,,,663.9981508999481,664.0047797999578,664.0047797999578,664.0047797999578,666.9883218999603,indoor,j,666.9883702999796,,,666.9883821999538,None,,,667.0043267000001,667.0043267000001,667.0043267000001,2.7974517000257038,0.15230349998455495,,,,,,,,,,00053,001,2026-01-18_18h34.57.020,MST_task,2024.2.0,59.998944017529325,2026-01-18 18h35.16.930505 +0530,
,Objects\253a.jpg,68,0,69,,,,,,,f,None,,,0.889449100010097,0.16098690003855154,,,,69,0,68,667.0043267000001,,,,,,,,,,,,,,,,,,,,,,,666.9884474999853,667.0043267000001,667.4880806999863,,,,,,,,,,,,667.5047053999733,,,,,,,,,,,,,,,667.4979896000004,667.5047053999733,667.5047053999733,667.5047053999733,670.4881743000005,indoor,f,670.488224199973,,,670.4882360000047,None,,,670.5043003999745,670.5043003999745,670.5043003999745,0.889449100010097,0.16098690003855154,,,,,,,,,,00053,001,2026-01-18_18h34.57.020,MST_task,2024.2.0,59.998944017529325,2026-01-18 18h35.16.930505 +0530,
,Objects\035a.jpg,69,0,70,,,,,,,f,None,,,2.4709448000066914,0.15099980001104996,,,,70,0,69,670.5043003999745,,,,,,,,,,,,,,,,,,,,,,,670.4883073999663,670.5043003999745,670.9879766999511,,,,,,,,,,,,671.0045360999648,,,,,,,,,,,,,,,670.9993357000058,671.0045360999648,671.0045360999648,671.0045360999648,673.9883137999568,indoor,f,673.988356899994,,,673.9883686999674,None,,,674.0043524999637,674.0043524999637,674.0043524999637,2.4709448000066914,0.15099980001104996,,,,,,,,,,00053,001,2026-01-18_18h34.57.020,MST_task,2024.2.0,59.998944017529325,2026-01-18 18h35.16.930505 +0530,
,Objects\114a.jpg,70,0,71,,,,,,,None,f,1.8097620999906212,None,,,,,,71,0,70,674.0043524999637,,,,,,,,,,,,,,,,,,,,,,,673.988431899983,674.0043524999637,674.4880450999481,,,,,,,,,,,,674.5047072999878,,,,,,,,,,,,,,,674.5004283000017,674.5047072999878,674.5047072999878,674.5047072999878,677.4882973999484,shoe,None,677.4904169999645,677.5043935999856,677.5043935999856,679.321433199977,f,1.8097620999906212,None,677.5043935999856,677.5043935999856,677.5043935999856,,,,,,,,,,,,00053,001,2026-01-18_18h34.57.020,MST_task,2024.2.0,59.998944017529325,2026-01-18 18h35.16.930505 +0530,
,Objects\086a.jpg,71,0,72,,,,,,,f,None,,,2.8209068999858573,0.13500040001235902,,,,72,0,71,679.337714299967,,,,,,,,,,,,,,,,,,,,,,,679.3215182999847,679.337714299967,679.8211774999509,,,,,,,,,,,,679.837982899975,,,,,,,,,,,,,,,679.8314109999919,679.837982899975,679.837982899975,679.837982899975,682.821416199964,shoe,f,682.8214595000027,,,682.8214718999807,None,,,682.8377039000043,682.8377039000043,682.8377039000043,2.8209068999858573,0.13500040001235902,,,,,,,,,,00053,001,2026-01-18_18h34.57.020,MST_task,2024.2.0,59.998944017529325,2026-01-18 18h35.16.930505 +0530,
,Objects\169a.jpg,72,0,73,,,,,,,None,f,0.040987899992614985,None,,,,,,73,0,72,682.8377039000043,,,,,,,,,,,,,,,,,,,,,,,682.8215669000056,682.8377039000043,683.3211642999668,,,,,,,,,,,,683.3379521999741,,,,,,,,,,,,,,,683.3312863999745,683.3379521999741,683.3379521999741,683.3379521999741,686.3216343999957,shoe,None,686.3216741999495,686.3376725999988,686.3376725999988,686.3881532999803,f,0.040987899992614985,None,686.3376725999988,686.3376725999988,686.3376725999988,,,,,,,,,,,,00053,001,2026-01-18_18h34.57.020,MST_task,2024.2.0,59.998944017529325,2026-01-18 18h35.16.930505 +0530,
,Objects\239a.jpg,73,0,74,,,,,,,None,f,0.5789873999892734,None,,,,,,74,0,73,686.4043343999656,,,,,,,,,,,,,,,,,,,,,,,686.3882408999489,686.4043343999656,686.8880721000023,,,,,,,,,,,,686.9047530999524,,,,,,,,,,,,,,,686.8986859999713,686.9047530999524,686.9047530999524,686.9047530999524,689.8882472999976,shoe,None,689.888286500005,689.9043531999923,689.9043531999923,690.4882051000022,f,0.5789873999892734,None,689.9043531999923,689.9043531999923,689.9043531999923,,,,,,,,,,,,00053,001,2026-01-18_18h34.57.020,MST_task,2024.2.0,59.998944017529325,2026-01-18 18h35.16.930505 +0530,
,Objects\246a.jpg,74,0,75,,,,,,,f,None,,,2.5018941999878734,0.12802290002582595,,,,75,0,74,690.5043476999854,,,,,,,,,,,,,,,,,,,,,,,690.4882974999491,690.5043476999854,690.988221299951,,,,,,,,,,,,691.0046757999808,,,,,,,,,,,,,,,690.99845189997,691.0046757999808,691.0046757999808,691.0046757999808,693.9883570999955,shoe,f,693.98839829996,,,693.9884102999931,None,,,694.0044247999904,694.0044247999904,694.0044247999904,2.5018941999878734,0.12802290002582595,,,,,,,,,,00053,001,2026-01-18_18h34.57.020,MST_task,2024.2.0,59.998944017529325,2026-01-18 18h35.16.930505 +0530,
,Objects\223a.jpg,75,0,76,,,,,,,j,None,,,1.2415789000224322,0.16060309996828437,,,,76,0,75,694.0044247999904,,,,,,,,,,,,,,,,,,,,,,,693.9884721999988,694.0044247999904,694.4880408999743,,,,,,,,,,,,694.5046436999692,,,,,,,,,,,,,,,694.4981990999659,694.5046436999692,694.5046436999692,694.5046436999692,697.4882406999823,shoe,j,697.488284299965,,,697.4882957999944,None,,,697.5043794999947,697.5043794999947,697.5043794999947,1.2415789000224322,0.16060309996828437,,,,,,,,,,00053,001,2026-01-18_18h34.57.020,MST_task,2024.2.0,59.998944017529325,2026-01-18 18h35.16.930505 +0530,
,Objects\131a.jpg,76,0,77,,,,,,,f,None,,,2.50152099999832,0.15997550002066419,,,,77,0,76,697.5043794999947,,,,,,,,,,,,,,,,,,,,,,,697.4883905999595,697.5043794999947,697.9880014999653,,,,,,,,,,,,698.0044957999489,,,,,,,,,,,,,,,697.9983080999809,698.0044957999489,698.0044957999489,698.0044957999489,700.9881848999648,shoe,f,700.9882285999483,,,700.9882393999724,None,,,701.0042876999942,701.0042876999942,701.0042876999942,2.50152099999832,0.15997550002066419,,,,,,,,,,00053,001,2026-01-18_18h34.57.020,MST_task,2024.2.0,59.998944017529325,2026-01-18 18h35.16.930505 +0530,
,Objects\359a.jpg,77,0,78,,,,,,,f,None,,,2.0255690999911167,0.18376449996139854,,,,78,0,77,701.0042876999942,,,,,,,,,,,,,,,,,,,,,,,700.9883053999511,701.0042876999942,701.4880129999947,,,,,,,,,,,,701.5048042999697,,,,,,,,,,,,,,,701.5004546999699,701.5048042999697,701.5048042999697,701.5048042999697,704.4884485999937,indoor,f,704.4900771999964,,,704.490094299952,None,,,704.5043706999859,704.5043706999859,704.5043706999859,2.0255690999911167,0.18376449996139854,,,,,,,,,,00053,001,2026-01-18_18h34.57.020,MST_task,2024.2.0,59.998944017529325,2026-01-18 18h35.16.930505 +0530,
,Objects\227a.jpg,78,0,79,,,,,,,f,None,,,2.765127599996049,0.1449016000260599,,,,79,0,78,704.5043706999859,,,,,,,,,,,,,,,,,,,,,,,704.4901643999619,704.5043706999859,704.9878910999978,,,,,,,,,,,,705.004770999949,,,,,,,,,,,,,,,705.0016519999481,705.004770999949,705.004770999949,705.004770999949,707.9883730000001,indoor,f,707.9884198999498,,,707.9884312999784,None,,,708.0042927999748,708.0042927999748,708.0042927999748,2.765127599996049,0.1449016000260599,,,,,,,,,,00053,001,2026-01-18_18h34.57.020,MST_task,2024.2.0,59.998944017529325,2026-01-18 18h35.16.930505 +0530,
,Objects\220a.jpg,79,0,80,,,,,,,j,None,,,1.962274299992714,0.15189810004085302,,,,80,0,79,708.0042927999748,,,,,,,,,,,,,,,,,,,,,,,707.9884959000046,708.0042927999748,708.4880008999608,,,,,,,,,,,,708.5046479000011,,,,,,,,,,,,,,,708.4979388999636,708.5046479000011,708.5046479000011,708.5046479000011,711.4882807999966,indoor,j,711.488327900006,,,711.4883389999741,None,,,711.5043999999762,711.5043999999762,711.5043999999762,1.962274299992714,0.15189810004085302,,,,,,,,,,00053,001,2026-01-18_18h34.57.020,MST_task,2024.2.0,59.998944017529325,2026-01-18 18h35.16.930505 +0530,
,Objects\057a.jpg,80,0,81,,,,,,,f,None,,,1.5016368000069633,0.183570499997586,,,,81,0,80,711.5043999999762,,,,,,,,,,,,,,,,,,,,,,,711.4884029999957,711.5043999999762,711.988015699957,,,,,,,,,,,,712.0047980999807,,,,,,,,,,,,,,,711.9985070999828,712.0047980999807,712.0047980999807,712.0047980999807,714.9883657000028,indoor,f,714.9884078999748,,,714.9884192000027,None,,,715.0043646999984,715.0043646999984,715.0043646999984,1.5016368000069633,0.183570499997586,,,,,,,,,,00053,001,2026-01-18_18h34.57.020,MST_task,2024.2.0,59.998944017529325,2026-01-18 18h35.16.930505 +0530,
,Objects\192a.jpg,81,0,82,,,,,,,j,None,,,2.5785422999761067,0.1672390000312589,,,,82,0,81,715.0043646999984,,,,,,,,,,,,,,,,,,,,,,,714.9884816999547,715.0043646999984,715.4880180999753,,,,,,,,,,,,715.5044515999616,,,,,,,,,,,,,,,715.498408399988,715.5044515999616,715.5044515999616,715.5044515999616,718.4880983000039,indoor,j,718.4881402999745,,,718.4881519000046,None,,,718.5042887000018,718.5042887000018,718.5042887000018,2.5785422999761067,0.1672390000312589,,,,,,,,,,00053,001,2026-01-18_18h34.57.020,MST_task,2024.2.0,59.998944017529325,2026-01-18 18h35.16.930505 +0530,
,Objects\002a.jpg,82,0,83,,,,,,,f,None,,,2.333541099971626,0.1519984999904409,,,,83,0,82,718.5042887000018,,,,,,,,,,,,,,,,,,,,,,,718.4882146999589,718.5042887000018,718.9878927999525,,,,,,,,,,,,719.0045026000007,,,,,,,,,,,,,,,718.9979955999879,719.0045026000007,719.0045026000007,719.0045026000007,721.9882494999911,indoor,f,721.9882923999685,,,721.9883039999986,None,,,722.0042732000002,722.0042732000002,722.0042732000002,2.333541099971626,0.1519984999904409,,,,,,,,,,00053,001,2026-01-18_18h34.57.020,MST_task,2024.2.0,59.998944017529325,2026-01-18 18h35.16.930505 +0530,
,Objects\285a.jpg,83,0,84,,,,,,,f,None,,,1.9226093999459408,0.16798240004573017,,,,84,0,83,722.0042732000002,,,,,,,,,,,,,,,,,,,,,,,721.9883670999552,722.0042732000002,722.4879465999547,,,,,,,,,,,,722.5044552999898,,,,,,,,,,,,,,,722.4981042,722.5044552999898,722.5044552999898,722.5044552999898,725.488092399959,indoor,f,725.4881351999938,,,725.4881467999658,None,,,725.5042946999893,725.5042946999893,725.5042946999893,1.9226093999459408,0.16798240004573017,,,,,,,,,,00053,001,2026-01-18_18h34.57.020,MST_task,2024.2.0,59.998944017529325,2026-01-18 18h35.16.930505 +0530,
,Objects\324a.jpg,84,0,85,,,,,,,f,None,,,2.2699875999824144,0.14398950000759214,,,,85,0,84,725.5042946999893,,,,,,,,,,,,,,,,,,,,,,,725.4882099999813,725.5042946999893,725.9881878999877,,,,,,,,,,,,726.0048135999823,,,,,,,,,,,,,,,726.002265899966,726.0048135999823,726.0048135999823,726.0048135999823,728.9883738999488,shoe,f,728.9904971999931,,,728.990514999954,None,,,729.0042853999767,729.0042853999767,729.0042853999767,2.2699875999824144,0.14398950000759214,,,,,,,,,,00053,001,2026-01-18_18h34.57.020,MST_task,2024.2.0,59.998944017529325,2026-01-18 18h35.16.930505 +0530,
,Objects\276a.jpg,85,0,86,,,,,,,f,None,,,2.9062752000172623,None,,,,86,0,85,729.0042853999767,,,,,,,,,,,,,,,,,,,,,,,728.9906152999611,729.0042853999767,729.4878732999787,,,,,,,,,,,,729.5046172000002,,,,,,,,,,,,,,,729.5008136999677,729.5046172000002,729.5046172000002,729.5046172000002,732.4883104999899,shoe,f,732.4883569999947,,,732.4883693999727,None,,,732.5042865999858,732.5042865999858,732.5042865999858,2.9062752000172623,None,,,,,,,,,,00053,001,2026-01-18_18h34.57.020,MST_task,2024.2.0,59.998944017529325,2026-01-18 18h35.16.930505 +0530,
,Objects\216a.jpg,86,0,87,,,,,,,None,f,0.3019041999941692,None,,,,,,87,0,86,732.5042865999858,,,,,,,,,,,,,,,,,,,,,,,732.4884356999537,732.5042865999858,732.9878108999692,,,,,,,,,,,,733.004583699978,,,,,,,,,,,,,,,732.9993435999495,733.004583699978,733.004583699978,733.004583699978,735.9882643999881,shoe,None,735.9883036999963,736.0042846999713,736.0042846999713,736.3214930999675,f,0.3019041999941692,None,736.0042846999713,736.0042846999713,736.0042846999713,,,,,,,,,,,,00053,001,2026-01-18_18h34.57.020,MST_task,2024.2.0,59.998944017529325,2026-01-18 18h35.16.930505 +0530,
,Objects\361a.jpg,87,0,88,,,,,,,j,None,,,1.5889735000091605,0.19199880002997816,,,,88,0,87,736.3376230999711,,,,,,,,,,,,,,,,,,,,,,,736.3215921999654,736.3376230999711,736.8210844999994,,,,,,,,,,,,736.8378125999589,,,,,,,,,,,,,,,736.8316377999727,736.8378125999589,736.8378125999589,736.8378125999589,739.8216620999738,shoe,j,739.8217115000007,,,739.8217251999886,None,,,739.8376166999806,739.8376166999806,739.8376166999806,1.5889735000091605,0.19199880002997816,,,,,,,,,,00053,001,2026-01-18_18h34.57.020,MST_task,2024.2.0,59.998944017529325,2026-01-18 18h35.16.930505 +0530,
,Objects\161a.jpg,88,0,89,,,,,,,f,None,,,1.2419393000309356,0.17486739996820688,,,,89,0,88,739.8376166999806,,,,,,,,,,,,,,,,,,,,,,,739.8218334999983,739.8376166999806,740.3211112999707,,,,,,,,,,,,740.3378740999615,,,,,,,,,,,,,,,740.3311017999658,740.3378740999615,740.3378740999615,740.3378740999615,743.3214380999561,shoe,f,743.3214832999511,,,743.3214959999896,None,,,743.3375985999592,743.3375985999592,743.3375985999592,1.2419393000309356,0.17486739996820688,,,,,,,,,,00053,001,2026-01-18_18h34.57.020,MST_task,2024.2.0,59.998944017529325,2026-01-18 18h35.16.930505 +0530,
,Objects\040a.jpg,89,0,90,,,,,,,f,None,,,2.9175507000181824,None,,,,90,0,89,743.3375985999592,,,,,,,,,,,,,,,,,,,,,,,743.3215619999683,743.3375985999592,743.8210179999587,,,,,,,,,,,,743.837845299975,,,,,,,,,,,,,,,743.8311270999839,743.837845299975,743.837845299975,743.837845299975,746.8215461999644,shoe,f,746.8215892000007,,,746.8216005999711,None,,,746.837595799996,746.837595799996,746.837595799996,2.9175507000181824,None,,,,,,,,,,00053,001,2026-01-18_18h34.57.020,MST_task,2024.2.0,59.998944017529325,2026-01-18 18h35.16.930505 +0530,
,Objects\075a.jpg,90,0,91,,,,,,,f,None,,,1.4242775000166148,0.16055470000719652,,,,91,0,90,746.837595799996,,,,,,,,,,,,,,,,,,,,,,,746.8216628999799,746.837595799996,747.3218381999759,,,,,,,,,,,,747.3378060999676,,,,,,,,,,,,,,,747.3311152999522,747.3378060999676,747.3378060999676,747.3378060999676,750.3213928999612,shoe,f,750.3214355999953,,,750.3214467999642,None,,,750.3376308999723,750.3376308999723,750.3376308999723,1.4242775000166148,0.16055470000719652,,,,,,,,,,00053,001,2026-01-18_18h34.57.020,MST_task,2024.2.0,59.998944017529325,2026-01-18 18h35.16.930505 +0530,
,Objects\346a.jpg,91,0,92,,,,,,,f,None,,,2.4205063999979757,0.17599970003357157,,,,92,0,91,750.3376308999723,,,,,,,,,,,,,,,,,,,,,,,750.3215506999986,750.3376308999723,750.8211110999691,,,,,,,,,,,,750.8380662999698,,,,,,,,,,,,,,,750.8340270000044,750.8380662999698,750.8380662999698,750.8380662999698,753.8214890999952,indoor,f,753.8230912999716,,,753.823109399993,None,,,753.8376144999638,753.8376144999638,753.8376144999638,2.4205063999979757,0.17599970003357157,,,,,,,,,,00053,001,2026-01-18_18h34.57.020,MST_task,2024.2.0,59.998944017529325,2026-01-18 18h35.16.930505 +0530,
,Objects\190a.jpg,92,0,93,,,,,,,f,None,,,1.5767366000218317,0.14348129997961223,,,,93,0,92,753.8376144999638,,,,,,,,,,,,,,,,,,,,,,,753.8231762999785,753.8376144999638,754.3213083999581,,,,,,,,,,,,754.3380021000048,,,,,,,,,,,,,,,754.333208600001,754.3380021000048,754.3380021000048,754.3380021000048,757.3215064999531,indoor,f,757.3215477999765,,,757.32155959995,None,,,757.3375446999562,757.3375446999562,757.3375446999562,1.5767366000218317,0.14348129997961223,,,,,,,,,,00053,001,2026-01-18_18h34.57.020,MST_task,2024.2.0,59.998944017529325,2026-01-18 18h35.16.930505 +0530,
,Objects\071a.jpg,93,0,94,,,,,,,j,None,,,2.836898200039286,None,,,,94,0,93,757.3375446999562,,,,,,,,,,,,,,,,,,,,,,,757.3216232999694,757.3375446999562,757.8211224999977,,,,,,,,,,,,757.8379099000013,,,,,,,,,,,,,,,757.8312245999696,757.8379099000013,757.8379099000013,757.8379099000013,760.821645399963,indoor,j,760.8217044000048,,,760.8217160999775,None,,,760.8376007999759,760.8376007999759,760.8376007999759,2.836898200039286,None,,,,,,,,,,00053,001,2026-01-18_18h34.57.020,MST_task,2024.2.0,59.998944017529325,2026-01-18 18h35.16.930505 +0530,
,Objects\301a.jpg,94,0,95,,,,,,,None,j,1.216840900015086,None,,,,,,95,0,94,760.8376007999759,,,,,,,,,,,,,,,,,,,,,,,760.8217809000053,760.8376007999759,761.3211274999776,,,,,,,,,,,,761.3378467999864,,,,,,,,,,,,,,,761.3307922999957,761.3378467999864,761.3378467999864,761.3378467999864,764.3213454999495,indoor,None,764.3213839999516,764.3375987999607,764.3375987999607,765.5713289999985,j,1.216840900015086,None,764.3375987999607,764.3375987999607,764.3375987999607,,,,,,,,,,,,00053,001,2026-01-18_18h34.57.020,MST_task,2024.2.0,59.998944017529325,2026-01-18 18h35.16.930505 +0530,
,Objects\158a.jpg,95,0,96,,,,,,,f,None,,,1.8907127000275068,0.16900039999745786,,,,96,0,95,765.5875523999566,,,,,,,,,,,,,,,,,,,,,,,765.5714220999507,765.5875523999566,766.0710715999594,,,,,,,,,,,,766.0878610999789,,,,,,,,,,,,,,,766.0817297999747,766.0878610999789,766.0878610999789,766.0878610999789,769.0713582999888,indoor,f,769.0714015999692,,,769.0714140000055,None,,,769.0875663000043,769.0875663000043,769.0875663000043,1.8907127000275068,0.16900039999745786,,,,,,,,,,00053,001,2026-01-18_18h34.57.020,MST_task,2024.2.0,59.998944017529325,2026-01-18 18h35.16.930505 +0530,
,Objects\260a.jpg,96,0,97,,,,,,,None,f,0.23142140003619716,None,,,,,,97,0,96,769.0875663000043,,,,,,,,,,,,,,,,,,,,,,,769.0714773999644,769.0875663000043,769.5711732999771,,,,,,,,,,,,769.5880909999833,,,,,,,,,,,,,,,769.5816784999915,769.5880909999833,769.5880909999833,769.5880909999833,772.5713360999944,indoor,None,772.5713734999881,772.5876260999939,772.5876260999939,772.8212642999715,f,0.23142140003619716,None,772.5876260999939,772.5876260999939,772.5876260999939,,,,,,,,,,,,00053,001,2026-01-18_18h34.57.020,MST_task,2024.2.0,59.998944017529325,2026-01-18 18h35.16.930505 +0530,
,Objects\311a.jpg,97,0,98,,,,,,,j,None,,,1.1206354000023566,0.16037290001986548,,,,98,0,97,772.8376215999597,,,,,,,,,,,,,,,,,,,,,,,772.8213467999594,772.8376215999597,773.3210917999968,,,,,,,,,,,,773.3379648999544,,,,,,,,,,,,,,,773.332254399953,773.3379648999544,773.3379648999544,773.3379648999544,776.3214636999764,indoor,j,776.3215080999653,,,776.3215205000015,None,,,776.3375703999773,776.3375703999773,776.3375703999773,1.1206354000023566,0.16037290001986548,,,,,,,,,,00053,001,2026-01-18_18h34.57.020,MST_task,2024.2.0,59.998944017529325,2026-01-18 18h35.16.930505 +0530,
,Objects\288a.jpg,98,0,99,,,,,,,f,None,,,2.4445518999709748,0.15998900000704452,,,,99,0,98,776.3375703999773,,,,,,,,,,,,,,,,,,,,,,,776.3215839999611,776.3375703999773,776.8214360999991,,,,,,,,,,,,776.838113899983,,,,,,,,,,,,,,,776.833548799972,776.838113899983,776.838113899983,776.838113899983,779.8216718999902,shoe,f,779.8238133999985,,,779.8238309999579,None,,,779.8377475999878,779.8377475999878,779.8377475999878,2.4445518999709748,0.15998900000704452,,,,,,,,,,00053,001,2026-01-18_18h34.57.020,MST_task,2024.2.0,59.998944017529325,2026-01-18 18h35.16.930505 +0530,
,Objects\188a.jpg,99,0,100,,,,,,,f,None,,,1.3447518000029959,0.13599839998641983,,,,100,0,99,779.8377475999878,,,,,,,,,,,,,,,,,,,,,,,779.8238985999487,779.8377475999878,780.321301799966,,,,,,,,,,,,780.3380872999551,,,,,,,,,,,,,,,780.3326259999885,780.3380872999551,780.3380872999551,780.3380872999551,783.321751099953,shoe,f,783.3217982999631,,,783.3218100999948,None,,,783.3377965999534,783.3377965999534,783.3377965999534,1.3447518000029959,0.13599839998641983,,,,,,,,,,00053,001,2026-01-18_18h34.57.020,MST_task,2024.2.0,59.998944017529325,2026-01-18 18h35.16.930505 +0530,
,Objects\065a.jpg,100,0,101,,,,,,,j,None,,,2.2600953000364825,0.16799869999522343,,,,101,0,100,783.3377965999534,,,,,,,,,,,,,,,,,,,,,,,783.3219176999992,783.3377965999534,783.8212815999868,,,,,,,,,,,,783.8379084999906,,,,,,,,,,,,,,,783.8314725999953,783.8379084999906,783.8379084999906,783.8379084999906,786.821982799971,shoe,j,786.82202589995,,,786.8220382999862,None,,,786.8377653999487,786.8377653999487,786.8377653999487,2.2600953000364825,0.16799869999522343,,,,,,,,,,00053,001,2026-01-18_18h34.57.020,MST_task,2024.2.0,59.998944017529325,2026-01-18 18h35.16.930505 +0530,
,Objects\211a.jpg,101,0,102,,,,,,,None,f,0.19281859998591244,None,,,,,,102,0,101,786.8377653999487,,,,,,,,,,,,,,,,,,,,,,,786.8221312999958,786.8377653999487,787.3213804999832,,,,,,,,,,,,787.3381451999885,,,,,,,,,,,,,,,787.332374199992,787.3381451999885,787.3381451999885,787.3381451999885,790.3214921999606,shoe,None,790.3215290999506,790.3377574000042,790.3377574000042,790.5381659999839,f,0.19281859998591244,None,790.3377574000042,790.3377574000042,790.3377574000042,,,,,,,,,,,,00053,001,2026-01-18_18h34.57.020,MST_task,2024.2.0,59.998944017529325,2026-01-18 18h35.16.930505 +0530,
,Objects\128a.jpg,102,0,103,,,,,,,j,None,,,2.236293399997521,0.15995030000340194,,,,103,0,102,790.5543717999826,,,,,,,,,,,,,,,,,,,,,,,790.5382533999509,790.5543717999826,791.0380473999539,,,,,,,,,,,,791.0548932999955,,,,,,,,,,,,,,,791.0504416999756,791.0548932999955,791.0548932999955,791.0548932999955,794.0382455999497,shoe,j,794.0382910000044,,,794.0383033999824,None,,,794.0544144999585,794.0544144999585,794.0544144999585,2.236293399997521,0.15995030000340194,,,,,,,,,,00053,001,2026-01-18_18h34.57.020,MST_task,2024.2.0,59.998944017529325,2026-01-18 18h35.16.930505 +0530,
,Objects\104a.jpg,103,0,104,,,,,,,f,None,,,0.9765861000050791,0.17503510002279654,,,,104,0,103,794.0544144999585,,,,,,,,,,,,,,,,,,,,,,,794.038368199952,794.0544144999585,794.5379816999775,,,,,,,,,,,,794.5546347000054,,,,,,,,,,,,,,,794.5481543999631,794.5546347000054,794.5546347000054,794.5546347000054,797.5386058999575,shoe,f,797.5386598999612,,,797.5386734999483,None,,,797.5544895000057,797.5544895000057,797.5544895000057,0.9765861000050791,0.17503510002279654,,,,,,,,,,00053,001,2026-01-18_18h34.57.020,MST_task,2024.2.0,59.998944017529325,2026-01-18 18h35.16.930505 +0530,
,Objects\340a.jpg,104,0,105,,,,,,,None,f,1.139760699996259,None,,,,,,105,0,104,797.5544895000057,,,,,,,,,,,,,,,,,,,,,,,797.5387864999939,797.5544895000057,798.0381763000041,,,,,,,,,,,,798.0547503999551,,,,,,,,,,,,,,,798.0482652999926,798.0547503999551,798.0547503999551,798.0547503999551,801.0382090999628,shoe,None,801.0382462999551,801.0544327999814,801.0544327999814,802.2048854999593,f,1.139760699996259,None,801.0544327999814,801.0544327999814,801.0544327999814,,,,,,,,,,,,00053,001,2026-01-18_18h34.57.020,MST_task,2024.2.0,59.998944017529325,2026-01-18 18h35.16.930505 +0530,
,Objects\085a.jpg,105,0,106,,,,,,,None,f,1.0504249000223354,None,,,,,,106,0,105,802.2209949999815,,,,,,,,,,,,,,,,,,,,,,,802.2049757000059,802.2209949999815,802.7047773999511,,,,,,,,,,,,802.7213229999761,,,,,,,,,,,,,,,802.7175079999724,802.7213229999761,802.7213229999761,802.7213229999761,805.7048712999676,indoor,None,805.706515399972,805.7210847999668,805.7210847999668,806.7881203999859,f,1.0504249000223354,None,805.7210847999668,805.7210847999668,805.7210847999668,,,,,,,,,,,,00053,001,2026-01-18_18h34.57.020,MST_task,2024.2.0,59.998944017529325,2026-01-18 18h35.16.930505 +0530,
,Objects\045a.jpg,106,0,107,,,,,,,None,f,0.4983774999855086,None,,,,,,107,0,106,806.8044254999841,,,,,,,,,,,,,,,,,,,,,,,806.7882071999484,806.8044254999841,807.2879020999535,,,,,,,,,,,,807.3046825999627,,,,,,,,,,,,,,,807.2987300999812,807.3046825999627,807.3046825999627,807.3046825999627,810.2882346999831,indoor,None,810.2882744999952,810.3044183999882,810.3044183999882,810.805176599999,f,0.4983774999855086,None,810.3044183999882,810.3044183999882,810.3044183999882,,,,,,,,,,,,00053,001,2026-01-18_18h34.57.020,MST_task,2024.2.0,59.998944017529325,2026-01-18 18h35.16.930505 +0530,
,Objects\295a.jpg,107,0,108,,,,,,,None,f,0.6819906000164337,None,,,,,,108,0,107,810.820908499998,,,,,,,,,,,,,,,,,,,,,,,810.8052652999759,810.820908499998,811.3047291999683,,,,,,,,,,,,811.321499099955,,,,,,,,,,,,,,,811.315618099994,811.321499099955,811.321499099955,811.321499099955,814.3048032999504,indoor,None,814.3048440999701,814.32078119996,814.32078119996,815.0047947999556,f,0.6819906000164337,None,814.32078119996,814.32078119996,814.32078119996,,,,,,,,,,,,00053,001,2026-01-18_18h34.57.020,MST_task,2024.2.0,59.998944017529325,2026-01-18 18h35.16.930505 +0530,
,Objects\092a.jpg,108,0,109,,,,,,,f,None,,,2.7448833999806084,0.16007749998243526,,,,109,0,108,815.020798499987,,,,,,,,,,,,,,,,,,,,,,,815.0048869999591,815.020798499987,815.504721299978,,,,,,,,,,,,815.5214709999855,,,,,,,,,,,,,,,815.5153942999896,815.5214709999855,815.5214709999855,815.5214709999855,818.5048470000038,indoor,f,818.5048891999759,,,818.5049010999501,None,,,818.5209263999714,818.5209263999714,818.5209263999714,2.7448833999806084,0.16007749998243526,,,,,,,,,,00053,001,2026-01-18_18h34.57.020,MST_task,2024.2.0,59.998944017529325,2026-01-18 18h35.16.930505 +0530,
,Objects\229a.jpg,109,0,110,,,,,,,f,None,,,1.9491399999824353,0.18484800000442192,,,,110,0,109,818.5209263999714,,,,,,,,,,,,,,,,,,,,,,,818.5049634999596,818.5209263999714,819.0047041999642,,,,,,,,,,,,819.0215973999584,,,,,,,,,,,,,,,819.0156339999521,819.0215973999584,819.0215973999584,819.0215973999584,822.0049503999762,indoor,f,822.0050018999609,,,822.0050132999895,None,,,822.0209946999676,822.0209946999676,822.0209946999676,1.9491399999824353,0.18484800000442192,,,,,,,,,,00053,001,2026-01-18_18h34.57.020,MST_task,2024.2.0,59.998944017529325,2026-01-18 18h35.16.930505 +0530,
,Objects\369a.jpg,110,0,111,,,,,,,f,None,,,2.017454400018323,0.1528130000224337,,,,111,0,110,822.0209946999676,,,,,,,,,,,,,,,,,,,,,,,822.005076100002,822.0209946999676,822.5046932999976,,,,,,,,,,,,822.5213972000056,,,,,,,,,,,,,,,822.515289300005,822.5213972000056,822.5213972000056,822.5213972000056,825.5048403999535,indoor,f,825.5048833999899,,,825.5048946999596,None,,,825.5210416999762,825.5210416999762,825.5210416999762,2.017454400018323,0.1528130000224337,,,,,,,,,,00053,001,2026-01-18_18h34.57.020,MST_task,2024.2.0,59.998944017529325,2026-01-18 18h35.16.930505 +0530,
,Objects\308a.jpg,111,0,112,,,,,,,f,None,,,2.621101400000043,0.14400109997950494,,,,112,0,111,825.5210416999762,,,,,,,,,,,,,,,,,,,,,,,825.5049583999789,825.5210416999762,826.0047640999546,,,,,,,,,,,,826.0212320999708,,,,,,,,,,,,,,,826.0155307999812,826.0212320999708,826.0212320999708,826.0212320999708,829.0049005000037,indoor,f,829.0049432999804,,,829.0049546999508,None,,,829.0210884999833,829.0210884999833,829.0210884999833,2.621101400000043,0.14400109997950494,,,,,,,,,,00053,001,2026-01-18_18h34.57.020,MST_task,2024.2.0,59.998944017529325,2026-01-18 18h35.16.930505 +0530,
,Objects\363a.jpg,112,0,113,,,,,,,f,None,,,1.9933777999831364,0.16019710002001375,,,,113,0,112,829.0210884999833,,,,,,,,,,,,,,,,,,,,,,,829.0050193999778,829.0210884999833,829.5046242999961,,,,,,,,,,,,829.5211155999568,,,,,,,,,,,,,,,829.5173487999709,829.5211155999568,829.5211155999568,829.5211155999568,832.5050539999502,shoe,f,832.5075142999995,,,832.5075340999756,None,,,832.5208376999944,832.5208376999944,832.5208376999944,1.9933777999831364,0.16019710002001375,,,,,,,,,,00053,001,2026-01-18_18h34.57.020,MST_task,2024.2.0,59.998944017529325,2026-01-18 18h35.16.930505 +0530,
,Objects\110a.jpg,113,0,114,,,,,,,j,None,,,2.5738506999914534,0.15089970000553876,,,,114,0,113,832.5208376999944,,,,,,,,,,,,,,,,,,,,,,,832.5076045999886,832.5208376999944,833.0047020000056,,,,,,,,,,,,833.0213115999941,,,,,,,,,,,,,,,833.014956399973,833.0213115999941,833.0213115999941,833.0213115999941,836.0048352999729,shoe,j,836.0048772000009,,,836.0048883999698,None,,,836.021087799978,836.021087799978,836.021087799978,2.5738506999914534,0.15089970000553876,,,,,,,,,,00053,001,2026-01-18_18h34.57.020,MST_task,2024.2.0,59.998944017529325,2026-01-18 18h35.16.930505 +0530,
,Objects\228a.jpg,114,0,115,,,,,,,f,None,,,1.8815945999813266,0.16815680003492162,,,,115,0,114,836.021087799978,,,,,,,,,,,,,,,,,,,,,,,836.0049513999838,836.021087799978,836.5047526999842,,,,,,,,,,,,836.5212240999681,,,,,,,,,,,,,,,836.5152313999715,836.5212240999681,836.5212240999681,836.5212240999681,839.5049059999874,shoe,f,839.5049493999686,,,839.5049612000003,None,,,839.5208484999603,839.5208484999603,839.5208484999603,1.8815945999813266,0.16815680003492162,,,,,,,,,,00053,001,2026-01-18_18h34.57.020,MST_task,2024.2.0,59.998944017529325,2026-01-18 18h35.16.930505 +0530,
,Objects\026a.jpg,115,0,116,,,,,,,f,None,,,2.5338728000060655,0.16810499998973683,,,,116,0,115,839.5208484999603,,,,,,,,,,,,,,,,,,,,,,,839.5050251999637,839.5208484999603,840.0046057999716,,,,,,,,,,,,840.0210257999715,,,,,,,,,,,,,,,840.0148356999853,840.0210257999715,840.0210257999715,840.0210257999715,843.0051513999933,shoe,f,843.0051989999483,,,843.0052113999845,None,,,843.021104799991,843.021104799991,843.021104799991,2.5338728000060655,0.16810499998973683,,,,,,,,,,00053,001,2026-01-18_18h34.57.020,MST_task,2024.2.0,59.998944017529325,2026-01-18 18h35.16.930505 +0530,
,Objects\124a.jpg,116,0,117,,,,,,,j,None,,,2.8008534000255167,0.15264290000777692,,,,117,0,116,843.021104799991,,,,,,,,,,,,,,,,,,,,,,,843.0053256999818,843.021104799991,843.5047160999966,,,,,,,,,,,,843.5211999999592,,,,,,,,,,,,,,,843.5153524999623,843.5211999999592,843.5211999999592,843.5211999999592,846.5050851999549,shoe,j,846.505131999962,,,846.5051436999929,None,,,846.5208284999826,846.5208284999826,846.5208284999826,2.8008534000255167,0.15264290000777692,,,,,,,,,,00053,001,2026-01-18_18h34.57.020,MST_task,2024.2.0,59.998944017529325,2026-01-18 18h35.16.930505 +0530,
,Objects\140a.jpg,117,0,118,,,,,,,j,None,,,2.941539900028147,None,,,,118,0,117,846.5208284999826,,,,,,,,,,,,,,,,,,,,,,,846.5052475999692,846.5208284999826,847.0045725999516,,,,,,,,,,,,847.021023499954,,,,,,,,,,,,,,,847.0144829999772,847.021023499954,847.021023499954,847.021023499954,850.0047857000027,shoe,j,850.0048282999778,,,850.0048404999543,None,,,850.0209239999531,850.0209239999531,850.0209239999531,2.941539900028147,None,,,,,,,,,,00053,001,2026-01-18_18h34.57.020,MST_task,2024.2.0,59.998944017529325,2026-01-18 18h35.16.930505 +0530,
,Objects\038a.jpg,118,0,119,,,,,,,f,None,,,1.297994699969422,0.17532799998298287,,,,119,0,118,850.0209239999531,,,,,,,,,,,,,,,,,,,,,,,850.0049041999737,850.0209239999531,850.5044919999782,,,,,,,,,,,,850.5210361999925,,,,,,,,,,,,,,,850.516810400004,850.5210361999925,850.5210361999925,850.5210361999925,853.504790099978,shoe,f,853.50483359996,,,853.5048452999908,None,,,853.5208254999598,853.5208254999598,853.5208254999598,1.297994699969422,0.17532799998298287,,,,,,,,,,00053,001,2026-01-18_18h34.57.020,MST_task,2024.2.0,59.998944017529325,2026-01-18 18h35.16.930505 +0530,
,Objects\118a.jpg,119,0,120,,,,,,,None,j,0.006227000034414232,None,,,,,,120,0,119,853.5208254999598,,,,,,,,,,,,,,,,,,,,,,,853.5049392999499,853.5208254999598,854.0045020999969,,,,,,,,,,,,854.021050899988,,,,,,,,,,,,,,,854.018155400001,854.021050899988,854.021050899988,854.021050899988,857.004786299949,indoor,None,857.0064751000027,857.0208222999936,857.0208222999936,857.0381586999865,j,0.006227000034414232,None,857.0208222999936,857.0208222999936,857.0208222999936,,,,,,,,,,,,00053,001,2026-01-18_18h34.57.020,MST_task,2024.2.0,59.998944017529325,2026-01-18 18h35.16.930505 +0530,
,Objects\081a.jpg,120,0,121,,,,,,,f,None,,,2.8724247999489307,None,,,,121,0,120,857.0542690999573,,,,,,,,,,,,,,,,,,,,,,,857.0382399999653,857.0542690999573,857.5380151999998,,,,,,,,,,,,857.5545631999848,,,,,,,,,,,,,,,857.5479726999765,857.5545631999848,857.5545631999848,857.5545631999848,860.5382072999491,indoor,f,860.5382487999741,,,860.5382606000057,None,,,860.5542718999786,860.5542718999786,860.5542718999786,2.8724247999489307,None,,,,,,,,,,00053,001,2026-01-18_18h34.57.020,MST_task,2024.2.0,59.998944017529325,2026-01-18 18h35.16.930505 +0530,
,Objects\360a.jpg,121,0,122,,,,,,,f,None,,,1.5160573999746703,0.169021200039424,,,,122,0,121,860.5542718999786,,,,,,,,,,,,,,,,,,,,,,,860.53832469997,860.5542718999786,861.0379256999586,,,,,,,,,,,,861.054716099985,,,,,,,,,,,,,,,861.0483399999794,861.054716099985,861.054716099985,861.054716099985,864.0383797999821,indoor,f,864.0384207000025,,,864.0384322999744,None,,,864.0543677999522,864.0543677999522,864.0543677999522,1.5160573999746703,0.169021200039424,,,,,,,,,,00053,001,2026-01-18_18h34.57.020,MST_task,2024.2.0,59.998944017529325,2026-01-18 18h35.16.930505 +0530,
,Objects\100a.jpg,122,0,123,,,,,,,f,None,,,1.6715664000366814,0.1684609999647364,,,,123,0,122,864.0543677999522,,,,,,,,,,,,,,,,,,,,,,,864.0384951999877,864.0543677999522,864.5379454999929,,,,,,,,,,,,864.5547185000032,,,,,,,,,,,,,,,864.5487440999714,864.5547185000032,864.5547185000032,864.5547185000032,867.5382612999529,indoor,f,867.5383025999763,,,867.5383144999505,None,,,867.5543271999923,867.5543271999923,867.5543271999923,1.6715664000366814,0.1684609999647364,,,,,,,,,,00053,001,2026-01-18_18h34.57.020,MST_task,2024.2.0,59.998944017529325,2026-01-18 18h35.16.930505 +0530,
,Objects\001a.jpg,123,0,124,,,,,,,None,f,0.3405072999885306,None,,,,,,124,0,123,867.5543271999923,,,,,,,,,,,,,,,,,,,,,,,867.5383795999805,867.5543271999923,868.0378555999487,,,,,,,,,,,,868.0545526999631,,,,,,,,,,,,,,,868.0475299999816,868.0545526999631,868.0545526999631,868.0545526999631,871.0381947999704,indoor,None,871.0382441999973,871.0543582999962,871.0543582999962,871.404699799954,f,0.3405072999885306,None,871.0543582999962,871.0543582999962,871.0543582999962,,,,,,,,,,,,00053,001,2026-01-18_18h34.57.020,MST_task,2024.2.0,59.998944017529325,2026-01-18 18h35.16.930505 +0530,
,Objects\299a.jpg,124,0,125,,,,,,,j,None,,,2.3369632000103593,0.1520116999745369,,,,125,0,124,871.4208107999875,,,,,,,,,,,,,,,,,,,,,,,871.4048213999486,871.4208107999875,871.9045527999988,,,,,,,,,,,,871.9212878999533,,,,,,,,,,,,,,,871.9153047999716,871.9212878999533,871.9212878999533,871.9212878999533,874.9048644999857,indoor,j,874.9049068999593,,,874.904919099994,None,,,874.9209229999688,874.9209229999688,874.9209229999688,2.3369632000103593,0.1520116999745369,,,,,,,,,,00053,001,2026-01-18_18h34.57.020,MST_task,2024.2.0,59.998944017529325,2026-01-18 18h35.16.930505 +0530,
,Objects\087a.jpg,125,0,126,,,,,,,None,j,0.8067757999524474,None,,,,,,126,0,125,874.9209229999688,,,,,,,,,,,,,,,,,,,,,,,874.9049826999544,874.9209229999688,875.4044894999824,,,,,,,,,,,,875.4212251999998,,,,,,,,,,,,,,,875.4148258999921,875.4212251999998,875.4212251999998,875.4212251999998,878.4048416999867,indoor,None,878.4048807999934,878.4208455999615,878.4208455999615,879.2381985999527,j,0.8067757999524474,None,878.4208455999615,878.4208455999615,878.4208455999615,,,,,,,,,,,,00053,001,2026-01-18_18h34.57.020,MST_task,2024.2.0,59.998944017529325,2026-01-18 18h35.16.930505 +0530,
,Objects\159a.jpg,126,0,127,,,,,,,f,None,,,2.8086552000022493,None,,,,127,0,126,879.2543124999502,,,,,,,,,,,,,,,,,,,,,,,879.238290499954,879.2543124999502,879.737979699974,,,,,,,,,,,,879.754565399955,,,,,,,,,,,,,,,879.7501709999633,879.754565399955,879.754565399955,879.754565399955,882.7385480999947,shoe,f,882.740793999983,,,882.7408126999508,None,,,882.7543072999688,882.7543072999688,882.7543072999688,2.8086552000022493,None,,,,,,,,,,00053,001,2026-01-18_18h34.57.020,MST_task,2024.2.0,59.998944017529325,2026-01-18 18h35.16.930505 +0530,
,Objects\286a.jpg,127,0,128,,,,,,,f,None,,,1.764184799976647,0.17606590001378208,,,,128,0,127,882.7543072999688,,,,,,,,,,,,,,,,,,,,,,,882.7409221999696,882.7543072999688,883.2380021999707,,,,,,,,,,,,883.2547210999765,,,,,,,,,,,,,,,883.2484107000055,883.2547210999765,883.2547210999765,883.2547210999765,886.2381630999735,shoe,f,886.2382041999954,,,886.2382159999688,None,,,886.254317599989,886.254317599989,886.254317599989,1.764184799976647,0.17606590001378208,,,,,,,,,,00053,001,2026-01-18_18h34.57.020,MST_task,2024.2.0,59.998944017529325,2026-01-18 18h35.16.930505 +0530,
,Objects\109a.jpg,128,0,129,,,,,,,j,None,,,2.6000892000156455,0.16795239999191836,,,,129,0,128,886.254317599989,,,,,,,,,,,,,,,,,,,,,,,886.238278099976,886.254317599989,886.7379935999634,,,,,,,,,,,,886.7547105999547,,,,,,,,,,,,,,,886.7494662999525,886.7547105999547,886.7547105999547,886.7547105999547,889.7384620999801,shoe,j,889.7385102999979,,,889.7385233999812,None,,,889.75436729996,889.75436729996,889.75436729996,2.6000892000156455,0.16795239999191836,,,,,,,,,,00053,001,2026-01-18_18h34.57.020,MST_task,2024.2.0,59.998944017529325,2026-01-18 18h35.16.930505 +0530,
,Objects\358a.jpg,129,0,130,,,,,,,j,None,,,2.051547000010032,0.15967149997595698,,,,130,0,129,889.75436729996,,,,,,,,,,,,,,,,,,,,,,,889.7386321999948,889.75436729996,890.2380189999822,,,,,,,,,,,,890.2547565999557,,,,,,,,,,,,,,,890.2491561999777,890.2547565999557,890.2547565999557,890.2547565999557,893.2383210999542,shoe,j,893.2383644999936,,,893.2383766999701,None,,,893.2543477999861,893.2543477999861,893.2543477999861,2.051547000010032,0.15967149997595698,,,,,,,,,,00053,001,2026-01-18_18h34.57.020,MST_task,2024.2.0,59.998944017529325,2026-01-18 18h35.16.930505 +0530,
,Objects\352a.jpg,130,0,131,,,,,,,None,f,1.82435919996351,None,,,,,,131,0,130,893.2543477999861,,,,,,,,,,,,,,,,,,,,,,,893.2384418000001,893.2543477999861,893.7379567999742,,,,,,,,,,,,893.75471129996,,,,,,,,,,,,,,,893.7485051999683,893.75471129996,893.75471129996,893.75471129996,896.7382004999672,shoe,None,896.7382398999762,896.7542844999698,896.7542844999698,898.5882649999694,f,1.82435919996351,None,896.7542844999698,896.7542844999698,896.7542844999698,,,,,,,,,,,,00053,001,2026-01-18_18h34.57.020,MST_task,2024.2.0,59.998944017529325,2026-01-18 18h35.16.930505 +0530,
,Objects\126a.jpg,131,0,132,,,,,,,f,None,,,2.745332700025756,0.17601459997240454,,,,132,0,131,898.6044781999663,,,,,,,,,,,,,,,,,,,,,,,898.5883544999524,898.6044781999663,899.0881320000044,,,,,,,,,,,,899.104840999993,,,,,,,,,,,,,,,899.0990213999758,899.104840999993,899.104840999993,899.104840999993,902.0883775999537,shoe,f,902.088422300003,,,902.088434299978,None,,,902.1043541999534,902.1043541999534,902.1043541999534,2.745332700025756,0.17601459997240454,,,,,,,,,,00053,001,2026-01-18_18h34.57.020,MST_task,2024.2.0,59.998944017529325,2026-01-18 18h35.16.930505 +0530,
,Objects\235a.jpg,132,0,133,,,,,,,f,None,,,2.1415699000353925,0.18428190000122413,,,,133,0,132,902.1043541999534,,,,,,,,,,,,,,,,,,,,,,,902.0884981999989,902.1043541999534,902.588041299954,,,,,,,,,,,,902.6047566999914,,,,,,,,,,,,,,,902.5990652999608,902.6047566999914,902.6047566999914,902.6047566999914,905.58819889999,shoe,f,905.5882411999628,,,905.588253199996,None,,,905.6044542999589,905.6044542999589,905.6044542999589,2.1415699000353925,0.18428190000122413,,,,,,,,,,00053,001,2026-01-18_18h34.57.020,MST_task,2024.2.0,59.998944017529325,2026-01-18 18h35.16.930505 +0530,
,Objects\011a.jpg,133,0,134,,,,,,,f,None,,,2.113840500009246,0.17545589996734634,,,,134,0,133,905.6044542999589,,,,,,,,,,,,,,,,,,,,,,,905.5883166999556,905.6044542999589,906.0880247000023,,,,,,,,,,,,906.1048880000017,,,,,,,,,,,,,,,906.1008017999702,906.1048880000017,906.1048880000017,906.1048880000017,909.0883231000043,indoor,f,909.0899976999499,,,909.0900149999652,None,,,909.1043720999733,909.1043720999733,909.1043720999733,2.113840500009246,0.17545589996734634,,,,,,,,,,00053,001,2026-01-18_18h34.57.020,MST_task,2024.2.0,59.998944017529325,2026-01-18 18h35.16.930505 +0530,
,Objects\248a.jpg,134,0,135,,,,,,,None,j,0.8776406000251882,None,,,,,,135,0,134,909.1043720999733,,,,,,,,,,,,,,,,,,,,,,,909.0900825999561,909.1043720999733,909.5882396999514,,,,,,,,,,,,909.6047668999527,,,,,,,,,,,,,,,909.6015024999506,909.6047668999527,909.6047668999527,909.6047668999527,912.5884000999504,indoor,None,912.5884378000046,912.604418199975,912.604418199975,913.4882260999875,j,0.8776406000251882,None,912.604418199975,912.604418199975,912.604418199975,,,,,,,,,,,,00053,001,2026-01-18_18h34.57.020,MST_task,2024.2.0,59.998944017529325,2026-01-18 18h35.16.930505 +0530,
,Objects\356a.jpg,135,0,136,,,,,,,None,j,0.9417447000159882,None,,,,,,136,0,135,913.5044946999988,,,,,,,,,,,,,,,,,,,,,,,913.48831289995,913.5044946999988,913.9880765999551,,,,,,,,,,,,914.004837799992,,,,,,,,,,,,,,,914.0006943999906,914.004837799992,914.004837799992,914.004837799992,916.9882907999563,indoor,None,916.9883325999836,917.004427399952,917.004427399952,917.9550444000051,j,0.9417447000159882,None,917.004427399952,917.004427399952,917.004427399952,,,,,,,,,,,,00053,001,2026-01-18_18h34.57.020,MST_task,2024.2.0,59.998944017529325,2026-01-18 18h35.16.930505 +0530,
,Objects\201a.jpg,136,0,137,,,,,,,f,None,,,0.9547606999985874,0.16069000004790723,,,,137,0,136,917.9709047999931,,,,,,,,,,,,,,,,,,,,,,,917.9551432000007,917.9709047999931,918.4564493999933,,,,,,,,,,,,,,,,,,,,,,,,,,,918.46703109995,918.4714419999509,918.4714419999509,918.4714419999509,921.4570212999824,indoor,f,921.4570658999728,,,921.4570772000006,None,,,921.4710273999954,921.4710273999954,921.4710273999954,0.9547606999985874,0.16069000004790723,,,,,,,,,,00053,001,2026-01-18_18h34.57.020,MST_task,2024.2.0,59.998944017529325,2026-01-18 18h35.16.930505 +0530,
,Objects\325a.jpg,137,0,138,,,,,,,f,None,,,1.2001301000127569,0.13510050001787022,,,,138,0,137,921.4710273999954,,,,,,,,,,,,,,,,,,,,,,,921.4571487999638,921.4710273999954,921.9546532999957,,,,,,,,,,,,921.9713166999863,,,,,,,,,,,,,,,921.9652791999979,921.9713166999863,921.9713166999863,921.9713166999863,924.9549881999847,indoor,f,924.9550317999674,,,924.9550433999975,None,,,924.9711491999915,924.9711491999915,924.9711491999915,1.2001301000127569,0.13510050001787022,,,,,,,,,,00053,001,2026-01-18_18h34.57.020,MST_task,2024.2.0,59.998944017529325,2026-01-18 18h35.16.930505 +0530,
,Objects\034a.jpg,138,0,139,,,,,,,None,j,0.363121600006707,None,,,,,,139,0,138,924.9711491999915,,,,,,,,,,,,,,,,,,,,,,,924.9551084999694,924.9711491999915,925.4547925999505,,,,,,,,,,,,925.4712728000013,,,,,,,,,,,,,,,925.467793799995,925.4712728000013,925.4712728000013,925.4712728000013,928.4550844999612,indoor,None,928.4551288999501,928.470936800004,928.470936800004,928.8381437999778,j,0.363121600006707,None,928.470936800004,928.470936800004,928.470936800004,,,,,,,,,,,,00053,001,2026-01-18_18h34.57.020,MST_task,2024.2.0,59.998944017529325,2026-01-18 18h35.16.930505 +0530,
,Objects\043a.jpg,139,0,140,,,,,,,None,f,1.8168210000148974,None,,,,,,140,0,139,928.8542962999782,,,,,,,,,,,,,,,,,,,,,,,928.8382305999985,928.8542962999782,929.3379222999793,,,,,,,,,,,,929.3546504999977,,,,,,,,,,,,,,,929.3483394999639,929.3546504999977,929.3546504999977,929.3546504999977,932.338246899948,indoor,None,932.3382854999509,932.3542891999823,932.3542891999823,934.1880972999497,f,1.8168210000148974,None,932.3542891999823,932.3542891999823,932.3542891999823,,,,,,,,,,,,00053,001,2026-01-18_18h34.57.020,MST_task,2024.2.0,59.998944017529325,2026-01-18 18h35.16.930505 +0530,
,Objects\132a.jpg,140,0,141,,,,,,,f,None,,,1.8023056000238284,0.18320539995329455,,,,141,0,140,934.2043031999492,,,,,,,,,,,,,,,,,,,,,,,934.1881848999765,934.2043031999492,934.6879353999975,,,,,,,,,,,,934.70457479998,,,,,,,,,,,,,,,934.7004512999556,934.70457479998,934.70457479998,934.70457479998,937.6884325999999,shoe,f,937.6906253999914,,,937.6906437999569,None,,,937.704451699974,937.704451699974,937.704451699974,1.8023056000238284,0.18320539995329455,,,,,,,,,,00053,001,2026-01-18_18h34.57.020,MST_task,2024.2.0,59.998944017529325,2026-01-18 18h35.16.930505 +0530,
,Objects\326a.jpg,141,0,142,,,,,,,f,None,,,1.790687800035812,0.15918269997928292,,,,142,0,141,937.704451699974,,,,,,,,,,,,,,,,,,,,,,,937.6907460999792,937.704451699974,938.1879295999533,,,,,,,,,,,,938.2045307999942,,,,,,,,,,,,,,,938.1996962999692,938.2045307999942,938.2045307999942,938.2045307999942,941.1882255999953,shoe,f,941.1882669999613,,,941.1882786999922,None,,,941.2042841999792,941.2042841999792,941.2042841999792,1.790687800035812,0.15918269997928292,,,,,,,,,,00053,001,2026-01-18_18h34.57.020,MST_task,2024.2.0,59.998944017529325,2026-01-18 18h35.16.930505 +0530,
,Objects\217a.jpg,142,0,143,,,,,,,j,None,,,1.6333549999981187,0.17670060001546517,,,,143,0,142,941.2042841999792,,,,,,,,,,,,,,,,,,,,,,,941.1883420999511,941.2042841999792,941.6880773999728,,,,,,,,,,,,941.7048517999938,,,,,,,,,,,,,,,941.6987040999811,941.7048517999938,941.7048517999938,941.7048517999938,944.6881935999845,shoe,j,944.6882358999574,,,944.6882474999875,None,,,944.7043479999993,944.7043479999993,944.7043479999993,1.6333549999981187,0.17670060001546517,,,,,,,,,,00053,001,2026-01-18_18h34.57.020,MST_task,2024.2.0,59.998944017529325,2026-01-18 18h35.16.930505 +0530,
,Objects\134a.jpg,143,0,144,,,,,,,j,None,,,1.7497185000102036,0.1279787000385113,,,,144,0,143,944.7043479999993,,,,,,,,,,,,,,,,,,,,,,,944.6883185000042,944.7043479999993,945.1878515999997,,,,,,,,,,,,945.2047581999796,,,,,,,,,,,,,,,945.1993249999941,945.2047581999796,945.2047581999796,945.2047581999796,948.1883241999894,shoe,j,948.1883696999867,,,948.1883819999639,None,,,948.2043469999917,948.2043469999917,948.2043469999917,1.7497185000102036,0.1279787000385113,,,,,,,,,,00053,001,2026-01-18_18h34.57.020,MST_task,2024.2.0,59.998944017529325,2026-01-18 18h35.16.930505 +0530,
,Objects\082a.jpg,144,0,145,,,,,,,j,None,,,0.9865594999864697,0.16697410005144775,,,,145,0,144,948.2043469999917,,,,,,,,,,,,,,,,,,,,,,,948.1884823999717,948.2043469999917,948.6879922999651,,,,,,,,,,,,948.7045823999797,,,,,,,,,,,,,,,948.6982270999579,948.7045823999797,948.7045823999797,948.7045823999797,951.6882543999818,shoe,j,951.6882963999524,,,951.688308199984,None,,,951.7043524999754,951.7043524999754,951.7043524999754,0.9865594999864697,0.16697410005144775,,,,,,,,,,00053,001,2026-01-18_18h34.57.020,MST_task,2024.2.0,59.998944017529325,2026-01-18 18h35.16.930505 +0530,
,Objects\106a.jpg,145,0,146,,,,,,,f,None,,,2.062601200013887,0.15161749999970198,,,,146,0,145,951.7043524999754,,,,,,,,,,,,,,,,,,,,,,,951.688403499953,951.7043524999754,952.1879437000025,,,,,,,,,,,,952.2045429999707,,,,,,,,,,,,,,,952.1977066999534,952.2045429999707,952.2045429999707,952.2045429999707,955.1882409999962,shoe,f,955.1882822999614,,,955.1882937999908,None,,,955.2043384999852,955.2043384999852,955.2043384999852,2.062601200013887,0.15161749999970198,,,,,,,,,,00053,001,2026-01-18_18h34.57.020,MST_task,2024.2.0,59.998944017529325,2026-01-18 18h35.16.930505 +0530,
,Objects\151a.jpg,146,0,147,,,,,,,f,None,,,1.4259847999783233,0.19983230001525953,,,,147,0,146,955.2043384999852,,,,,,,,,,,,,,,,,,,,,,,955.1883880999521,955.2043384999852,955.6879024999798,,,,,,,,,,,,955.7046473999508,,,,,,,,,,,,,,,955.6978417999926,955.7046473999508,955.7046473999508,955.7046473999508,958.688259699964,shoe,f,958.6883024999988,,,958.6883146999753,None,,,958.7043593999697,958.7043593999697,958.7043593999697,1.4259847999783233,0.19983230001525953,,,,,,,,,,00053,001,2026-01-18_18h34.57.020,MST_task,2024.2.0,59.998944017529325,2026-01-18 18h35.16.930505 +0530,
,Objects\047a.jpg,147,0,148,,,,,,,f,None,,,2.2383805999998003,0.14398529997561127,,,,148,0,147,958.7043593999697,,,,,,,,,,,,,,,,,,,,,,,958.6883771999856,958.7043593999697,959.1878558999742,,,,,,,,,,,,959.2046610999969,,,,,,,,,,,,,,,959.2001868999796,959.2046610999969,959.2046610999969,959.2046610999969,962.1882899999619,indoor,f,962.1899951999658,,,962.1900132999872,None,,,962.2043482000008,962.2043482000008,962.2043482000008,2.2383805999998003,0.14398529997561127,,,,,,,,,,00053,001,2026-01-18_18h34.57.020,MST_task,2024.2.0,59.998944017529325,2026-01-18 18h35.16.930505 +0530,
,Objects\268a.jpg,148,0,149,,,,,,,j,None,,,2.35401270003058,0.1920035999501124,,,,149,0,148,962.2043482000008,,,,,,,,,,,,,,,,,,,,,,,962.1900836999994,962.2043482000008,962.6879234999651,,,,,,,,,,,,962.7047021999606,,,,,,,,,,,,,,,962.6980722000008,962.7047021999606,962.7047021999606,962.7047021999606,965.6882287999615,indoor,j,965.6882756999694,,,965.6882878000033,None,,,965.7043109999504,965.7043109999504,965.7043109999504,2.35401270003058,0.1920035999501124,,,,,,,,,,00053,001,2026-01-18_18h34.57.020,MST_task,2024.2.0,59.998944017529325,2026-01-18 18h35.16.930505 +0530,
,Objects\306a.jpg,149,0,150,,,,,,,f,None,,,1.1981169000500813,0.1834157999837771,,,,150,0,149,965.7043109999504,,,,,,,,,,,,,,,,,,,,,,,965.6883531999774,965.7043109999504,966.1879196999944,,,,,,,,,,,,966.2047038999735,,,,,,,,,,,,,,,966.1991583000054,966.2047038999735,966.2047038999735,966.2047038999735,969.1882247999893,indoor,f,969.1882670999621,,,969.1882785999915,None,,,969.2042802999495,969.2042802999495,969.2042802999495,1.1981169000500813,0.1834157999837771,,,,,,,,,,00053,001,2026-01-18_18h34.57.020,MST_task,2024.2.0,59.998944017529325,2026-01-18 18h35.16.930505 +0530,
,Objects\307a.jpg,150,0,151,,,,,,,f,None,,,2.3225221000029705,0.15899590001208708,,,,151,0,150,969.2042802999495,,,,,,,,,,,,,,,,,,,,,,,969.1883419999504,969.2042802999495,969.6879215999506,,,,,,,,,,,,969.7046775000053,,,,,,,,,,,,,,,969.6988385999575,969.7046775000053,969.7046775000053,969.7046775000053,972.6881868999917,indoor,f,972.6882301999722,,,972.6882418000023,None,,,972.7043497999548,972.7043497999548,972.7043497999548,2.3225221000029705,0.15899590001208708,,,,,,,,,,00053,001,2026-01-18_18h34.57.020,MST_task,2024.2.0,59.998944017529325,2026-01-18 18h35.16.930505 +0530,
,Objects\266a.jpg,151,0,152,,,,,,,None,f,2.238161300017964,None,,,,,,152,0,151,972.7043497999548,,,,,,,,,,,,,,,,,,,,,,,972.6883052999619,972.7043497999548,973.1880689999671,,,,,,,,,,,,973.2047811999801,,,,,,,,,,,,,,,973.2002938999794,973.2047811999801,973.2047811999801,973.2047811999801,976.1882049999549,indoor,None,976.1882435999578,976.2043730999576,976.2043730999576,978.4549821999972,f,2.238161300017964,None,976.2043730999576,976.2043730999576,976.2043730999576,,,,,,,,,,,,00053,001,2026-01-18_18h34.57.020,MST_task,2024.2.0,59.998944017529325,2026-01-18 18h35.16.930505 +0530,
,Objects\059a.jpg,152,0,153,,,,,,,f,None,,,1.5828604000271298,0.1599970000097528,,,,153,0,152,978.4709507999942,,,,,,,,,,,,,,,,,,,,,,,978.4550770999631,978.4709507999942,978.9545868999558,,,,,,,,,,,,978.9712564999936,,,,,,,,,,,,,,,978.9652772999834,978.9712564999936,978.9712564999936,978.9712564999936,981.9548634999665,indoor,f,981.9549652999849,,,981.9549948999775,None,,,981.9708520999993,981.9708520999993,981.9708520999993,1.5828604000271298,0.1599970000097528,,,,,,,,,,00053,001,2026-01-18_18h34.57.020,MST_task,2024.2.0,59.998944017529325,2026-01-18 18h35.16.930505 +0530,
,Objects\090a.jpg,153,0,154,,,,,,,j,None,,,2.0032847999827936,0.1519616000005044,,,,154,0,153,981.9708520999993,,,,,,,,,,,,,,,,,,,,,,,981.9550668000011,981.9708520999993,982.4545174999512,,,,,,,,,,,,982.4712469999795,,,,,,,,,,,,,,,982.4658522999962,982.4712469999795,982.4712469999795,982.4712469999795,985.4564097999828,indoor,j,985.4564538999693,,,985.4564671999542,None,,,,,,2.0032847999827936,0.1519616000005044,,,,,,,,,,00053,001,2026-01-18_18h34.57.020,MST_task,2024.2.0,59.998944017529325,2026-01-18 18h35.16.930505 +0530,
,Objects\076a.jpg,154,0,155,,,,,,,f,None,,,1.98302829999011,0.1679825999890454,,,,155,0,154,985.470886599971,,,,,,,,,,,,,,,,,,,,,,,985.456532799988,985.470886599971,985.9545242000022,,,,,,,,,,,,985.9712126999511,,,,,,,,,,,,,,,985.966695799958,985.9712126999511,985.9712126999511,985.9712126999511,988.9549261999782,shoe,f,988.9571421999717,,,988.9571599999908,None,,,988.9709579999908,988.9709579999908,988.9709579999908,1.98302829999011,0.1679825999890454,,,,,,,,,,00053,001,2026-01-18_18h34.57.020,MST_task,2024.2.0,59.998944017529325,2026-01-18 18h35.16.930505 +0530,
,Objects\212a.jpg,155,0,156,,,,,,,j,None,,,1.0591539000160992,0.1683291999506764,,,,156,0,155,988.9709579999908,,,,,,,,,,,,,,,,,,,,,,,988.9572621999541,988.9709579999908,989.454728599987,,,,,,,,,,,,989.4714831999736,,,,,,,,,,,,,,,989.4648697999655,989.4714831999736,989.4714831999736,989.4714831999736,992.455061799963,shoe,j,992.4551166999736,,,992.455128600006,None,,,992.4709725999855,992.4709725999855,992.4709725999855,1.0591539000160992,0.1683291999506764,,,,,,,,,,00053,001,2026-01-18_18h34.57.020,MST_task,2024.2.0,59.998944017529325,2026-01-18 18h35.16.930505 +0530,
,Objects\199a.jpg,156,0,157,,,,,,,f,None,,,2.462598500016611,0.14448759995866567,,,,157,0,156,992.4709725999855,,,,,,,,,,,,,,,,,,,,,,,992.4551950999885,992.4709725999855,992.9545791999553,,,,,,,,,,,,992.9714183000033,,,,,,,,,,,,,,,992.9653189999517,992.9714183000033,992.9714183000033,992.9714183000033,995.955238799972,shoe,f,995.9552857999806,,,995.9552983999602,None,,,995.9710371999536,995.9710371999536,995.9710371999536,2.462598500016611,0.14448759995866567,,,,,,,,,,00053,001,2026-01-18_18h34.57.020,MST_task,2024.2.0,59.998944017529325,2026-01-18 18h35.16.930505 +0530,
,Objects\222a.jpg,157,0,158,,,,,,,j,None,,,2.8751932000159286,None,,,,158,0,157,995.9710371999536,,,,,,,,,,,,,,,,,,,,,,,995.9553644999978,995.9710371999536,996.4545904999832,,,,,,,,,,,,996.4712887999485,,,,,,,,,,,,,,,996.4669969999813,996.4712887999485,996.4712887999485,996.4712887999485,999.454937500006,shoe,j,999.4549800999812,,,999.4549921999569,None,,,999.4710315999691,999.4710315999691,999.4710315999691,2.8751932000159286,None,,,,,,,,,,00053,001,2026-01-18_18h34.57.020,MST_task,2024.2.0,59.998944017529325,2026-01-18 18h35.16.930505 +0530,
