thisN,thisTrialN,thisRepN,key_resp_3.keys,key_resp_3.rt,key_resp_3.duration,trials.thisRepN,trials.thisTrialN,trials.thisN,thisRow.t,notes,intro_page.started,text.started,key_resp.started,intro_page.stopped,key_resp.keys,key_resp.rt,key_resp.duration,instructions.started,text_2.started,key_resp_2.started,instructions.stopped,key_resp_2.keys,key_resp_2.rt,key_resp_2.duration,demo1.started,image_1.started,image_2.started,text_7.started,key_resp_6.started,text_9.started,demo1.stopped,key_resp_6.keys,key_resp_6.rt,key_resp_6.duration,demo3.started,image_5.started,image_6.started,text_11.started,text_12.started,key_resp_8.started,demo3.stopped,key_resp_8.keys,key_resp_8.rt,key_resp_8.duration,demo_conclusion.started,text_13.started,key_resp_9.started,demo_conclusion.stopped,key_resp_9.keys,key_resp_9.rt,key_resp_9.duration,start_test.started,text_6.started,key_resp_5.started,start_test.stopped,key_resp_5.keys,key_resp_5.rt,key_resp_5.duration,ISI.started,text_4.started,text_4.stopped,ISI.stopped,routine_1.started,image.started,text_3.started,key_resp_3.started,routine_1.stopped,image_path,position_of_stimuli,trials.key_resp_3.keys,trials.key_resp_3.rt,trials.key_resp_3.duration,End_page.started,text_5.started,key_resp_4.started,End_page.stopped,key_resp_4.keys,key_resp_4.rt,key_resp_4.duration,participant,session,date,expName,psychopyVersion,frameRate,expStart,
,,,,,,,,,,,0.001998799998546019,0.004043399996589869,0.004043399996589869,12.626684800008661,space,12.604506299991044,None,,,,,,,,,,,,,,,,,,,,,,,,,,,,,,,,,,,,,,,,,,,,,,,,,,,,,,,,,,,,,,,00058,001,2026-01-19_15h27.36.538,MST_test,2024.2.0,59.99865602685612,2026-01-19 15h28.04.325096 +0530,
,,,,,,,,,,,,,,,,,,12.626737300000968,12.642734200009727,12.642734200009727,27.57294820000243,space,14.926184399999329,None,,,,,,,,,,,,,,,,,,,,,,,,,,,,,,,,,,,,,,,,,,,,,,,,,,,,,,,,00058,001,2026-01-19_15h27.36.538,MST_test,2024.2.0,59.99865602685612,2026-01-19 15h28.04.325096 +0530,
,,,,,,,,,,,,,,,,,,,,,,,,,27.57303790000151,27.613308300002245,27.613308300002245,27.613308300002245,27.613308300002245,27.613308300002245,34.47309140001016,space,6.842554200004088,None,,,,,,,,,,,,,,,,,,,,,,,,,,,,,,,,,,,,,,,,,,,,,,00058,001,2026-01-19_15h27.36.538,MST_test,2024.2.0,59.99865602685612,2026-01-19 15h28.04.325096 +0530,
,,,,,,,,,,,,,,,,,,,,,,,,,,,,,,,,,,,34.47321900000679,34.48845669999719,34.48845669999719,34.48845669999719,34.48845669999719,34.48845669999719,36.356375500006834,space,1.8564327000058256,None,,,,,,,,,,,,,,,,,,,,,,,,,,,,,,,,,,,,00058,001,2026-01-19_15h27.36.538,MST_test,2024.2.0,59.99865602685612,2026-01-19 15h28.04.325096 +0530,
,,,,,,,,,,,,,,,,,,,,,,,,,,,,,,,,,,,,,,,,,,,,,36.356495700005325,36.37100120000832,36.37100120000832,58.556134800004656,space,22.17439079999167,None,,,,,,,,,,,,,,,,,,,,,,,,,,,,,00058,001,2026-01-19_15h27.36.538,MST_test,2024.2.0,59.99865602685612,2026-01-19 15h28.04.325096 +0530,
,,,,,,,,,,,,,,,,,,,,,,,,,,,,,,,,,,,,,,,,,,,,,,,,,,,,58.556296399998246,58.58445229999779,58.58445229999779,110.55617779999739,space,51.960542300003,None,,,,,,,,,,,,,,,,,,,,,,00058,001,2026-01-19_15h27.36.538,MST_test,2024.2.0,59.99865602685612,2026-01-19 15h28.04.325096 +0530,
0,0,1,o,3.102627400003257,None,1,0,0,110.5707720000064,,,,,,,,,,,,,,,,,,,,,,,,,,,,,,,,,,,,,,,,,,,,,,,,,,110.56605940000736,110.5707720000064,111.11435370000254,111.05552029999672,111.11152150000271,111.11435370000254,111.11435370000254,111.11435370000254,114.22359400001005,Objects\135b.jpg,post,o,3.102627400003257,None,,,,,,,,00058,001,2026-01-19_15h27.36.538,MST_test,2024.2.0,59.99865602685612,2026-01-19 15h28.04.325096 +0530,
1,0,2,o,2.5910432999953628,None,2,0,1,114.23750430000655,,,,,,,,,,,,,,,,,,,,,,,,,,,,,,,,,,,,,,,,,,,,,,,,,,114.2239416000084,114.23750430000655,114.73799110000255,114.72222979999788,114.73458990000654,114.73799110000255,114.73799110000255,114.73799110000255,117.33936320000794,Objects\278a.jpg,mid,o,2.5910432999953628,None,,,,,,,,00058,001,2026-01-19_15h27.36.538,MST_test,2024.2.0,59.99865602685612,2026-01-19 15h28.04.325096 +0530,
2,0,3,s,5.898546099997475,None,3,0,2,117.35543209999742,,,,,,,,,,,,,,,,,,,,,,,,,,,,,,,,,,,,,,,,,,,,,,,,,,117.33962270000484,117.35543209999742,,117.85454050000408,117.90544840000803,117.90932360000443,117.90932360000443,117.90932360000443,123.82301960000768,Objects\356b.jpg,pre,s,5.898546099997475,None,,,,,,,,00058,001,2026-01-19_15h27.36.538,MST_test,2024.2.0,59.99865602685612,2026-01-19 15h28.04.325096 +0530,
3,0,4,n,4.279046499999822,None,4,0,3,123.83772100000351,,,,,,,,,,,,,,,,,,,,,,,,,,,,,,,,,,,,,,,,,,,,,,,,,,123.82336850000138,123.83772100000351,124.377435900009,124.32216270000208,124.37405350001063,124.377435900009,124.377435900009,124.377435900009,128.67292470000393,Objects\067b.jpg,pre,n,4.279046499999822,None,,,,,,,,00058,001,2026-01-19_15h27.36.538,MST_test,2024.2.0,59.99865602685612,2026-01-19 15h28.04.325096 +0530,
4,0,5,n,1.8067107999959262,None,5,0,4,128.68766999999934,,,,,,,,,,,,,,,,,,,,,,,,,,,,,,,,,,,,,,,,,,,,,,,,,,128.67304629999853,128.68766999999934,129.20132540000486,129.172146900004,129.1983634000062,129.20132540000486,129.20132540000486,129.20132540000486,131.0232160000014,Foils\113a.jpg,none,n,1.8067107999959262,None,,,,,,,,00058,001,2026-01-19_15h27.36.538,MST_test,2024.2.0,59.99865602685612,2026-01-19 15h28.04.325096 +0530,
5,0,6,o,6.982076500004041,None,6,0,5,131.03770420000365,,,,,,,,,,,,,,,,,,,,,,,,,,,,,,,,,,,,,,,,,,,,,,,,,,131.02353220000805,131.03770420000365,131.53822200000286,131.52259420001064,131.5306627999962,131.53822200000286,131.53822200000286,131.53822200000286,138.5230084000068,Objects\212a.jpg,mid,o,6.982076500004041,None,,,,,,,,00058,001,2026-01-19_15h27.36.538,MST_test,2024.2.0,59.99865602685612,2026-01-19 15h28.04.325096 +0530,
6,0,7,s,5.113605999998981,None,7,0,6,138.53772220000974,,,,,,,,,,,,,,,,,,,,,,,,,,,,,,,,,,,,,,,,,,,,,,,,,,138.5234039000061,138.53772220000974,139.07008920000226,139.02190930000506,139.06696999999986,139.07008920000226,139.07008920000226,139.07008920000226,144.18992140000046,Objects\220b.jpg,mid,s,5.113605999998981,None,,,,,,,,00058,001,2026-01-19_15h27.36.538,MST_test,2024.2.0,59.99865602685612,2026-01-19 15h28.04.325096 +0530,
7,0,8,o,2.1434270000027027,None,8,0,7,144.20436099999642,,,,,,,,,,,,,,,,,,,,,,,,,,,,,,,,,,,,,,,,,,,,,,,,,,144.1903086000093,144.20436099999642,144.70479770000384,144.68841350000002,144.6936812000058,144.70479770000384,144.70479770000384,144.70479770000384,146.85635529999854,Objects\194a.jpg,pre,o,2.1434270000027027,None,,,,,,,,00058,001,2026-01-19_15h27.36.538,MST_test,2024.2.0,59.99865602685612,2026-01-19 15h28.04.325096 +0530,
8,0,9,s,4.670950300002005,None,9,0,8,146.87106910000148,,,,,,,,,,,,,,,,,,,,,,,,,,,,,,,,,,,,,,,,,,,,,,,,,,146.85673159999715,146.87106910000148,147.4092032000044,147.35550469999725,147.4063879000023,147.4092032000044,147.4092032000044,147.4092032000044,152.08981410000706,Objects\236b.jpg,pre,s,4.670950300002005,None,,,,,,,,00058,001,2026-01-19_15h27.36.538,MST_test,2024.2.0,59.99865602685612,2026-01-19 15h28.04.325096 +0530,
9,0,10,s,2.579570899993996,None,10,0,9,152.10423720000836,,,,,,,,,,,,,,,,,,,,,,,,,,,,,,,,,,,,,,,,,,,,,,,,,,152.09016669999983,152.10423720000836,152.60453029999917,152.58876620000228,152.59441240000888,152.60453029999917,152.60453029999917,152.60453029999917,155.19037430000026,Objects\373a.jpg,pre,s,2.579570899993996,None,,,,,,,,00058,001,2026-01-19_15h27.36.538,MST_test,2024.2.0,59.99865602685612,2026-01-19 15h28.04.325096 +0530,
10,0,11,s,3.9392797000036808,None,11,0,10,155.2043083000026,,,,,,,,,,,,,,,,,,,,,,,,,,,,,,,,,,,,,,,,,,,,,,,,,,155.19069420000596,155.2043083000026,155.71731880000152,155.68878389999736,155.71400100000028,155.71731880000152,155.71731880000152,155.71731880000152,159.672954499998,Objects\334b.jpg,mid,s,3.9392797000036808,None,,,,,,,,00058,001,2026-01-19_15h27.36.538,MST_test,2024.2.0,59.99865602685612,2026-01-19 15h28.04.325096 +0530,
11,0,12,n,1.5765495000086958,None,12,0,11,159.68767549999757,,,,,,,,,,,,,,,,,,,,,,,,,,,,,,,,,,,,,,,,,,,,,,,,,,159.67326219999813,159.68767549999757,160.2315782000078,160.17198530001042,160.22879130000365,160.2315782000078,160.2315782000078,160.2315782000078,161.82281130000774,Foils\105a.jpg,none,n,1.5765495000086958,None,,,,,,,,00058,001,2026-01-19_15h27.36.538,MST_test,2024.2.0,59.99865602685612,2026-01-19 15h28.04.325096 +0530,
12,0,13,s,2.470092800009297,None,13,0,12,161.8387231000088,,,,,,,,,,,,,,,,,,,,,,,,,,,,,,,,,,,,,,,,,,,,,,,,,,161.82305940000515,161.8387231000088,,162.33800360000168,162.38326780000352,162.3859172000084,162.3859172000084,162.3859172000084,164.87265879999904,Objects\141b.jpg,post,s,2.470092800009297,None,,,,,,,,00058,001,2026-01-19_15h27.36.538,MST_test,2024.2.0,59.99865602685612,2026-01-19 15h28.04.325096 +0530,
13,0,14,o,2.059368699992774,None,14,0,13,164.88779059999797,,,,,,,,,,,,,,,,,,,,,,,,,,,,,,,,,,,,,,,,,,,,,,,,,,164.87290660000872,164.88779059999797,165.420935800008,165.3721794000012,165.41795280000952,165.420935800008,165.420935800008,165.420935800008,167.48936200000753,Objects\161b.jpg,mid,o,2.059368699992774,None,,,,,,,,00058,001,2026-01-19_15h27.36.538,MST_test,2024.2.0,59.99865602685612,2026-01-19 15h28.04.325096 +0530,
14,0,15,o,1.9393131999968318,None,15,0,14,167.50426680000965,,,,,,,,,,,,,,,,,,,,,,,,,,,,,,,,,,,,,,,,,,,,,,,,,,167.48977050000394,167.50426680000965,168.0050823000056,167.98868070000026,167.99523080000654,168.0050823000056,168.0050823000056,168.0050823000056,169.95667919999687,Objects\208a.jpg,pre,o,1.9393131999968318,None,,,,,,,,00058,001,2026-01-19_15h27.36.538,MST_test,2024.2.0,59.99865602685612,2026-01-19 15h28.04.325096 +0530,
15,0,16,n,1.294388299997081,None,16,0,15,169.97096220000822,,,,,,,,,,,,,,,,,,,,,,,,,,,,,,,,,,,,,,,,,,,,,,,,,,169.95707889999903,169.97096220000822,170.5053079000063,170.45527920000313,170.50248080000165,170.5053079000063,170.5053079000063,170.5053079000063,171.80632380000316,Foils\081a.jpg,none,n,1.294388299997081,None,,,,,,,,00058,001,2026-01-19_15h27.36.538,MST_test,2024.2.0,59.99865602685612,2026-01-19 15h28.04.325096 +0530,
16,0,17,o,3.2705397000099765,None,17,0,16,171.8212724000041,,,,,,,,,,,,,,,,,,,,,,,,,,,,,,,,,,,,,,,,,,,,,,,,,,171.8067379999993,171.8212724000041,172.3212296999991,172.30530920000456,172.31230070001038,172.3212296999991,172.3212296999991,172.3212296999991,175.6058389999962,Objects\089a.jpg,post,o,3.2705397000099765,None,,,,,,,,00058,001,2026-01-19_15h27.36.538,MST_test,2024.2.0,59.99865602685612,2026-01-19 15h28.04.325096 +0530,
17,0,18,o,3.100387200000114,None,18,0,17,175.62094340000476,,,,,,,,,,,,,,,,,,,,,,,,,,,,,,,,,,,,,,,,,,,,,,,,,,175.6061233000073,175.62094340000476,176.1319186000037,176.105561400007,176.12925710000854,176.1319186000037,176.1319186000037,176.1319186000037,179.23990690000937,Objects\019b.jpg,mid,o,3.100387200000114,None,,,,,,,,00058,001,2026-01-19_15h27.36.538,MST_test,2024.2.0,59.99865602685612,2026-01-19 15h28.04.325096 +0530,
18,0,19,n,1.1597134999901755,None,19,0,18,179.25469400000293,,,,,,,,,,,,,,,,,,,,,,,,,,,,,,,,,,,,,,,,,,,,,,,,,,179.24032199999783,179.25469400000293,179.77728209999623,179.7388084999984,179.7734155000071,179.77728209999623,179.77728209999623,179.77728209999623,180.93996200000402,Foils\f5.jpg,none,n,1.1597134999901755,None,,,,,,,,00058,001,2026-01-19_15h27.36.538,MST_test,2024.2.0,59.99865602685612,2026-01-19 15h28.04.325096 +0530,
19,0,20,o,2.9852742000075523,None,20,0,19,180.95439970000007,,,,,,,,,,,,,,,,,,,,,,,,,,,,,,,,,,,,,,,,,,,,,,,,,,180.94022859999677,180.95439970000007,181.45474300000933,181.43884299999627,181.44483140000375,181.45474300000933,181.45474300000933,181.45474300000933,184.45597160000762,Objects\035a.jpg,pre,o,2.9852742000075523,None,,,,,,,,00058,001,2026-01-19_15h27.36.538,MST_test,2024.2.0,59.99865602685612,2026-01-19 15h28.04.325096 +0530,
20,0,21,s,1.9637772999994922,None,21,0,20,184.47103480000806,,,,,,,,,,,,,,,,,,,,,,,,,,,,,,,,,,,,,,,,,,,,,,,,,,184.4562949000101,184.47103480000806,185.02000640000915,184.95531330000085,185.01705180000863,185.02000640000915,185.02000640000915,185.02000640000915,186.99031980001018,Objects\229b.jpg,pre,s,1.9637772999994922,None,,,,,,,,00058,001,2026-01-19_15h27.36.538,MST_test,2024.2.0,59.99865602685612,2026-01-19 15h28.04.325096 +0530,
21,0,22,s,2.67899290000787,None,22,0,21,187.00464890000876,,,,,,,,,,,,,,,,,,,,,,,,,,,,,,,,,,,,,,,,,,,,,,,,,,186.99076390000118,187.00464890000876,187.54479680000804,187.48884050000925,187.5420635000046,187.54479680000804,187.54479680000804,187.54479680000804,190.23962700000266,Objects\031b.jpg,post,s,2.67899290000787,None,,,,,,,,00058,001,2026-01-19_15h27.36.538,MST_test,2024.2.0,59.99865602685612,2026-01-19 15h28.04.325096 +0530,
22,0,23,s,1.3183984999923268,None,23,0,22,190.25422830000753,,,,,,,,,,,,,,,,,,,,,,,,,,,,,,,,,,,,,,,,,,,,,,,,,,190.24003339999763,190.25422830000753,190.75463019999734,190.73871960000542,190.74456010000722,190.75463019999734,190.75463019999734,190.75463019999734,192.09056890000647,Objects\252a.jpg,post,s,1.3183984999923268,None,,,,,,,,00058,001,2026-01-19_15h27.36.538,MST_test,2024.2.0,59.99865602685612,2026-01-19 15h28.04.325096 +0530,
23,0,24,o,3.139227599996957,None,24,0,23,192.10433440000634,,,,,,,,,,,,,,,,,,,,,,,,,,,,,,,,,,,,,,,,,,,,,,,,,,192.09082450000278,192.10433440000634,192.60455830000865,192.58942350000143,192.59702860000834,192.60455830000865,192.60455830000865,192.60455830000865,195.7562956000038,Objects\301a.jpg,pre,o,3.139227599996957,None,,,,,,,,00058,001,2026-01-19_15h27.36.538,MST_test,2024.2.0,59.99865602685612,2026-01-19 15h28.04.325096 +0530,
24,0,25,s,4.008765599995968,None,25,0,24,195.77096979999624,,,,,,,,,,,,,,,,,,,,,,,,,,,,,,,,,,,,,,,,,,,,,,,,,,195.7565917000029,195.77096979999624,196.30336050000915,196.2554311999993,196.30039560000296,196.30336050000915,196.30336050000915,196.30336050000915,200.32350480000605,Objects\099b.jpg,post,s,4.008765599995968,None,,,,,,,,00058,001,2026-01-19_15h27.36.538,MST_test,2024.2.0,59.99865602685612,2026-01-19 15h28.04.325096 +0530,
25,0,26,o,1.5862435000017285,None,26,0,25,200.3376142000052,,,,,,,,,,,,,,,,,,,,,,,,,,,,,,,,,,,,,,,,,,,,,,,,,,200.32380680000642,200.3376142000052,200.83787820000725,200.82186140000704,200.82858349999879,200.83787820000725,200.83787820000725,200.83787820000725,202.43952870000794,Objects\345a.jpg,mid,o,1.5862435000017285,None,,,,,,,,00058,001,2026-01-19_15h27.36.538,MST_test,2024.2.0,59.99865602685612,2026-01-19 15h28.04.325096 +0530,
26,0,27,s,2.4241150000016205,None,27,0,26,202.45435480000742,,,,,,,,,,,,,,,,,,,,,,,,,,,,,,,,,,,,,,,,,,,,,,,,,,202.43993190000765,202.45435480000742,202.9834867000027,202.93901509999705,202.9806421000103,202.9834867000027,202.9834867000027,202.9834867000027,205.42326470000262,Objects\075b.jpg,pre,s,2.4241150000016205,None,,,,,,,,00058,001,2026-01-19_15h27.36.538,MST_test,2024.2.0,59.99865602685612,2026-01-19 15h28.04.325096 +0530,
27,0,28,n,1.799419000002672,None,28,0,27,205.43813120000414,,,,,,,,,,,,,,,,,,,,,,,,,,,,,,,,,,,,,,,,,,,,,,,,,,205.42353840000578,205.43813120000414,205.9691496000014,205.92213240001,205.96649580000667,205.9691496000014,205.9691496000014,205.9691496000014,207.77291080000577,Foils\086a.jpg,none,n,1.799419000002672,None,,,,,,,,00058,001,2026-01-19_15h27.36.538,MST_test,2024.2.0,59.99865602685612,2026-01-19 15h28.04.325096 +0530,
28,0,29,n,1.0417928000097163,None,29,0,28,207.7877012000099,,,,,,,,,,,,,,,,,,,,,,,,,,,,,,,,,,,,,,,,,,,,,,,,,,207.77323289999913,207.7877012000099,208.31092479999643,208.2723360000091,208.30839879999985,208.31092479999643,208.31092479999643,208.31092479999643,209.35626060000504,Foils\101b.jpg,none,n,1.0417928000097163,None,,,,,,,,00058,001,2026-01-19_15h27.36.538,MST_test,2024.2.0,59.99865602685612,2026-01-19 15h28.04.325096 +0530,
29,0,30,o,1.7053263000125298,None,30,0,29,209.37097010000434,,,,,,,,,,,,,,,,,,,,,,,,,,,,,,,,,,,,,,,,,,,,,,,,,,209.35669939999934,209.37097010000434,209.87139080000634,209.8555844000075,209.8613658000104,209.87139080000634,209.87139080000634,209.87139080000634,211.58983779999835,Objects\152a.jpg,mid,o,1.7053263000125298,None,,,,,,,,00058,001,2026-01-19_15h27.36.538,MST_test,2024.2.0,59.99865602685612,2026-01-19 15h28.04.325096 +0530,
30,0,31,n,1.879578699998092,None,31,0,30,211.60432810000202,,,,,,,,,,,,,,,,,,,,,,,,,,,,,,,,,,,,,,,,,,,,,,,,,,211.59012470000016,211.60432810000202,212.10484179999912,212.08882640000957,212.09766900000977,212.10484179999912,212.10484179999912,212.10484179999912,213.98959769999783,Objects\054a.jpg,mid,n,1.879578699998092,None,,,,,,,,00058,001,2026-01-19_15h27.36.538,MST_test,2024.2.0,59.99865602685612,2026-01-19 15h28.04.325096 +0530,
31,0,32,o,2.3221716999978526,None,32,0,31,214.0042620000022,,,,,,,,,,,,,,,,,,,,,,,,,,,,,,,,,,,,,,,,,,,,,,,,,,213.98994050000329,214.0042620000022,214.54289569999673,214.48880380000628,214.54038500000024,214.54289569999673,214.54289569999673,214.54289569999673,216.87302040000213,Objects\078b.jpg,mid,o,2.3221716999978526,None,,,,,,,,00058,001,2026-01-19_15h27.36.538,MST_test,2024.2.0,59.99865602685612,2026-01-19 15h28.04.325096 +0530,
32,0,33,s,2.925183500003186,None,33,0,32,216.88784110000415,,,,,,,,,,,,,,,,,,,,,,,,,,,,,,,,,,,,,,,,,,,,,,,,,,216.87329740000132,216.88784110000415,217.3877785000077,217.37162990000797,217.37822140000935,217.3877785000077,217.3877785000077,217.3877785000077,220.32336370000849,Objects\050a.jpg,mid,s,2.925183500003186,None,,,,,,,,00058,001,2026-01-19_15h27.36.538,MST_test,2024.2.0,59.99865602685612,2026-01-19 15h28.04.325096 +0530,
33,0,34,s,2.091136599992751,None,34,0,33,220.337569299998,,,,,,,,,,,,,,,,,,,,,,,,,,,,,,,,,,,,,,,,,,,,,,,,,,220.32366160000674,220.337569299998,220.8377143000107,220.82209220000368,220.82977769999707,220.8377143000107,220.8377143000107,220.8377143000107,222.94040479999967,Objects\103a.jpg,pre,s,2.091136599992751,None,,,,,,,,00058,001,2026-01-19_15h27.36.538,MST_test,2024.2.0,59.99865602685612,2026-01-19 15h28.04.325096 +0530,
34,0,35,o,1.2646995999966748,None,35,0,34,222.95430199999828,,,,,,,,,,,,,,,,,,,,,,,,,,,,,,,,,,,,,,,,,,,,,,,,,,222.94073149999895,222.95430199999828,223.45504220000294,223.4385551000014,223.44653450000624,223.45504220000294,223.45504220000294,223.45504220000294,224.723029700006,Objects\352a.jpg,mid,o,1.2646995999966748,None,,,,,,,,00058,001,2026-01-19_15h27.36.538,MST_test,2024.2.0,59.99865602685612,2026-01-19 15h28.04.325096 +0530,
35,0,36,s,1.9631988000037381,None,36,0,35,224.73755950000486,,,,,,,,,,,,,,,,,,,,,,,,,,,,,,,,,,,,,,,,,,,,,,,,,,224.7232781000057,224.73755950000486,225.23801909999747,225.22221480000007,225.2294597,225.23801909999747,225.23801909999747,225.23801909999747,227.20647360000294,Objects\272a.jpg,pre,s,1.9631988000037381,None,,,,,,,,00058,001,2026-01-19_15h27.36.538,MST_test,2024.2.0,59.99865602685612,2026-01-19 15h28.04.325096 +0530,
36,0,37,s,3.2447603999899,None,37,0,36,227.22110870000324,,,,,,,,,,,,,,,,,,,,,,,,,,,,,,,,,,,,,,,,,,,,,,,,,,227.2067734000011,227.22110870000324,227.74735410000721,227.70537219999824,227.74459610000486,227.74735410000721,227.74735410000721,227.74735410000721,231.00660710000375,Objects\191b.jpg,post,s,3.2447603999899,None,,,,,,,,00058,001,2026-01-19_15h27.36.538,MST_test,2024.2.0,59.99865602685612,2026-01-19 15h28.04.325096 +0530,
37,0,38,s,1.7466305999987526,None,38,0,37,231.0211175000004,,,,,,,,,,,,,,,,,,,,,,,,,,,,,,,,,,,,,,,,,,,,,,,,,,231.00704779999796,231.0211175000004,231.54107310000109,231.50581729999976,231.53841760000796,231.54107310000109,231.54107310000109,231.54107310000109,233.289789500006,Objects\310b.jpg,pre,s,1.7466305999987526,None,,,,,,,,00058,001,2026-01-19_15h27.36.538,MST_test,2024.2.0,59.99865602685612,2026-01-19 15h28.04.325096 +0530,
38,0,39,s,2.99510129999544,None,39,0,38,233.30420310000773,,,,,,,,,,,,,,,,,,,,,,,,,,,,,,,,,,,,,,,,,,,,,,,,,,233.29011870000977,233.30420310000773,233.82200430000375,233.78903310000896,233.81847990000097,233.82200430000375,233.82200430000375,233.82200430000375,236.82296479999786,Objects\168b.jpg,mid,s,2.99510129999544,None,,,,,,,,00058,001,2026-01-19_15h27.36.538,MST_test,2024.2.0,59.99865602685612,2026-01-19 15h28.04.325096 +0530,
39,0,40,n,1.363542300008703,None,40,0,39,236.83756460000586,,,,,,,,,,,,,,,,,,,,,,,,,,,,,,,,,,,,,,,,,,,,,,,,,,236.82326699999976,236.83756460000586,237.44411680000485,237.32181020001008,237.4412059000024,237.44411680000485,237.44411680000485,237.44411680000485,238.82276300000376,Foils\049a.jpg,none,n,1.363542300008703,None,,,,,,,,00058,001,2026-01-19_15h27.36.538,MST_test,2024.2.0,59.99865602685612,2026-01-19 15h28.04.325096 +0530,
40,0,41,n,1.7973120999959065,None,41,0,40,238.83801180000592,,,,,,,,,,,,,,,,,,,,,,,,,,,,,,,,,,,,,,,,,,,,,,,,,,238.82301059999736,238.83801180000592,239.362438199998,239.32197740000265,239.35924220000743,239.362438199998,239.362438199998,239.362438199998,241.1731165000092,Foils\042a.jpg,none,n,1.7973120999959065,None,,,,,,,,00058,001,2026-01-19_15h27.36.538,MST_test,2024.2.0,59.99865602685612,2026-01-19 15h28.04.325096 +0530,
41,0,42,n,1.0144568999967305,None,42,0,41,241.1879367000074,,,,,,,,,,,,,,,,,,,,,,,,,,,,,,,,,,,,,,,,,,,,,,,,,,241.1734398999979,241.1879367000074,241.70630459999666,241.67182740000135,241.7038165999984,241.70630459999666,241.70630459999666,241.70630459999666,242.72312960001,Foils\090a.jpg,none,n,1.0144568999967305,None,,,,,,,,00058,001,2026-01-19_15h27.36.538,MST_test,2024.2.0,59.99865602685612,2026-01-19 15h28.04.325096 +0530,
42,0,43,o,1.0978297000110615,None,43,0,42,242.7375805000047,,,,,,,,,,,,,,,,,,,,,,,,,,,,,,,,,,,,,,,,,,,,,,,,,,242.72342000000936,242.7375805000047,243.23820669999986,243.2218775000074,243.2297763000097,243.23820669999986,243.23820669999986,243.23820669999986,244.33989840000868,Objects\181a.jpg,mid,o,1.0978297000110615,None,,,,,,,,00058,001,2026-01-19_15h27.36.538,MST_test,2024.2.0,59.99865602685612,2026-01-19 15h28.04.325096 +0530,
43,0,44,s,2.9419516999914777,None,44,0,43,244.35449030000018,,,,,,,,,,,,,,,,,,,,,,,,,,,,,,,,,,,,,,,,,,,,,,,,,,244.34026150000864,244.35449030000018,244.8905270999967,244.83892360000755,244.88804590000655,244.8905270999967,244.8905270999967,244.8905270999967,247.83928990000277,Objects\245b.jpg,post,s,2.9419516999914777,None,,,,,,,,00058,001,2026-01-19_15h27.36.538,MST_test,2024.2.0,59.99865602685612,2026-01-19 15h28.04.325096 +0530,
44,0,45,s,3.46993379999185,None,45,0,44,247.85449870000593,,,,,,,,,,,,,,,,,,,,,,,,,,,,,,,,,,,,,,,,,,,,,,,,,,247.83958300000813,247.85449870000593,248.35472570000275,248.3388993999979,248.34392470000603,248.35472570000275,248.35472570000275,248.35472570000275,251.8393170000054,Objects\270a.jpg,mid,s,3.46993379999185,None,,,,,,,,00058,001,2026-01-19_15h27.36.538,MST_test,2024.2.0,59.99865602685612,2026-01-19 15h28.04.325096 +0530,
45,0,46,o,1.3101255999936257,None,46,0,45,251.85452560000704,,,,,,,,,,,,,,,,,,,,,,,,,,,,,,,,,,,,,,,,,,,,,,,,,,251.8397025000013,251.85452560000704,252.35464570000477,252.338522200007,252.3446971000085,252.35464570000477,252.35464570000477,252.35464570000477,253.67351449999842,Objects\186a.jpg,mid,o,1.3101255999936257,None,,,,,,,,00058,001,2026-01-19_15h27.36.538,MST_test,2024.2.0,59.99865602685612,2026-01-19 15h28.04.325096 +0530,
46,0,47,o,1.1564268999936758,None,47,0,46,253.68760089999705,,,,,,,,,,,,,,,,,,,,,,,,,,,,,,,,,,,,,,,,,,,,,,,,,,253.67379390000133,253.68760089999705,254.1881288000004,254.17226639999717,254.181373600004,254.1881288000004,254.1881288000004,254.1881288000004,255.35642160000862,Objects\275a.jpg,pre,o,1.1564268999936758,None,,,,,,,,00058,001,2026-01-19_15h27.36.538,MST_test,2024.2.0,59.99865602685612,2026-01-19 15h28.04.325096 +0530,
47,0,48,o,1.8335828999988735,None,48,0,47,255.37111410000944,,,,,,,,,,,,,,,,,,,,,,,,,,,,,,,,,,,,,,,,,,,,,,,,,,255.35667210000975,255.37111410000944,255.87127340000006,255.85544330000994,255.86323470000934,255.87127340000006,255.87127340000006,255.87127340000006,257.70720060000895,Objects\239a.jpg,pre,o,1.8335828999988735,None,,,,,,,,00058,001,2026-01-19_15h27.36.538,MST_test,2024.2.0,59.99865602685612,2026-01-19 15h28.04.325096 +0530,
48,0,49,o,1.6250147999962792,None,49,0,48,257.72133070000564,,,,,,,,,,,,,,,,,,,,,,,,,,,,,,,,,,,,,,,,,,,,,,,,,,257.70759060001,257.72133070000564,258.23908690000826,258.20552150000003,258.2360444000078,258.23908690000826,258.23908690000826,258.23908690000826,259.87274750000506,Objects\339b.jpg,post,o,1.6250147999962792,None,,,,,,,,00058,001,2026-01-19_15h27.36.538,MST_test,2024.2.0,59.99865602685612,2026-01-19 15h28.04.325096 +0530,
49,0,50,o,1.9844396999978926,None,50,0,49,259.8875946000044,,,,,,,,,,,,,,,,,,,,,,,,,,,,,,,,,,,,,,,,,,,,,,,,,,259.87303509999765,259.8875946000044,260.4230536999967,260.3722617000021,260.4197176000016,260.4230536999967,260.4230536999967,260.4230536999967,262.423586600009,Objects\215b.jpg,mid,o,1.9844396999978926,None,,,,,,,,00058,001,2026-01-19_15h27.36.538,MST_test,2024.2.0,59.99865602685612,2026-01-19 15h28.04.325096 +0530,
50,0,51,s,3.3402936999918893,None,51,0,50,262.4377597999992,,,,,,,,,,,,,,,,,,,,,,,,,,,,,,,,,,,,,,,,,,,,,,,,,,262.42393450000964,262.4377597999992,262.97949330000847,262.9228154000011,262.976576800007,262.97949330000847,262.97949330000847,262.97949330000847,266.32250419999764,Objects\228b.jpg,post,s,3.3402936999918893,None,,,,,,,,00058,001,2026-01-19_15h27.36.538,MST_test,2024.2.0,59.99865602685612,2026-01-19 15h28.04.325096 +0530,
51,0,52,n,1.1316547000024002,None,52,0,51,266.3376397999964,,,,,,,,,,,,,,,,,,,,,,,,,,,,,,,,,,,,,,,,,,,,,,,,,,266.3227404000063,266.3376397999964,266.86882050000713,266.8224675000092,266.86600270000054,266.86882050000713,266.86882050000713,266.86882050000713,268.0066433000029,Foils\066a.jpg,none,n,1.1316547000024002,None,,,,,,,,00058,001,2026-01-19_15h27.36.538,MST_test,2024.2.0,59.99865602685612,2026-01-19 15h28.04.325096 +0530,
52,0,53,s,1.801751199993305,None,53,0,52,268.02119149999635,,,,,,,,,,,,,,,,,,,,,,,,,,,,,,,,,,,,,,,,,,,,,,,,,,268.0070146000071,268.02119149999635,268.57415060000494,268.50549630000023,268.57158970000455,268.57415060000494,268.57415060000494,268.57415060000494,270.38967020000564,Foils\034a.jpg,none,s,1.801751199993305,None,,,,,,,,00058,001,2026-01-19_15h27.36.538,MST_test,2024.2.0,59.99865602685612,2026-01-19 15h28.04.325096 +0530,
53,0,54,n,1.1953077000071062,None,54,0,53,270.404085400005,,,,,,,,,,,,,,,,,,,,,,,,,,,,,,,,,,,,,,,,,,,,,,,,,,270.390012200005,270.404085400005,270.9247638000088,270.8888683999976,270.92095939999854,270.9247638000088,270.9247638000088,270.9247638000088,272.1228450000053,Foils\f7.jpg,none,n,1.1953077000071062,None,,,,,,,,00058,001,2026-01-19_15h27.36.538,MST_test,2024.2.0,59.99865602685612,2026-01-19 15h28.04.325096 +0530,
54,0,55,s,2.730965800001286,None,55,0,54,272.13785500000813,,,,,,,,,,,,,,,,,,,,,,,,,,,,,,,,,,,,,,,,,,,,,,,,,,272.1230695999984,272.13785500000813,272.63822380000784,272.6223895000003,272.6291782000044,272.63822380000784,272.63822380000784,272.63822380000784,275.3730344000069,Objects\317a.jpg,post,s,2.730965800001286,None,,,,,,,,00058,001,2026-01-19_15h27.36.538,MST_test,2024.2.0,59.99865602685612,2026-01-19 15h28.04.325096 +0530,
55,0,56,s,1.6587504999915836,None,56,0,55,275.3877797000023,,,,,,,,,,,,,,,,,,,,,,,,,,,,,,,,,,,,,,,,,,,,,,,,,,275.3734807000001,275.3877797000023,275.91719300000113,275.8726820000011,275.9142098000011,275.91719300000113,275.91719300000113,275.91719300000113,277.58952090000093,Objects\332b.jpg,post,s,1.6587504999915836,None,,,,,,,,00058,001,2026-01-19_15h27.36.538,MST_test,2024.2.0,59.99865602685612,2026-01-19 15h28.04.325096 +0530,
56,0,57,o,1.0129917000012938,None,57,0,56,277.6041877000098,,,,,,,,,,,,,,,,,,,,,,,,,,,,,,,,,,,,,,,,,,,,,,,,,,277.58991969999624,277.6041877000098,278.1239254999964,278.08900639999774,278.11994699999923,278.1239254999964,278.1239254999964,278.1239254999964,279.14016500000434,Objects\353b.jpg,mid,o,1.0129917000012938,None,,,,,,,,00058,001,2026-01-19_15h27.36.538,MST_test,2024.2.0,59.99865602685612,2026-01-19 15h28.04.325096 +0530,
57,0,58,s,2.433313300003647,None,58,0,57,279.1542228000035,,,,,,,,,,,,,,,,,,,,,,,,,,,,,,,,,,,,,,,,,,,,,,,,,,279.1404143999971,279.1542228000035,279.6546170000074,279.6386085999984,279.64730310000596,279.6546170000074,279.6546170000074,279.6546170000074,282.09045329999935,Objects\157a.jpg,mid,s,2.433313300003647,None,,,,,,,,00058,001,2026-01-19_15h27.36.538,MST_test,2024.2.0,59.99865602685612,2026-01-19 15h28.04.325096 +0530,
58,0,59,o,1.4501497000019299,None,59,0,58,282.10431660000177,,,,,,,,,,,,,,,,,,,,,,,,,,,,,,,,,,,,,,,,,,,,,,,,,,282.0907997000031,282.10431660000177,282.6054607999977,282.588648200006,282.596552300005,282.6054607999977,282.6054607999977,282.6054607999977,284.07302940000955,Objects\371a.jpg,pre,o,1.4501497000019299,None,,,,,,,,00058,001,2026-01-19_15h27.36.538,MST_test,2024.2.0,59.99865602685612,2026-01-19 15h28.04.325096 +0530,
59,0,60,n,2.3652337999956217,None,60,0,59,284.08783309999853,,,,,,,,,,,,,,,,,,,,,,,,,,,,,,,,,,,,,,,,,,,,,,,,,,284.07340520000434,284.08783309999853,284.61170170000696,284.5720885000046,284.6087572999968,284.61170170000696,284.61170170000696,284.61170170000696,286.98961980000604,Foils\074a.jpg,none,n,2.3652337999956217,None,,,,,,,,00058,001,2026-01-19_15h27.36.538,MST_test,2024.2.0,59.99865602685612,2026-01-19 15h28.04.325096 +0530,
60,0,61,n,2.5028845999913756,None,61,0,60,287.0042287999968,,,,,,,,,,,,,,,,,,,,,,,,,,,,,,,,,,,,,,,,,,,,,,,,,,286.9900675000099,287.0042287999968,287.5300478999998,287.4886689999985,287.52749819999735,287.5300478999998,287.5300478999998,287.5300478999998,290.0397462999972,Foils\093b.jpg,none,n,2.5028845999913756,None,,,,,,,,00058,001,2026-01-19_15h27.36.538,MST_test,2024.2.0,59.99865602685612,2026-01-19 15h28.04.325096 +0530,
61,0,62,o,1.278069800013327,None,62,0,61,290.0542720000085,,,,,,,,,,,,,,,,,,,,,,,,,,,,,,,,,,,,,,,,,,,,,,,,,,290.0401128000085,290.0542720000085,290.55459379999957,290.53900180000346,290.5458998000104,290.55459379999957,290.55459379999957,290.55459379999957,291.839433000001,Objects\253a.jpg,post,o,1.278069800013327,None,,,,,,,,00058,001,2026-01-19_15h27.36.538,MST_test,2024.2.0,59.99865602685612,2026-01-19 15h28.04.325096 +0530,
62,0,63,o,1.0370189999957802,None,63,0,62,291.85419140000886,,,,,,,,,,,,,,,,,,,,,,,,,,,,,,,,,,,,,,,,,,,,,,,,,,291.83974820000003,291.85419140000886,292.35487380000995,292.33890980000433,292.34427210000285,292.35487380000995,292.35487380000995,292.35487380000995,293.4061950000032,Objects\156a.jpg,pre,o,1.0370189999957802,None,,,,,,,,00058,001,2026-01-19_15h27.36.538,MST_test,2024.2.0,59.99865602685612,2026-01-19 15h28.04.325096 +0530,
63,0,64,o,0.8738153000012971,None,64,0,63,293.4209782000107,,,,,,,,,,,,,,,,,,,,,,,,,,,,,,,,,,,,,,,,,,,,,,,,,,293.40664590000233,293.4209782000107,293.95819240000856,293.90588230000867,293.95516650000354,293.95819240000856,293.95819240000856,293.95819240000856,294.8398268000019,Objects\224b.jpg,pre,o,0.8738153000012971,None,,,,,,,,00058,001,2026-01-19_15h27.36.538,MST_test,2024.2.0,59.99865602685612,2026-01-19 15h28.04.325096 +0530,
64,0,65,o,1.3006211999891093,None,65,0,64,294.85440850000305,,,,,,,,,,,,,,,,,,,,,,,,,,,,,,,,,,,,,,,,,,,,,,,,,,294.8402209000051,294.85440850000305,295.3548324000003,295.3387233000103,295.3477963000041,295.3548324000003,295.3548324000003,295.3548324000003,296.6724663000059,Objects\235a.jpg,pre,o,1.3006211999891093,None,,,,,,,,00058,001,2026-01-19_15h27.36.538,MST_test,2024.2.0,59.99865602685612,2026-01-19 15h28.04.325096 +0530,
65,0,66,o,1.0748560999927577,None,66,0,65,296.68771320000815,,,,,,,,,,,,,,,,,,,,,,,,,,,,,,,,,,,,,,,,,,,,,,,,,,296.67272620000585,296.68771320000815,297.2292343000008,297.1721458999964,297.22606610000366,297.2292343000008,297.2292343000008,297.2292343000008,298.3062049,Objects\298b.jpg,post,o,1.0748560999927577,None,,,,,,,,00058,001,2026-01-19_15h27.36.538,MST_test,2024.2.0,59.99865602685612,2026-01-19 15h28.04.325096 +0530,
66,0,67,s,4.519214100000681,None,67,0,66,298.32102329999907,,,,,,,,,,,,,,,,,,,,,,,,,,,,,,,,,,,,,,,,,,,,,,,,,,298.3065331999969,298.32102329999907,298.8404213000031,298.80552400001034,298.83799420000287,298.8404213000031,298.8404213000031,298.8404213000031,303.37266130000353,Objects\065b.jpg,pre,s,4.519214100000681,None,,,,,,,,00058,001,2026-01-19_15h27.36.538,MST_test,2024.2.0,59.99865602685612,2026-01-19 15h28.04.325096 +0530,
67,0,68,n,1.8540357000019867,None,68,0,67,303.38767989999906,,,,,,,,,,,,,,,,,,,,,,,,,,,,,,,,,,,,,,,,,,,,,,,,,,303.3728917999979,303.38767989999906,303.91396040000836,303.8719609999971,303.91120980000414,303.91396040000836,303.91396040000836,303.91396040000836,305.7728602999996,Objects\249b.jpg,mid,n,1.8540357000019867,None,,,,,,,,00058,001,2026-01-19_15h27.36.538,MST_test,2024.2.0,59.99865602685612,2026-01-19 15h28.04.325096 +0530,
68,0,69,o,3.9352424000098836,None,69,0,68,305.7875755999994,,,,,,,,,,,,,,,,,,,,,,,,,,,,,,,,,,,,,,,,,,,,,,,,,,305.77329050000117,305.7875755999994,306.28810740000335,306.27210050000576,306.28186780000397,306.28810740000335,306.28810740000335,306.28810740000335,310.2391927999997,Objects\096a.jpg,post,o,3.9352424000098836,None,,,,,,,,00058,001,2026-01-19_15h27.36.538,MST_test,2024.2.0,59.99865602685612,2026-01-19 15h28.04.325096 +0530,
69,0,70,o,1.2377322999964235,None,70,0,69,310.2544728000066,,,,,,,,,,,,,,,,,,,,,,,,,,,,,,,,,,,,,,,,,,,,,,,,,,310.2394461000076,310.2544728000066,310.7858741000091,310.73900060000597,310.783224800005,310.7858741000091,310.7858741000091,310.7858741000091,312.0397277000011,Objects\219b.jpg,post,o,1.2377322999964235,None,,,,,,,,00058,001,2026-01-19_15h27.36.538,MST_test,2024.2.0,59.99865602685612,2026-01-19 15h28.04.325096 +0530,
70,0,71,s,1.7896019000036176,None,71,0,70,312.05422770000587,,,,,,,,,,,,,,,,,,,,,,,,,,,,,,,,,,,,,,,,,,,,,,,,,,312.0400634999969,312.05422770000587,312.5546824000048,312.5386257000064,312.5460940000048,312.5546824000048,312.5546824000048,312.5546824000048,314.3559899000102,Objects\280a.jpg,mid,s,1.7896019000036176,None,,,,,,,,00058,001,2026-01-19_15h27.36.538,MST_test,2024.2.0,59.99865602685612,2026-01-19 15h28.04.325096 +0530,
71,0,72,o,2.623011800009408,None,72,0,71,314.3710457999987,,,,,,,,,,,,,,,,,,,,,,,,,,,,,,,,,,,,,,,,,,,,,,,,,,314.35625399999844,314.3710457999987,314.88851410000643,314.855355599997,314.88565799999924,314.88851410000643,314.88851410000643,314.88851410000643,317.52301240000816,Objects\113b.jpg,pre,o,2.623011800009408,None,,,,,,,,00058,001,2026-01-19_15h27.36.538,MST_test,2024.2.0,59.99865602685612,2026-01-19 15h28.04.325096 +0530,
72,0,73,o,1.5517518000124255,None,73,0,72,317.5375243000017,,,,,,,,,,,,,,,,,,,,,,,,,,,,,,,,,,,,,,,,,,,,,,,,,,317.523405800006,317.5375243000017,318.06484869999986,318.0223694000015,318.0623588000017,318.06484869999986,318.06484869999986,318.06484869999986,319.62268090000725,Objects\234b.jpg,mid,o,1.5517518000124255,None,,,,,,,,00058,001,2026-01-19_15h27.36.538,MST_test,2024.2.0,59.99865602685612,2026-01-19 15h28.04.325096 +0530,
73,0,74,s,1.278705999997328,None,74,0,73,319.6375704000093,,,,,,,,,,,,,,,,,,,,,,,,,,,,,,,,,,,,,,,,,,,,,,,,,,319.6228908000048,319.6375704000093,320.1383443000086,320.1223520000058,320.1274418999965,320.1383443000086,320.1383443000086,320.1383443000086,321.4231318000093,Objects\364a.jpg,post,s,1.278705999997328,None,,,,,,,,00058,001,2026-01-19_15h27.36.538,MST_test,2024.2.0,59.99865602685612,2026-01-19 15h28.04.325096 +0530,
74,0,75,n,1.2136065999948187,None,75,0,74,321.4375403000013,,,,,,,,,,,,,,,,,,,,,,,,,,,,,,,,,,,,,,,,,,,,,,,,,,321.4234154000005,321.4375403000013,321.93822690000525,321.92223310000554,321.92800559999887,321.93822690000525,321.93822690000525,321.93822690000525,323.1565136999998,Objects\257a.jpg,post,n,1.2136065999948187,None,,,,,,,,00058,001,2026-01-19_15h27.36.538,MST_test,2024.2.0,59.99865602685612,2026-01-19 15h28.04.325096 +0530,
75,0,76,n,1.3038903000124265,None,76,0,75,323.17095790000167,,,,,,,,,,,,,,,,,,,,,,,,,,,,,,,,,,,,,,,,,,,,,,,,,,323.1568883,323.17095790000167,323.6881976000004,323.65548950000084,323.68500029999996,323.6881976000004,323.6881976000004,323.6881976000004,325.00636980000127,Foils\f6.jpg,none,n,1.3038903000124265,None,,,,,,,,00058,001,2026-01-19_15h27.36.538,MST_test,2024.2.0,59.99865602685612,2026-01-19 15h28.04.325096 +0530,
76,0,77,n,2.4783108999981778,None,77,0,76,325.02102660000673,,,,,,,,,,,,,,,,,,,,,,,,,,,,,,,,,,,,,,,,,,,,,,,,,,325.00662790000206,325.02102660000673,325.5458890000009,325.50543099999777,325.5435101000039,325.5458890000009,325.5458890000009,325.5458890000009,328.0392988000094,Foils\065a.jpg,none,n,2.4783108999981778,None,,,,,,,,00058,001,2026-01-19_15h27.36.538,MST_test,2024.2.0,59.99865602685612,2026-01-19 15h28.04.325096 +0530,
77,0,78,s,1.31460280000465,None,78,0,77,328.0544307000091,,,,,,,,,,,,,,,,,,,,,,,,,,,,,,,,,,,,,,,,,,,,,,,,,,328.0396394999989,328.0544307000091,328.5733221999981,328.53859609999927,328.5706854000018,328.5733221999981,328.5733221999981,328.5733221999981,329.89041259999794,Objects\172b.jpg,mid,s,1.31460280000465,None,,,,,,,,00058,001,2026-01-19_15h27.36.538,MST_test,2024.2.0,59.99865602685612,2026-01-19 15h28.04.325096 +0530,
78,0,79,s,1.4996066000021528,None,79,0,78,329.90440240000316,,,,,,,,,,,,,,,,,,,,,,,,,,,,,,,,,,,,,,,,,,,,,,,,,,329.89081360001,329.90440240000316,330.40493170000263,330.3883779000025,330.3965451999975,330.40493170000263,330.40493170000263,330.40493170000263,331.90736700000707,Objects\324a.jpg,mid,s,1.4996066000021528,None,,,,,,,,00058,001,2026-01-19_15h27.36.538,MST_test,2024.2.0,59.99865602685612,2026-01-19 15h28.04.325096 +0530,
79,0,80,o,4.252564800000982,None,80,0,79,331.9211439000064,,,,,,,,,,,,,,,,,,,,,,,,,,,,,,,,,,,,,,,,,,,,,,,,,,331.90768350000144,331.9211439000064,332.4358085999993,332.4054606999998,332.43298969999887,332.4358085999993,332.4358085999993,332.4358085999993,336.690128000002,Objects\062b.jpg,post,o,4.252564800000982,None,,,,,,,,00058,001,2026-01-19_15h27.36.538,MST_test,2024.2.0,59.99865602685612,2026-01-19 15h28.04.325096 +0530,
80,0,81,n,1.1851102999935392,None,81,0,80,336.7047791000077,,,,,,,,,,,,,,,,,,,,,,,,,,,,,,,,,,,,,,,,,,,,,,,,,,336.69033490000584,336.7047791000077,337.23088620000635,337.1884449000063,337.2280131000007,337.23088620000635,337.23088620000635,337.23088620000635,338.4229151000036,Foils\009a.jpg,none,n,1.1851102999935392,None,,,,,,,,00058,001,2026-01-19_15h27.36.538,MST_test,2024.2.0,59.99865602685612,2026-01-19 15h28.04.325096 +0530,
81,0,82,n,1.3390241000015521,None,82,0,81,338.43762229999993,,,,,,,,,,,,,,,,,,,,,,,,,,,,,,,,,,,,,,,,,,,,,,,,,,338.423205900006,338.43762229999993,338.9654986000096,338.92239079999854,338.9629574999999,338.9654986000096,338.9654986000096,338.9654986000096,340.30651190000935,Objects\138b.jpg,post,n,1.3390241000015521,None,,,,,,,,00058,001,2026-01-19_15h27.36.538,MST_test,2024.2.0,59.99865602685612,2026-01-19 15h28.04.325096 +0530,
82,0,83,o,1.3630160000029719,None,83,0,82,340.3207642000052,,,,,,,,,,,,,,,,,,,,,,,,,,,,,,,,,,,,,,,,,,,,,,,,,,340.3068306000059,340.3207642000052,340.8212968000007,340.8060763999965,340.8126338000002,340.8212968000007,340.8212968000007,340.8212968000007,342.18991529999766,Objects\015a.jpg,post,o,1.3630160000029719,None,,,,,,,,00058,001,2026-01-19_15h27.36.538,MST_test,2024.2.0,59.99865602685612,2026-01-19 15h28.04.325096 +0530,
83,0,84,s,1.540784500000882,None,84,0,83,342.20427670000936,,,,,,,,,,,,,,,,,,,,,,,,,,,,,,,,,,,,,,,,,,,,,,,,,,342.1902337000065,342.20427670000936,342.7239331000019,342.6886280000035,342.7207472000009,342.7239331000019,342.7239331000019,342.7239331000019,344.2732407000003,Objects\210b.jpg,pre,s,1.540784500000882,None,,,,,,,,00058,001,2026-01-19_15h27.36.538,MST_test,2024.2.0,59.99865602685612,2026-01-19 15h28.04.325096 +0530,
84,0,85,n,1.5995140000013635,None,85,0,84,344.2881190000044,,,,,,,,,,,,,,,,,,,,,,,,,,,,,,,,,,,,,,,,,,,,,,,,,,344.2736038000003,344.2881190000044,344.83286999999837,344.7719591000059,344.82952990000194,344.83286999999837,344.83286999999837,344.83286999999837,346.4398341000051,Foils\098a.jpg,none,n,1.5995140000013635,None,,,,,,,,00058,001,2026-01-19_15h27.36.538,MST_test,2024.2.0,59.99865602685612,2026-01-19 15h28.04.325096 +0530,
85,0,86,o,1.198125800001435,None,86,0,85,346.45421660000284,,,,,,,,,,,,,,,,,,,,,,,,,,,,,,,,,,,,,,,,,,,,,,,,,,346.44022610000684,346.45421660000284,346.9543971000094,346.93868010000733,346.9471579000092,346.9543971000094,346.9543971000094,346.9543971000094,348.1559993999981,Objects\101a.jpg,post,o,1.198125800001435,None,,,,,,,,00058,001,2026-01-19_15h27.36.538,MST_test,2024.2.0,59.99865602685612,2026-01-19 15h28.04.325096 +0530,
86,0,87,s,2.365408399986336,None,87,0,86,348.1709802999976,,,,,,,,,,,,,,,,,,,,,,,,,,,,,,,,,,,,,,,,,,,,,,,,,,348.1563507000101,348.1709802999976,348.6902121000021,348.65541780000785,348.6878769000032,348.6902121000021,348.6902121000021,348.6902121000021,351.07266950000485,Objects\166b.jpg,mid,s,2.365408399986336,None,,,,,,,,00058,001,2026-01-19_15h27.36.538,MST_test,2024.2.0,59.99865602685612,2026-01-19 15h28.04.325096 +0530,
87,0,88,o,1.179538099997444,None,88,0,87,351.0876106000069,,,,,,,,,,,,,,,,,,,,,,,,,,,,,,,,,,,,,,,,,,,,,,,,,,351.073026500002,351.0876106000069,351.5881309999968,351.57205129999784,351.5792708000081,351.5881309999968,351.5881309999968,351.5881309999968,352.77323360000446,Objects\049a.jpg,mid,o,1.179538099997444,None,,,,,,,,00058,001,2026-01-19_15h27.36.538,MST_test,2024.2.0,59.99865602685612,2026-01-19 15h28.04.325096 +0530,
88,0,89,o,1.208178399989265,None,89,0,88,352.78756680000515,,,,,,,,,,,,,,,,,,,,,,,,,,,,,,,,,,,,,,,,,,,,,,,,,,352.7735001999972,352.78756680000515,353.28778969999985,353.2719509000017,353.2795157000073,353.28778969999985,353.28778969999985,353.28778969999985,354.5061124000058,Objects\086a.jpg,pre,o,1.208178399989265,None,,,,,,,,00058,001,2026-01-19_15h27.36.538,MST_test,2024.2.0,59.99865602685612,2026-01-19 15h28.04.325096 +0530,
89,0,90,s,1.8753905999910785,None,90,0,89,354.52134320000187,,,,,,,,,,,,,,,,,,,,,,,,,,,,,,,,,,,,,,,,,,,,,,,,,,354.5063885999989,354.52134320000187,355.02124610000465,355.00523700000485,355.01069070000085,355.02124610000465,355.02124610000465,355.02124610000465,356.90666380000766,Objects\047a.jpg,pre,s,1.8753905999910785,None,,,,,,,,00058,001,2026-01-19_15h27.36.538,MST_test,2024.2.0,59.99865602685612,2026-01-19 15h28.04.325096 +0530,
90,0,91,n,0.9049992000072962,None,91,0,90,356.9213155000034,,,,,,,,,,,,,,,,,,,,,,,,,,,,,,,,,,,,,,,,,,,,,,,,,,356.9070126000006,356.9213155000034,357.44655140000395,357.4055370999995,357.4435596999974,357.44655140000395,357.44655140000395,357.44655140000395,358.3562557999976,Foils\033a.jpg,none,n,0.9049992000072962,None,,,,,,,,00058,001,2026-01-19_15h27.36.538,MST_test,2024.2.0,59.99865602685612,2026-01-19 15h28.04.325096 +0530,
91,0,92,n,0.9346023999969475,None,92,0,91,358.3709560999996,,,,,,,,,,,,,,,,,,,,,,,,,,,,,,,,,,,,,,,,,,,,,,,,,,358.356586000009,358.3709560999996,358.88974340001005,358.8554911000101,358.88630070000363,358.88974340001005,358.88974340001005,358.88974340001005,359.8387528000021,Foils\020b.jpg,none,n,0.9346023999969475,None,,,,,,,,00058,001,2026-01-19_15h27.36.538,MST_test,2024.2.0,59.99865602685612,2026-01-19 15h28.04.325096 +0530,
92,0,93,s,3.8274472000048263,None,93,0,92,359.8541113000101,,,,,,,,,,,,,,,,,,,,,,,,,,,,,,,,,,,,,,,,,,,,,,,,,,359.8388657000032,359.8541113000101,360.38046549999854,360.3381431000016,360.37786180000694,360.38046549999854,360.38046549999854,360.38046549999854,364.22296780000033,Objects\162b.jpg,post,s,3.8274472000048263,None,,,,,,,,00058,001,2026-01-19_15h27.36.538,MST_test,2024.2.0,59.99865602685612,2026-01-19 15h28.04.325096 +0530,
93,0,94,o,2.959050200006459,None,94,0,93,364.2375105000101,,,,,,,,,,,,,,,,,,,,,,,,,,,,,,,,,,,,,,,,,,,,,,,,,,364.2233496999979,364.2375105000101,364.7374922000017,364.7212584000081,364.72589600000356,364.7374922000017,364.7374922000017,364.7374922000017,367.70630560000427,Objects\182a.jpg,pre,o,2.959050200006459,None,,,,,,,,00058,001,2026-01-19_15h27.36.538,MST_test,2024.2.0,59.99865602685612,2026-01-19 15h28.04.325096 +0530,
94,0,95,o,0.8744160000060219,None,95,0,94,367.7210608000023,,,,,,,,,,,,,,,,,,,,,,,,,,,,,,,,,,,,,,,,,,,,,,,,,,367.706686000005,367.7210608000023,368.2213644000003,368.2057252000086,368.2183883999969,368.2213644000003,368.2213644000003,368.2213644000003,369.1062384000106,Objects\248a.jpg,pre,o,0.8744160000060219,None,,,,,,,,00058,001,2026-01-19_15h27.36.538,MST_test,2024.2.0,59.99865602685612,2026-01-19 15h28.04.325096 +0530,
95,0,96,o,1.0490160999906948,None,96,0,95,369.1211057000037,,,,,,,,,,,,,,,,,,,,,,,,,,,,,,,,,,,,,,,,,,,,,,,,,,369.10657679999713,369.1211057000037,369.6547389000043,369.60499620001065,369.6514376999985,369.6547389000043,369.6547389000043,369.6547389000043,370.7069690000062,Objects\125b.jpg,mid,o,1.0490160999906948,None,,,,,,,,00058,001,2026-01-19_15h27.36.538,MST_test,2024.2.0,59.99865602685612,2026-01-19 15h28.04.325096 +0530,
96,0,97,s,2.788195300003281,None,97,0,96,370.7209319000103,,,,,,,,,,,,,,,,,,,,,,,,,,,,,,,,,,,,,,,,,,,,,,,,,,370.70733520000067,370.7209319000103,371.24433390000195,371.20552750000206,371.2414051000087,371.24433390000195,371.24433390000195,371.24433390000195,374.0398799000104,Objects\358b.jpg,pre,s,2.788195300003281,None,,,,,,,,00058,001,2026-01-19_15h27.36.538,MST_test,2024.2.0,59.99865602685612,2026-01-19 15h28.04.325096 +0530,
97,0,98,o,0.9013137000001734,None,98,0,97,374.05423940000765,,,,,,,,,,,,,,,,,,,,,,,,,,,,,,,,,,,,,,,,,,,,,,,,,,374.04017269999895,374.05423940000765,374.62763060000725,374.5388297000027,374.6247132999997,374.62763060000725,374.62763060000725,374.62763060000725,375.53934010000376,Objects\247b.jpg,mid,o,0.9013137000001734,None,,,,,,,,00058,001,2026-01-19_15h27.36.538,MST_test,2024.2.0,59.99865602685612,2026-01-19 15h28.04.325096 +0530,
98,0,99,o,1.27273850000347,None,99,0,98,375.5542758000083,,,,,,,,,,,,,,,,,,,,,,,,,,,,,,,,,,,,,,,,,,,,,,,,,,375.53972000000067,375.5542758000083,376.05468690001,376.03893049999897,376.045686700003,376.05468690001,376.05468690001,376.05468690001,377.34001430000353,Objects\216a.jpg,post,o,1.27273850000347,None,,,,,,,,00058,001,2026-01-19_15h27.36.538,MST_test,2024.2.0,59.99865602685612,2026-01-19 15h28.04.325096 +0530,
99,0,100,s,1.4421861000009812,None,100,0,99,377.35459750000155,,,,,,,,,,,,,,,,,,,,,,,,,,,,,,,,,,,,,,,,,,,,,,,,,,377.34034140000585,377.35459750000155,377.854430899999,377.83873109999695,377.8460136000067,377.854430899999,377.854430899999,377.854430899999,379.3062324000057,Objects\002a.jpg,post,s,1.4421861000009812,None,,,,,,,,00058,001,2026-01-19_15h27.36.538,MST_test,2024.2.0,59.99865602685612,2026-01-19 15h28.04.325096 +0530,
100,0,101,n,1.2430025000066962,None,101,0,100,379.3209133000055,,,,,,,,,,,,,,,,,,,,,,,,,,,,,,,,,,,,,,,,,,,,,,,,,,379.30646170000546,379.3209133000055,379.84503880000557,379.80546020000475,379.8411536000058,379.84503880000557,379.84503880000557,379.84503880000557,381.0904972999997,Objects\350b.jpg,post,n,1.2430025000066962,None,,,,,,,,00058,001,2026-01-19_15h27.36.538,MST_test,2024.2.0,59.99865602685612,2026-01-19 15h28.04.325096 +0530,
101,0,102,s,1.6968138000083854,None,102,0,101,381.1041915000096,,,,,,,,,,,,,,,,,,,,,,,,,,,,,,,,,,,,,,,,,,,,,,,,,,381.09073100000387,381.1041915000096,381.6227896000055,381.5887662000023,381.6192980000051,381.6227896000055,381.6227896000055,381.6227896000055,383.32304270000895,Objects\032b.jpg,pre,s,1.6968138000083854,None,,,,,,,,00058,001,2026-01-19_15h27.36.538,MST_test,2024.2.0,59.99865602685612,2026-01-19 15h28.04.325096 +0530,
102,0,103,n,0.9418640000076266,None,103,0,102,383.33797700000287,,,,,,,,,,,,,,,,,,,,,,,,,,,,,,,,,,,,,,,,,,,,,,,,,,383.3234494000062,383.33797700000287,383.8743666000082,383.82300869999744,383.87192700000014,383.8743666000082,383.8743666000082,383.8743666000082,384.8229980000033,Foils\002a.jpg,none,n,0.9418640000076266,None,,,,,,,,00058,001,2026-01-19_15h27.36.538,MST_test,2024.2.0,59.99865602685612,2026-01-19 15h28.04.325096 +0530,
103,0,104,o,1.102138100002776,None,104,0,103,384.8373794000072,,,,,,,,,,,,,,,,,,,,,,,,,,,,,,,,,,,,,,,,,,,,,,,,,,384.8232177000027,384.8373794000072,385.3379511000094,385.3227564999979,385.32881000000634,385.3379511000094,385.3379511000094,385.3379511000094,386.4560518000071,Objects\048a.jpg,mid,o,1.102138100002776,None,,,,,,,,00058,001,2026-01-19_15h27.36.538,MST_test,2024.2.0,59.99865602685612,2026-01-19 15h28.04.325096 +0530,
104,0,105,o,1.1330298999964725,None,105,0,104,386.4710485999967,,,,,,,,,,,,,,,,,,,,,,,,,,,,,,,,,,,,,,,,,,,,,,,,,,386.45638509999844,386.4710485999967,386.9716649000038,386.9554848999978,386.9617009000067,386.9716649000038,386.9716649000038,386.9716649000038,388.10717529999965,Objects\116a.jpg,post,o,1.1330298999964725,None,,,,,,,,00058,001,2026-01-19_15h27.36.538,MST_test,2024.2.0,59.99865602685612,2026-01-19 15h28.04.325096 +0530,
105,0,106,n,2.262570200007758,None,106,0,105,388.1214594000048,,,,,,,,,,,,,,,,,,,,,,,,,,,,,,,,,,,,,,,,,,,,,,,,,,388.10750160001044,388.1214594000048,388.649940400006,388.60556850000285,388.6471809000068,388.649940400006,388.649940400006,388.649940400006,390.92275379999774,Foils\058a.jpg,none,n,2.262570200007758,None,,,,,,,,00058,001,2026-01-19_15h27.36.538,MST_test,2024.2.0,59.99865602685612,2026-01-19 15h28.04.325096 +0530,
106,0,107,o,0.8661177000030875,None,107,0,106,390.9376504999964,,,,,,,,,,,,,,,,,,,,,,,,,,,,,,,,,,,,,,,,,,,,,,,,,,390.922985600002,390.9376504999964,391.43778390000807,391.42219720000867,391.4273919999978,391.43778390000807,391.43778390000807,391.43778390000807,392.306052800006,Objects\083a.jpg,mid,o,0.8661177000030875,None,,,,,,,,00058,001,2026-01-19_15h27.36.538,MST_test,2024.2.0,59.99865602685612,2026-01-19 15h28.04.325096 +0530,
107,0,108,s,1.1629684000072302,None,108,0,107,392.3207956999977,,,,,,,,,,,,,,,,,,,,,,,,,,,,,,,,,,,,,,,,,,,,,,,,,,392.3063892000064,392.3207956999977,392.82106159999967,392.8053088000015,392.81098150000616,392.82106159999967,392.82106159999967,392.82106159999967,393.9884785000031,Objects\094a.jpg,post,s,1.1629684000072302,None,,,,,,,,00058,001,2026-01-19_15h27.36.538,MST_test,2024.2.0,59.99865602685612,2026-01-19 15h28.04.325096 +0530,
108,0,109,n,1.2209738999954425,None,109,0,108,394.0051405999984,,,,,,,,,,,,,,,,,,,,,,,,,,,,,,,,,,,,,,,,,,,,,,,,,,393.9885976000078,394.0051405999984,394.53911209999933,394.4892494000087,394.53622190000897,394.53911209999933,394.53911209999933,394.53911209999933,395.7726557999995,Foils\073a.jpg,none,n,1.2209738999954425,None,,,,,,,,00058,001,2026-01-19_15h27.36.538,MST_test,2024.2.0,59.99865602685612,2026-01-19 15h28.04.325096 +0530,
109,0,110,s,1.2405785000009928,None,110,0,109,395.7882829000009,,,,,,,,,,,,,,,,,,,,,,,,,,,,,,,,,,,,,,,,,,,,,,,,,,395.77290340000764,395.7882829000009,396.3195773000043,396.27233200000774,396.3166662000003,396.3195773000043,396.3195773000043,396.3195773000043,397.57275410000875,Objects\323b.jpg,mid,s,1.2405785000009928,None,,,,,,,,00058,001,2026-01-19_15h27.36.538,MST_test,2024.2.0,59.99865602685612,2026-01-19 15h28.04.325096 +0530,
110,0,111,s,1.1513224000082118,None,111,0,110,397.5876075999986,,,,,,,,,,,,,,,,,,,,,,,,,,,,,,,,,,,,,,,,,,,,,,,,,,397.57298179999634,397.5876075999986,398.1126815000025,398.0721687000041,398.1096421999973,398.1126815000025,398.1126815000025,398.1126815000025,399.2729881999985,Objects\299b.jpg,pre,s,1.1513224000082118,None,,,,,,,,00058,001,2026-01-19_15h27.36.538,MST_test,2024.2.0,59.99865602685612,2026-01-19 15h28.04.325096 +0530,
111,0,112,o,0.9626198000041768,None,112,0,111,399.28764200001024,,,,,,,,,,,,,,,,,,,,,,,,,,,,,,,,,,,,,,,,,,,,,,,,,,399.27324380000937,399.28764200001024,399.81314779999957,399.7721934000001,399.81048149999697,399.81314779999957,399.81314779999957,399.81314779999957,400.78940360000706,Objects\260b.jpg,mid,o,0.9626198000041768,None,,,,,,,,00058,001,2026-01-19_15h27.36.538,MST_test,2024.2.0,59.99865602685612,2026-01-19 15h28.04.325096 +0530,
112,0,113,s,1.4608318999962648,None,113,0,112,400.80423419999715,,,,,,,,,,,,,,,,,,,,,,,,,,,,,,,,,,,,,,,,,,,,,,,,,,400.78970390000904,400.80423419999715,401.331070500004,401.2889326000004,401.3279365000053,401.331070500004,401.331070500004,401.331070500004,402.80601490000845,Objects\102b.jpg,pre,s,1.4608318999962648,None,,,,,,,,00058,001,2026-01-19_15h27.36.538,MST_test,2024.2.0,59.99865602685612,2026-01-19 15h28.04.325096 +0530,
113,0,114,n,1.2118845000077272,None,114,0,113,402.8210386999999,,,,,,,,,,,,,,,,,,,,,,,,,,,,,,,,,,,,,,,,,,,,,,,,,,402.8063417000085,402.8210386999999,403.34804989999975,403.30538499999966,403.3454181999987,403.34804989999975,403.34804989999975,403.34804989999975,404.5730951000005,Foils\026a.jpg,none,n,1.2118845000077272,None,,,,,,,,00058,001,2026-01-19_15h27.36.538,MST_test,2024.2.0,59.99865602685612,2026-01-19 15h28.04.325096 +0530,
114,0,115,s,1.6561092999909306,None,115,0,114,404.5879818000103,,,,,,,,,,,,,,,,,,,,,,,,,,,,,,,,,,,,,,,,,,,,,,,,,,404.5734405999974,404.5879818000103,405.08821820000594,405.0720877999993,405.0815782999998,405.08821820000594,405.08821820000594,405.08821820000594,406.7561357000086,Objects\261a.jpg,post,s,1.6561092999909306,None,,,,,,,,00058,001,2026-01-19_15h27.36.538,MST_test,2024.2.0,59.99865602685612,2026-01-19 15h28.04.325096 +0530,
115,0,116,s,1.5012752000038745,None,116,0,115,406.77091390000714,,,,,,,,,,,,,,,,,,,,,,,,,,,,,,,,,,,,,,,,,,,,,,,,,,406.75650360000145,406.77091390000714,407.29097290000936,407.2553501000075,407.28810960000555,407.29097290000936,407.29097290000936,407.29097290000936,408.8062301000027,Objects\362b.jpg,mid,s,1.5012752000038745,None,,,,,,,,00058,001,2026-01-19_15h27.36.538,MST_test,2024.2.0,59.99865602685612,2026-01-19 15h28.04.325096 +0530,
116,0,117,n,1.5907470000092871,None,117,0,116,408.82084190000023,,,,,,,,,,,,,,,,,,,,,,,,,,,,,,,,,,,,,,,,,,,,,,,,,,408.8065789000102,408.82084190000023,409.36078290001024,409.3055022000044,409.3577108000027,409.36078290001024,409.36078290001024,409.36078290001024,410.95636979999836,Foils\106a.jpg,none,n,1.5907470000092871,None,,,,,,,,00058,001,2026-01-19_15h27.36.538,MST_test,2024.2.0,59.99865602685612,2026-01-19 15h28.04.325096 +0530,
117,0,118,o,1.6086497999931453,None,118,0,117,410.97097249999933,,,,,,,,,,,,,,,,,,,,,,,,,,,,,,,,,,,,,,,,,,,,,,,,,,410.95667200000025,410.97097249999933,411.4712125000078,411.4557377000019,411.4613620000018,411.4712125000078,411.4712125000078,411.4712125000078,413.0892324000015,Objects\143a.jpg,mid,o,1.6086497999931453,None,,,,,,,,00058,001,2026-01-19_15h27.36.538,MST_test,2024.2.0,59.99865602685612,2026-01-19 15h28.04.325096 +0530,
118,0,119,o,0.7285846000013407,None,119,0,118,413.10434879999957,,,,,,,,,,,,,,,,,,,,,,,,,,,,,,,,,,,,,,,,,,,,,,,,,,413.089624500004,413.10434879999957,413.6231032000069,413.58872549999796,413.62046950000513,413.6231032000069,413.6231032000069,413.6231032000069,414.3562221000029,Objects\174b.jpg,mid,o,0.7285846000013407,None,,,,,,,,00058,001,2026-01-19_15h27.36.538,MST_test,2024.2.0,59.99865602685612,2026-01-19 15h28.04.325096 +0530,
119,0,120,s,1.5057444000121905,None,120,0,119,414.3710444000026,,,,,,,,,,,,,,,,,,,,,,,,,,,,,,,,,,,,,,,,,,,,,,,,,,414.3564807000075,414.3710444000026,414.9500655000011,414.8556061999989,414.9472555000102,414.9500655000011,414.9500655000011,414.9500655000011,416.4729148000042,Objects\267b.jpg,post,s,1.5057444000121905,None,,,,,,,,00058,001,2026-01-19_15h27.36.538,MST_test,2024.2.0,59.99865602685612,2026-01-19 15h28.04.325096 +0530,
120,0,121,s,1.2798573999898508,None,121,0,120,416.48769330000505,,,,,,,,,,,,,,,,,,,,,,,,,,,,,,,,,,,,,,,,,,,,,,,,,,416.47331100000883,416.48769330000505,417.0076276000036,416.97205500000564,417.00470640001004,417.0076276000036,417.0076276000036,417.0076276000036,418.2897757000028,Objects\171b.jpg,mid,s,1.2798573999898508,None,,,,,,,,00058,001,2026-01-19_15h27.36.538,MST_test,2024.2.0,59.99865602685612,2026-01-19 15h28.04.325096 +0530,
121,0,122,n,0.8920960999967065,None,122,0,121,418.30440039999667,,,,,,,,,,,,,,,,,,,,,,,,,,,,,,,,,,,,,,,,,,,,,,,,,,418.2900337000028,418.30440039999667,418.90863309999986,418.7888013000047,418.9062305999978,418.90863309999986,418.90863309999986,418.90863309999986,419.8062246000045,Foils\010a.jpg,none,n,0.8920960999967065,None,,,,,,,,00058,001,2026-01-19_15h27.36.538,MST_test,2024.2.0,59.99865602685612,2026-01-19 15h28.04.325096 +0530,
122,0,123,s,2.853534599998966,None,123,0,122,419.8210151000094,,,,,,,,,,,,,,,,,,,,,,,,,,,,,,,,,,,,,,,,,,,,,,,,,,419.80644149999716,419.8210151000094,420.34708500000124,420.3056035000045,420.3444015999994,420.34708500000124,420.34708500000124,420.34708500000124,423.2061645000067,Objects\121b.jpg,pre,s,2.853534599998966,None,,,,,,,,00058,001,2026-01-19_15h27.36.538,MST_test,2024.2.0,59.99865602685612,2026-01-19 15h28.04.325096 +0530,
123,0,124,s,1.2957775999966543,None,124,0,123,423.2218320999964,,,,,,,,,,,,,,,,,,,,,,,,,,,,,,,,,,,,,,,,,,,,,,,,,,423.2064060999983,423.2218320999964,423.7524832000054,423.7052035000088,423.74980119999964,423.7524832000054,423.7524832000054,423.7524832000054,425.05604520000634,Foils\057a.jpg,none,s,1.2957775999966543,None,,,,,,,,00058,001,2026-01-19_15h27.36.538,MST_test,2024.2.0,59.99865602685612,2026-01-19 15h28.04.325096 +0530,
124,0,125,o,1.8566512999968836,None,125,0,124,425.0710190999962,,,,,,,,,,,,,,,,,,,,,,,,,,,,,,,,,,,,,,,,,,,,,,,,,,425.05636990000494,425.0710190999962,425.59093289999873,425.55517910000344,425.58835410000756,425.59093289999873,425.59093289999873,425.59093289999873,427.4559450000088,Objects\308b.jpg,pre,o,1.8566512999968836,None,,,,,,,,00058,001,2026-01-19_15h27.36.538,MST_test,2024.2.0,59.99865602685612,2026-01-19 15h28.04.325096 +0530,
125,0,126,n,1.485734700007015,None,126,0,125,427.47098939999705,,,,,,,,,,,,,,,,,,,,,,,,,,,,,,,,,,,,,,,,,,,,,,,,,,427.4562030000088,427.47098939999705,427.99358950000897,427.95523089999915,427.99116630000935,427.99358950000897,427.99358950000897,427.99358950000897,429.48955739999656,Foils\018a.jpg,none,n,1.485734700007015,None,,,,,,,,00058,001,2026-01-19_15h27.36.538,MST_test,2024.2.0,59.99865602685612,2026-01-19 15h28.04.325096 +0530,
126,0,127,s,1.20340290000604,None,127,0,126,429.5040852000093,,,,,,,,,,,,,,,,,,,,,,,,,,,,,,,,,,,,,,,,,,,,,,,,,,429.4898200000025,429.5040852000093,430.00464290000673,429.9885023000097,429.9964680999983,430.00464290000673,430.00464290000673,430.00464290000673,431.22319190000417,Objects\154a.jpg,mid,s,1.20340290000604,None,,,,,,,,00058,001,2026-01-19_15h27.36.538,MST_test,2024.2.0,59.99865602685612,2026-01-19 15h28.04.325096 +0530,
127,0,128,o,0.9818459999951301,None,128,0,127,431.23766729999625,,,,,,,,,,,,,,,,,,,,,,,,,,,,,,,,,,,,,,,,,,,,,,,,,,431.2234923000069,431.23766729999625,431.7378363000025,431.72222150000744,431.72929139999906,431.7378363000025,431.7378363000025,431.7378363000025,432.72266220000165,Objects\363a.jpg,pre,o,0.9818459999951301,None,,,,,,,,00058,001,2026-01-19_15h27.36.538,MST_test,2024.2.0,59.99865602685612,2026-01-19 15h28.04.325096 +0530,
128,0,129,n,0.9968202000018209,None,129,0,128,432.7375819000008,,,,,,,,,,,,,,,,,,,,,,,,,,,,,,,,,,,,,,,,,,,,,,,,,,432.72316890000366,432.7375819000008,433.25859350000974,433.22211909999896,433.2562450999976,433.25859350000974,433.25859350000974,433.25859350000974,434.272950700004,Foils\082a.jpg,none,n,0.9968202000018209,None,,,,,,,,00058,001,2026-01-19_15h27.36.538,MST_test,2024.2.0,59.99865602685612,2026-01-19 15h28.04.325096 +0530,
129,0,130,s,1.1731628000125056,None,130,0,129,434.28765060000296,,,,,,,,,,,,,,,,,,,,,,,,,,,,,,,,,,,,,,,,,,,,,,,,,,434.27336350000405,434.28765060000296,434.81811639999796,434.7718787000049,434.81527800000913,434.81811639999796,434.81811639999796,434.81811639999796,436.0056603999983,Objects\244b.jpg,pre,s,1.1731628000125056,None,,,,,,,,00058,001,2026-01-19_15h27.36.538,MST_test,2024.2.0,59.99865602685612,2026-01-19 15h28.04.325096 +0530,
130,0,131,s,1.2949403000093298,None,131,0,130,436.02135070000077,,,,,,,,,,,,,,,,,,,,,,,,,,,,,,,,,,,,,,,,,,,,,,,,,,436.0058185000089,436.02135070000077,436.52156720000494,436.5054947000026,436.5142657000106,436.52156720000494,436.52156720000494,436.52156720000494,437.8225838000071,Objects\180a.jpg,post,s,1.2949403000093298,None,,,,,,,,00058,001,2026-01-19_15h27.36.538,MST_test,2024.2.0,59.99865602685612,2026-01-19 15h28.04.325096 +0530,
131,0,132,s,1.0061134999996284,None,132,0,131,437.83772959999624,,,,,,,,,,,,,,,,,,,,,,,,,,,,,,,,,,,,,,,,,,,,,,,,,,437.822837300002,437.83772959999624,438.33847329999844,438.3220860000001,438.33100950000517,438.33847329999844,438.33847329999844,438.33847329999844,439.35633330000564,Objects\269a.jpg,post,s,1.0061134999996284,None,,,,,,,,00058,001,2026-01-19_15h27.36.538,MST_test,2024.2.0,59.99865602685612,2026-01-19 15h28.04.325096 +0530,
132,0,133,s,1.2926078000018606,None,133,0,132,439.3710359000106,,,,,,,,,,,,,,,,,,,,,,,,,,,,,,,,,,,,,,,,,,,,,,,,,,439.35656280000694,439.3710359000106,439.92333230000804,439.8549736999994,439.9202329999971,439.92333230000804,439.92333230000804,439.92333230000804,441.223169600009,Objects\315b.jpg,pre,s,1.2926078000018606,None,,,,,,,,00058,001,2026-01-19_15h27.36.538,MST_test,2024.2.0,59.99865602685612,2026-01-19 15h28.04.325096 +0530,
133,0,134,o,1.549942600002396,None,134,0,133,441.2376338000031,,,,,,,,,,,,,,,,,,,,,,,,,,,,,,,,,,,,,,,,,,,,,,,,,,441.2234584999969,441.2376338000031,441.7380991999962,441.72218579999753,441.72855400000117,441.7380991999962,441.7380991999962,441.7380991999962,443.28994010000315,Objects\122a.jpg,post,o,1.549942600002396,None,,,,,,,,00058,001,2026-01-19_15h27.36.538,MST_test,2024.2.0,59.99865602685612,2026-01-19 15h28.04.325096 +0530,
134,0,135,n,0.8702025000093272,None,135,0,134,443.304392200007,,,,,,,,,,,,,,,,,,,,,,,,,,,,,,,,,,,,,,,,,,,,,,,,,,443.2903309999965,443.304392200007,443.8973393000051,443.78872850000334,443.8946944000054,443.8973393000051,443.8973393000051,443.8973393000051,444.77351169999747,Objects\341b.jpg,post,n,0.8702025000093272,None,,,,,,,,00058,001,2026-01-19_15h27.36.538,MST_test,2024.2.0,59.99865602685612,2026-01-19 15h28.04.325096 +0530,
135,0,136,s,1.3050741000042763,None,136,0,135,444.7876049000042,,,,,,,,,,,,,,,,,,,,,,,,,,,,,,,,,,,,,,,,,,,,,,,,,,444.773792699998,444.7876049000042,445.4071610999963,445.2722219999996,445.4043126000033,445.4071610999963,445.4071610999963,445.4071610999963,446.72282090000226,Objects\084b.jpg,mid,s,1.3050741000042763,None,,,,,,,,00058,001,2026-01-19_15h27.36.538,MST_test,2024.2.0,59.99865602685612,2026-01-19 15h28.04.325096 +0530,
136,0,137,n,2.416669999991427,None,137,0,136,446.7376876000053,,,,,,,,,,,,,,,,,,,,,,,,,,,,,,,,,,,,,,,,,,,,,,,,,,446.7230972999969,446.7376876000053,447.2707472000038,447.2219918000046,447.26830399999744,447.2707472000038,447.2707472000038,447.2707472000038,449.6892579999985,Foils\097a.jpg,none,n,2.416669999991427,None,,,,,,,,00058,001,2026-01-19_15h27.36.538,MST_test,2024.2.0,59.99865602685612,2026-01-19 15h28.04.325096 +0530,
137,0,138,s,1.4356649999972433,None,138,0,137,449.70436920000066,,,,,,,,,,,,,,,,,,,,,,,,,,,,,,,,,,,,,,,,,,,,,,,,,,449.6894988999993,449.70436920000066,450.20472500000324,450.188903000002,450.19689770000696,450.20472500000324,450.20472500000324,450.20472500000324,451.65631920000305,Objects\254a.jpg,mid,s,1.4356649999972433,None,,,,,,,,00058,001,2026-01-19_15h27.36.538,MST_test,2024.2.0,59.99865602685612,2026-01-19 15h28.04.325096 +0530,
138,0,139,n,1.267781800008379,None,139,0,138,451.6708440000075,,,,,,,,,,,,,,,,,,,,,,,,,,,,,,,,,,,,,,,,,,,,,,,,,,451.65656570000283,451.6708440000075,452.1714781000046,452.1556758000079,452.1622889999999,452.1714781000046,452.1714781000046,452.1714781000046,453.456563300002,Objects\016a.jpg,post,n,1.267781800008379,None,,,,,,,,00058,001,2026-01-19_15h27.36.538,MST_test,2024.2.0,59.99865602685612,2026-01-19 15h28.04.325096 +0530,
139,0,140,o,1.261025100000552,None,140,0,139,453.4709195000032,,,,,,,,,,,,,,,,,,,,,,,,,,,,,,,,,,,,,,,,,,,,,,,,,,453.45697500000824,453.4709195000032,453.9712029000075,453.9553430000087,453.9643344000069,453.9712029000075,453.9712029000075,453.9712029000075,455.2395373000036,Objects\034a.jpg,post,o,1.261025100000552,None,,,,,,,,00058,001,2026-01-19_15h27.36.538,MST_test,2024.2.0,59.99865602685612,2026-01-19 15h28.04.325096 +0530,
140,0,141,o,0.725027799999225,None,141,0,140,455.2543757000094,,,,,,,,,,,,,,,,,,,,,,,,,,,,,,,,,,,,,,,,,,,,,,,,,,455.23987510000006,455.2543757000094,455.7545480999979,455.7387994000019,455.7459557999973,455.7545480999979,455.7545480999979,455.7545480999979,456.48973030000343,Objects\014a.jpg,pre,o,0.725027799999225,None,,,,,,,,00058,001,2026-01-19_15h27.36.538,MST_test,2024.2.0,59.99865602685612,2026-01-19 15h28.04.325096 +0530,
141,0,142,o,0.883201899996493,None,142,0,141,456.5048073000071,,,,,,,,,,,,,,,,,,,,,,,,,,,,,,,,,,,,,,,,,,,,,,,,,,456.4901347999985,456.5048073000071,457.0046335000079,456.9887729000038,456.9981132999965,457.0046335000079,457.0046335000079,457.0046335000079,457.89002050001,Objects\325a.jpg,pre,o,0.883201899996493,None,,,,,,,,00058,001,2026-01-19_15h27.36.538,MST_test,2024.2.0,59.99865602685612,2026-01-19 15h28.04.325096 +0530,
142,0,143,s,3.6191287000110606,None,143,0,142,457.90424620000704,,,,,,,,,,,,,,,,,,,,,,,,,,,,,,,,,,,,,,,,,,,,,,,,,,457.89026900001045,457.90424620000704,458.4452825000044,458.3887059999979,458.44226910000725,458.4452825000044,458.4452825000044,458.4452825000044,462.07329369999934,Objects\147b.jpg,pre,s,3.6191287000110606,None,,,,,,,,00058,001,2026-01-19_15h27.36.538,MST_test,2024.2.0,59.99865602685612,2026-01-19 15h28.04.325096 +0530,
143,0,144,s,1.2038995000038994,None,144,0,143,462.08755969999766,,,,,,,,,,,,,,,,,,,,,,,,,,,,,,,,,,,,,,,,,,,,,,,,,,462.07360390000395,462.08755969999766,462.6126832000009,462.57162800000515,462.60923680000997,462.6126832000009,462.6126832000009,462.6126832000009,463.8229696000053,Objects\081b.jpg,post,s,1.2038995000038994,None,,,,,,,,00058,001,2026-01-19_15h27.36.538,MST_test,2024.2.0,59.99865602685612,2026-01-19 15h28.04.325096 +0530,
144,0,145,s,1.2131381999934092,None,145,0,144,463.8376788000023,,,,,,,,,,,,,,,,,,,,,,,,,,,,,,,,,,,,,,,,,,,,,,,,,,463.8232255000039,463.8376788000023,464.3627420999983,464.32185860000027,464.359872800007,464.3627420999983,464.3627420999983,464.3627420999983,465.5895937000023,Objects\106b.jpg,post,s,1.2131381999934092,None,,,,,,,,00058,001,2026-01-19_15h27.36.538,MST_test,2024.2.0,59.99865602685612,2026-01-19 15h28.04.325096 +0530,
145,0,146,s,1.0602714999986347,None,146,0,145,465.60433000000194,,,,,,,,,,,,,,,,,,,,,,,,,,,,,,,,,,,,,,,,,,,,,,,,,,465.5898343000008,465.60433000000194,466.1631197000097,466.0882317000069,466.1602974999987,466.1631197000097,466.1631197000097,466.1631197000097,467.23955840000417,Objects\108b.jpg,post,s,1.0602714999986347,None,,,,,,,,00058,001,2026-01-19_15h27.36.538,MST_test,2024.2.0,59.99865602685612,2026-01-19 15h28.04.325096 +0530,
146,0,147,o,0.9887656000064453,None,147,0,146,467.25428400000965,,,,,,,,,,,,,,,,,,,,,,,,,,,,,,,,,,,,,,,,,,,,,,,,,,467.2398765000107,467.25428400000965,467.754978500001,467.738680800001,467.74458810000215,467.754978500001,467.754978500001,467.754978500001,468.7564115999994,Objects\211a.jpg,pre,o,0.9887656000064453,None,,,,,,,,00058,001,2026-01-19_15h27.36.538,MST_test,2024.2.0,59.99865602685612,2026-01-19 15h28.04.325096 +0530,
147,0,148,s,1.3455989999929443,None,148,0,147,468.770760600004,,,,,,,,,,,,,,,,,,,,,,,,,,,,,,,,,,,,,,,,,,,,,,,,,,468.756739000004,468.770760600004,469.27113989999634,469.255435900006,469.2651482000074,469.27113989999634,469.27113989999634,469.27113989999634,470.62224300000526,Objects\300a.jpg,post,s,1.3455989999929443,None,,,,,,,,00058,001,2026-01-19_15h27.36.538,MST_test,2024.2.0,59.99865602685612,2026-01-19 15h28.04.325096 +0530,
148,0,149,s,1.4503840999968816,None,149,0,148,470.63814670000284,,,,,,,,,,,,,,,,,,,,,,,,,,,,,,,,,,,,,,,,,,,,,,,,,,470.6225231999997,470.63814670000284,471.17336890001025,471.122036700006,471.1705668000068,471.17336890001025,471.17336890001025,471.17336890001025,472.6390282000066,Objects\307b.jpg,pre,s,1.4503840999968816,None,,,,,,,,00058,001,2026-01-19_15h27.36.538,MST_test,2024.2.0,59.99865602685612,2026-01-19 15h28.04.325096 +0530,
149,0,150,o,1.2212381999997888,None,150,0,149,472.6545763000031,,,,,,,,,,,,,,,,,,,,,,,,,,,,,,,,,,,,,,,,,,,,,,,,,,472.6393948000041,472.6545763000031,473.15471210000396,473.1391111999983,473.1466786000092,473.15471210000396,473.15471210000396,473.15471210000396,474.3891857999988,Objects\266a.jpg,mid,o,1.2212381999997888,None,,,,,,,,00058,001,2026-01-19_15h27.36.538,MST_test,2024.2.0,59.99865602685612,2026-01-19 15h28.04.325096 +0530,
,,,,,,,,,,,,,,,,,,,,,,,,,,,,,,,,,,,,,,,,,,,,,,,,,,,,,,,,,,,,,,,,,,,,,,,,,474.38943650000147,474.4047056999989,474.4047056999989,477.95650820000446,space,3.5397767999966163,None,00058,001,2026-01-19_15h27.36.538,MST_test,2024.2.0,59.99865602685612,2026-01-19 15h28.04.325096 +0530,
