Sl_no,image_path,thisN,thisTrialN,thisRepN,key_resp_5.keys,key_resp_7.keys,key_resp_7.rt,key_resp_7.duration,key_resp_5.rt,key_resp_5.duration,key_resp_9.keys,key_resp_8.keys,key_resp_8.rt,key_resp_8.duration,key_resp_9.rt,key_resp_9.duration,practice.thisRepN,practice.thisTrialN,practice.thisN,trials.thisRepN,trials.thisTrialN,trials.thisN,thisRow.t,notes,welcome_page.started,text.started,key_resp.started,welcome_page.stopped,key_resp.keys,key_resp.rt,key_resp.duration,instructions.started,ins.started,key_resp_2.started,instructions.stopped,key_resp_2.keys,key_resp_2.rt,key_resp_2.duration,objects_only_instruction.started,text_3.started,key_resp_3.started,objects_only_instruction.stopped,key_resp_3.keys,key_resp_3.rt,key_resp_3.duration,ISI.started,text_4.started,ISI.stopped,practice_block.started,image.started,key_resp_5.started,text_5.started,practice_block.stopped,practice.key_resp_5.keys,indoor_outdoor.started,text_7.started,key_resp_7.started,indoor_outdoor.stopped,practice.key_resp_7.keys,practice.key_resp_7.rt,practice.key_resp_7.duration,practice.key_resp_5.rt,practice.key_resp_5.duration,practice_to_main.started,text_2.started,key_resp_4.started,practice_to_main.stopped,key_resp_4.keys,key_resp_4.rt,key_resp_4.duration,objects.started,image_2.started,text_9.started,key_resp_9.started,objects.stopped,category,trials.key_resp_9.keys,encoding_task.started,text_8.started,key_resp_8.started,encoding_task.stopped,trials.key_resp_8.keys,trials.key_resp_8.rt,trials.key_resp_8.duration,trials.key_resp_9.rt,trials.key_resp_9.duration,text_4.stopped,end_experiment.started,text_6.started,key_resp_6.started,end_experiment.stopped,key_resp_6.keys,key_resp_6.rt,key_resp_6.duration,list_of_stimuli,encoding_task_accuracy,participant,session,date,expName,psychopyVersion,frameRate,expStart,
,,,,,,,,,,,,,,,,,,,,,,,,,0.002408200001809746,0.019051000010222197,0.019051000010222197,15.260046600014903,space,15.234531099966262,None,,,,,,,,,,,,,,,,,,,,,,,,,,,,,,,,,,,,,,,,,,,,,,,,,,,,,,,,,,,,,,,,,,00054,001,2026-01-18_18h59.11.419,MST_task,2024.2.0,60.02635156633984,2026-01-18 19h01.01.694545 +0530,
,,,,,,,,,,,,,,,,,,,,,,,,,,,,,,,,15.26008290000027,15.273546000011265,15.273546000011265,44.3268187000067,space,29.044841499999166,None,,,,,,,,,,,,,,,,,,,,,,,,,,,,,,,,,,,,,,,,,,,,,,,,,,,,,,,,,,,00054,001,2026-01-18_18h59.11.419,MST_task,2024.2.0,60.02635156633984,2026-01-18 19h01.01.694545 +0530,
,,,,,,,,,,,,,,,,,,,,,,,,,,,,,,,,,,,,,,,44.32685730000958,44.34207079996122,44.34207079996122,51.719335399975535,space,7.368444300023839,None,,,,,,,,,,,,,,,,,,,,,,,,,,,,,,,,,,,,,,,,,,,,,,,,,,,,00054,001,2026-01-18_18h59.11.419,MST_task,2024.2.0,60.02635156633984,2026-01-18 19h01.01.694545 +0530,
1,practice_images/013a.jpg,0,0,1,None,f,7.102668299979996,None,,,,,,,,,1,0,0,,,,51.73522069997853,,,,,,,,,,,,,,,,,,,,,,,51.723662699980196,51.73522069997853,52.220413899980485,52.23131719999947,52.237426800013054,52.237426800013054,52.237426800013054,55.23116349999327,None,55.23246069997549,55.24765380000463,55.24765380000463,62.35669909999706,f,7.102668299979996,None,,,,,,,,,,,,,,,,,,,,,,,,,,,,,,,,,,,,00054,001,2026-01-18_18h59.11.419,MST_task,2024.2.0,60.02635156633984,2026-01-18 19h01.01.694545 +0530,
5,practice_images/139a.jpg,1,1,1,None,j,0.6417074999772012,None,,,,,,,,,1,1,1,,,,62.372595399967395,,,,,,,,,,,,,,,,,,,,,,,62.356785300013144,62.372595399967395,62.85757679998642,62.859508299967274,62.87448160001077,62.87448160001077,62.87448160001077,65.86827350000385,None,65.8683157999767,65.88487869995879,65.88487869995879,66.53769989998545,j,0.6417074999772012,None,,,,,,,,,,,,,,,,,,,,,,,,,,,,,,,,,,,,00054,001,2026-01-18_18h59.11.419,MST_task,2024.2.0,60.02635156633984,2026-01-18 19h01.01.694545 +0530,
9,practice_images/180a.jpg,2,2,1,f,None,,,2.910393300000578,None,,,,,,,1,2,2,,,,66.55393539997749,,,,,,,,,,,,,,,,,,,,,,,66.53779969998868,66.55393539997749,67.04005409998354,67.04167539998889,67.05570259998785,67.05570259998785,67.05570259998785,70.04970540001523,f,70.04974459996447,,,70.04975760000525,None,,,2.910393300000578,None,,,,,,,,,,,,,,,,,,,,,,,,,,,,,,,,,,00054,001,2026-01-18_18h59.11.419,MST_task,2024.2.0,60.02635156633984,2026-01-18 19h01.01.694545 +0530,
2,practice_images/031a.jpg,3,3,1,None,f,0.7710774999577552,None,,,,,,,,,1,3,3,,,,70.06626339996001,,,,,,,,,,,,,,,,,,,,,,,70.04982399998698,70.06626339996001,70.5514841999975,70.55308300000615,70.56800530001055,70.56800530001055,70.56800530001055,73.56204719998641,None,73.56210430001374,73.57855209999252,73.57855209999252,74.36512099998072,f,0.7710774999577552,None,,,,,,,,,,,,,,,,,,,,,,,,,,,,,,,,,,,,00054,001,2026-01-18_18h59.11.419,MST_task,2024.2.0,60.02635156633984,2026-01-18 19h01.01.694545 +0530,
10,practice_images/182a.jpg,4,4,1,None,j,2.1049906000262126,None,,,,,,,,,1,4,4,,,,74.38136820000364,,,,,,,,,,,,,,,,,,,,,,,74.36520790000213,74.38136820000364,74.86658209998859,74.86818709998624,74.88311890000477,74.88311890000477,74.88311890000477,77.8771401999984,None,77.87717499997234,77.89351439999882,77.89351439999882,80.00163680000696,j,2.1049906000262126,None,,,,,,,,,,,,,,,,,,,,,,,,,,,,,,,,,,,,00054,001,2026-01-18_18h59.11.419,MST_task,2024.2.0,60.02635156633984,2026-01-18 19h01.01.694545 +0530,
3,practice_images/037a.jpg,5,5,1,None,j,2.7720429000328295,None,,,,,,,,,1,5,5,,,,80.01777609996498,,,,,,,,,,,,,,,,,,,,,,,80.00172790000215,80.01777609996498,80.50270579999778,80.5069754999713,80.51936659996863,80.51936659996863,80.51936659996863,83.51295850001043,None,83.5145059999777,83.52976659999695,83.52976659999695,86.30704340001103,j,2.7720429000328295,None,,,,,,,,,,,,,,,,,,,,,,,,,,,,,,,,,,,,00054,001,2026-01-18_18h59.11.419,MST_task,2024.2.0,60.02635156633984,2026-01-18 19h01.01.694545 +0530,
4,practice_images/002b.jpg,6,6,1,None,j,2.7623804000322707,None,,,,,,,,,1,6,6,,,,86.3230303999735,,,,,,,,,,,,,,,,,,,,,,,86.30713119998109,86.3230303999735,86.80840039998293,86.81055900000501,86.82490569999209,86.82490569999209,86.82490569999209,89.8189119999879,None,89.81894829997327,89.83536889997777,89.83536889997777,92.61239739996381,j,2.7623804000322707,None,,,,,,,,,,,,,,,,,,,,,,,,,,,,,,,,,,,,00054,001,2026-01-18_18h59.11.419,MST_task,2024.2.0,60.02635156633984,2026-01-18 19h01.01.694545 +0530,
7,practice_images/166a.jpg,7,7,1,f,None,,,2.2926628999994136,0.07100649998756126,,,,,,,1,7,7,,,,92.62857279996388,,,,,,,,,,,,,,,,,,,,,,,92.61248449998675,92.62857279996388,93.11352179996902,93.11564209999051,93.13051220000489,93.13051220000489,93.13051220000489,96.12478620000184,f,96.12483719998272,,,96.12485189997824,None,,,2.2926628999994136,0.07100649998756126,,,,,,,,,,,,,,,,,,,,,,,,,,,,,,,,,,00054,001,2026-01-18_18h59.11.419,MST_task,2024.2.0,60.02635156633984,2026-01-18 19h01.01.694545 +0530,
8,practice_images/178a.jpg,8,8,1,f,None,,,1.8348608000087552,0.1280265999957919,,,,,,,1,8,8,,,,96.14100449997932,,,,,,,,,,,,,,,,,,,,,,,96.12493469996843,96.14100449997932,96.62645509996219,96.62813889997778,96.64276979997521,96.64276979997521,96.64276979997521,99.63649229996372,f,99.63657349999994,,,99.63659489998827,None,,,1.8348608000087552,0.1280265999957919,,,,,,,,,,,,,,,,,,,,,,,,,,,,,,,,,,00054,001,2026-01-18_18h59.11.419,MST_task,2024.2.0,60.02635156633984,2026-01-18 19h01.01.694545 +0530,
6,practice_images/158a.jpg,9,9,1,j,None,,,1.7876598999719135,0.06341570004587993,,,,,,,1,9,9,,,,99.65316230000462,,,,,,,,,,,,,,,,,,,,,,,99.63670609996188,99.65316230000462,100.13824709999608,100.13981159997638,100.15491519996431,100.15491519996431,100.15491519996431,103.14869359997101,j,103.1487458999618,,,103.14875829999801,None,,,1.7876598999719135,0.06341570004587993,,,,,,,,,,,,,,,,,,,,,,,,,,,,,,,,,,00054,001,2026-01-18_18h59.11.419,MST_task,2024.2.0,60.02635156633984,2026-01-18 19h01.01.694545 +0530,
,,,,,,,,,,,,,,,,,,,,,,,,,,,,,,,,,,,,,,,,,,,,,,,,,,,,,,,,,,,,,,,,103.1488154999679,103.1654617000022,103.1654617000022,137.1350475999643,space,33.96073529997375,None,,,,,,,,,,,,,,,,,,,,,,,,,,,00054,001,2026-01-18_18h59.11.419,MST_task,2024.2.0,60.02635156633984,2026-01-18 19h01.01.694545 +0530,
,Objects\361a.jpg,0,0,1,,,,,,,None,f,2.559028399991803,None,,,,,,1,0,0,137.1511615999625,,,,,,,,,,,,,,,,,,,,,,,137.13600220001535,137.1511615999625,137.63628350000363,,,,,,,,,,,,,,,,,,,,,,,137.6475337999873,137.6710979999625,137.6710979999625,137.6710979999625,140.64632569998503,indoor,None,140.64820639998652,140.6631592999911,140.6631592999911,143.22333559999242,f,2.559028399991803,None,,,,,,,,,,,,,00054,001,2026-01-18_18h59.11.419,MST_task,2024.2.0,60.02635156633984,2026-01-18 19h01.01.694545 +0530,
,Objects\007a.jpg,1,0,2,,,,,,,None,f,8.079790499992669,None,,,,,,2,0,1,143.23913679999532,,,,,,,,,,,,,,,,,,,,,,,143.22342950000893,143.23913679999532,143.7242447999888,,,,,,,,,,,,,,,,,,,,,,,143.7272362000076,143.74089519999688,143.74089519999688,143.74089519999688,146.73491900000954,indoor,None,146.7349596999702,146.75132270000177,146.75132270000177,154.8468044999754,f,8.079790499992669,None,,,,,,,,,,,,,00054,001,2026-01-18_18h59.11.419,MST_task,2024.2.0,60.02635156633984,2026-01-18 19h01.01.694545 +0530,
,Objects\113a.jpg,2,0,3,,,,,,,None,j,0.6704893000423908,None,,,,,,3,0,2,154.86318459996255,,,,,,,,,,,,,,,,,,,,,,,154.84689360001357,154.86318459996255,155.34815109998453,,,,,,,,,,,,,,,,,,,,,,,155.35149899998214,155.36492719996022,155.36492719996022,155.36492719996022,158.35895530000562,indoor,None,158.35900850000326,158.3754925999674,158.3754925999674,159.06178889999865,j,0.6704893000423908,None,,,,,,,,,,,,,00054,001,2026-01-18_18h59.11.419,MST_task,2024.2.0,60.02635156633984,2026-01-18 19h01.01.694545 +0530,
,Objects\075a.jpg,3,0,4,,,,,,,j,None,,,2.16986529994756,0.128254100040067,,,,4,0,3,159.0779557999922,,,,,,,,,,,,,,,,,,,,,,,159.06187949999003,159.0779557999922,159.5629132000031,,,,,,,,,,,,,,,,,,,,,,,159.56541139999172,159.57957969995914,159.57957969995914,159.57957969995914,162.57355309999548,indoor,j,162.57359709998127,,,162.5736093999585,None,,,2.16986529994756,0.128254100040067,,,,,,,,,,,00054,001,2026-01-18_18h59.11.419,MST_task,2024.2.0,60.02635156633984,2026-01-18 19h01.01.694545 +0530,
,Objects\044a.jpg,4,0,5,,,,,,,None,f,0.5286551999743097,None,,,,,,5,0,4,162.5901231999742,,,,,,,,,,,,,,,,,,,,,,,162.57367650000378,162.5901231999742,163.075346299971,,,,,,,,,,,,,,,,,,,,,,,163.0779654000071,163.09214969997993,163.09214969997993,163.09214969997993,166.0857767999987,indoor,None,166.085818499967,166.1025362999644,166.1025362999644,166.63828339998145,f,0.5286551999743097,None,,,,,,,,,,,,,00054,001,2026-01-18_18h59.11.419,MST_task,2024.2.0,60.02635156633984,2026-01-18 19h01.01.694545 +0530,
,Objects\342a.jpg,5,0,6,,,,,,,None,f,0.9836527000297792,None,,,,,,6,0,5,166.6543643999612,,,,,,,,,,,,,,,,,,,,,,,166.6384102999582,166.6543643999612,167.13960940000834,,,,,,,,,,,,,,,,,,,,,,,167.14238569996087,167.15621519996785,167.15621519996785,167.15621519996785,170.1498139000032,indoor,None,170.1498552999692,170.1666416999651,170.1666416999651,171.15403619996505,f,0.9836527000297792,None,,,,,,,,,,,,,00054,001,2026-01-18_18h59.11.419,MST_task,2024.2.0,60.02635156633984,2026-01-18 19h01.01.694545 +0530,
,Objects\160a.jpg,6,0,7,,,,,,,None,j,0.5559187000035308,None,,,,,,7,0,6,171.16999079997186,,,,,,,,,,,,,,,,,,,,,,,171.15413450001506,171.16999079997186,171.65497849998064,,,,,,,,,,,,,,,,,,,,,,,171.65822129999287,171.67159469996113,171.67159469996113,171.67159469996113,174.6655902999919,indoor,None,174.66563090001,174.68227509997087,174.68227509997087,175.25162850000197,j,0.5559187000035308,None,,,,,,,,,,,,,00054,001,2026-01-18_18h59.11.419,MST_task,2024.2.0,60.02635156633984,2026-01-18 19h01.01.694545 +0530,
,Objects\325a.jpg,7,0,8,,,,,,,None,f,23.55363199999556,None,,,,,,8,0,7,175.26766909996513,,,,,,,,,,,,,,,,,,,,,,,175.25171979999868,175.26766909996513,175.7526790999691,,,,,,,,,,,,,,,,,,,,,,,175.76358839997556,175.78694499999983,175.78694499999983,175.78694499999983,178.76315319997957,shoe,None,178.76503239996964,178.78000299999258,178.78000299999258,202.3467444999842,f,23.55363199999556,None,,,,,,,,,,,,,00054,001,2026-01-18_18h59.11.419,MST_task,2024.2.0,60.02635156633984,2026-01-18 19h01.01.694545 +0530,
,Objects\129a.jpg,8,0,9,,,,,,,f,None,,,2.6124453999800608,0.10497819999000058,,,,9,0,8,202.36276129999897,,,,,,,,,,,,,,,,,,,,,,,202.34684379998362,202.36276129999897,202.84807289997116,,,,,,,,,,,,,,,,,,,,,,,202.85623049997957,202.88121739996132,202.88121739996132,202.88121739996132,205.85855860001175,shoe,f,205.8586016999907,,,205.85861419996945,None,,,2.6124453999800608,0.10497819999000058,,,,,,,,,,,00054,001,2026-01-18_18h59.11.419,MST_task,2024.2.0,60.02635156633984,2026-01-18 19h01.01.694545 +0530,
,Objects\348a.jpg,9,0,10,,,,,,,None,j,0.04265710001345724,None,,,,,,10,0,9,205.87556590000167,,,,,,,,,,,,,,,,,,,,,,,205.85872879996896,205.87556590000167,206.36080929997843,,,,,,,,,,,,,,,,,,,,,,,206.36753869999666,206.39459029998397,206.39459029998397,206.39459029998397,209.37067779997597,shoe,None,209.37071699998342,209.3874705999624,209.3874705999624,209.43852039997,j,0.04265710001345724,None,,,,,,,,,,,,,00054,001,2026-01-18_18h59.11.419,MST_task,2024.2.0,60.02635156633984,2026-01-18 19h01.01.694545 +0530,
,Objects\086a.jpg,10,0,11,,,,,,,None,j,0.08820890000788495,None,,,,,,11,0,10,209.45435839996208,,,,,,,,,,,,,,,,,,,,,,,209.4386041999678,209.45435839996208,209.9393477999838,,,,,,,,,,,,,,,,,,,,,,,209.94770560000325,209.97284579998814,209.97284579998814,209.97284579998814,212.95000670000445,shoe,None,212.95041799999308,212.9665603999747,212.9665603999747,213.06748859997606,j,0.08820890000788495,None,,,,,,,,,,,,,00054,001,2026-01-18_18h59.11.419,MST_task,2024.2.0,60.02635156633984,2026-01-18 19h01.01.694545 +0530,
,Objects\095a.jpg,11,0,12,,,,,,,f,None,,,0.7659831999917515,0.0943140999879688,,,,12,0,11,213.08380439999746,,,,,,,,,,,,,,,,,,,,,,,213.06761999998707,213.08380439999746,213.56892980000703,,,,,,,,,,,,,,,,,,,,,,,213.57244189997436,213.58537879999494,213.58537879999494,213.58537879999494,216.57949490001192,shoe,f,216.57953799999086,,,216.57955039996887,None,,,0.7659831999917515,0.0943140999879688,,,,,,,,,,,00054,001,2026-01-18_18h59.11.419,MST_task,2024.2.0,60.02635156633984,2026-01-18 19h01.01.694545 +0530,
,Objects\255a.jpg,12,0,13,,,,,,,f,None,,,2.4925925999996252,0.10345749999396503,,,,13,0,12,216.59603819996119,,,,,,,,,,,,,,,,,,,,,,,216.57967919996008,216.59603819996119,217.08112069999333,,,,,,,,,,,,,,,,,,,,,,,217.08882449998055,217.1143929999671,217.1143929999671,217.1143929999671,220.0915793000022,shoe,f,220.0916406000033,,,220.0916532999836,None,,,2.4925925999996252,0.10345749999396503,,,,,,,,,,,00054,001,2026-01-18_18h59.11.419,MST_task,2024.2.0,60.02635156633984,2026-01-18 19h01.01.694545 +0530,
,Objects\172a.jpg,13,0,14,,,,,,,j,None,,,1.116872999991756,0.14413450000574812,,,,14,0,13,220.10834739997517,,,,,,,,,,,,,,,,,,,,,,,220.09199879999505,220.10834739997517,220.5932912999997,,,,,,,,,,,,,,,,,,,,,,,220.60087799996836,220.6093120999867,220.6093120999867,220.6093120999867,223.60401149996324,shoe,j,223.60407979995944,,,223.60409470001468,None,,,1.116872999991756,0.14413450000574812,,,,,,,,,,,00054,001,2026-01-18_18h59.11.419,MST_task,2024.2.0,60.02635156633984,2026-01-18 19h01.01.694545 +0530,
,Objects\176a.jpg,14,0,15,,,,,,,j,None,,,1.2766963999602012,0.15128010004991665,,,,15,0,14,223.6205147000146,,,,,,,,,,,,,,,,,,,,,,,223.60425049997866,223.6205147000146,224.10571639996488,,,,,,,,,,,,,,,,,,,,,,,224.1100843999884,224.12236259999918,224.12236259999918,224.12236259999918,227.1162609999883,indoor,j,227.11803499999223,,,227.11805619997904,None,,,1.2766963999602012,0.15128010004991665,,,,,,,,,,,00054,001,2026-01-18_18h59.11.419,MST_task,2024.2.0,60.02635156633984,2026-01-18 19h01.01.694545 +0530,
,Objects\025a.jpg,15,0,16,,,,,,,j,None,,,1.3073220000369474,0.1595944999717176,,,,16,0,15,227.13283769995905,,,,,,,,,,,,,,,,,,,,,,,227.1181263999897,227.13283769995905,227.61827269999776,,,,,,,,,,,,,,,,,,,,,,,227.62093319999985,227.63458020001417,227.63458020001417,227.63458020001417,230.62938319996465,indoor,j,230.62943319999613,,,230.62944589997642,None,,,1.3073220000369474,0.1595944999717176,,,,,,,,,,,00054,001,2026-01-18_18h59.11.419,MST_task,2024.2.0,60.02635156633984,2026-01-18 19h01.01.694545 +0530,
,Objects\123a.jpg,16,0,17,,,,,,,j,None,,,0.9713072999729775,0.13652180001372471,,,,17,0,16,230.64451239997288,,,,,,,,,,,,,,,,,,,,,,,230.62952059996314,230.64451239997288,231.13032080000266,,,,,,,,,,,,,,,,,,,,,,,231.13339859998086,231.1469823999796,231.1469823999796,231.1469823999796,234.14117109996732,indoor,j,234.1412166999653,,,234.14122849999694,None,,,0.9713072999729775,0.13652180001372471,,,,,,,,,,,00054,001,2026-01-18_18h59.11.419,MST_task,2024.2.0,60.02635156633984,2026-01-18 19h01.01.694545 +0530,
,Objects\303a.jpg,17,0,18,,,,,,,None,j,3.0965047999634407,None,,,,,,18,0,17,234.15743429999566,,,,,,,,,,,,,,,,,,,,,,,234.14129749999847,234.15743429999566,234.6428551999852,,,,,,,,,,,,,,,,,,,,,,,234.65519289998338,234.6766678999993,234.6766678999993,234.6766678999993,237.65305099997204,indoor,None,237.65310200001113,237.66983789997175,237.66983789997175,240.7813051000121,j,3.0965047999634407,None,,,,,,,,,,,,,00054,001,2026-01-18_18h59.11.419,MST_task,2024.2.0,60.02635156633984,2026-01-18 19h01.01.694545 +0530,
,Objects\196a.jpg,18,0,19,,,,,,,f,None,,,2.561435599985998,0.08826430002227426,,,,19,0,18,240.7974692999851,,,,,,,,,,,,,,,,,,,,,,,240.78139889996964,240.7974692999851,241.28243039996596,,,,,,,,,,,,,,,,,,,,,,,241.29297800001223,241.31609039998148,241.31609039998148,241.31609039998148,244.29308480001055,indoor,f,244.29338930000085,,,244.2934025999857,None,,,2.561435599985998,0.08826430002227426,,,,,,,,,,,00054,001,2026-01-18_18h59.11.419,MST_task,2024.2.0,60.02635156633984,2026-01-18 19h01.01.694545 +0530,
,Objects\275a.jpg,19,0,20,,,,,,,j,None,,,1.3458555999677628,0.13595800002804026,,,,20,0,19,244.30969429999823,,,,,,,,,,,,,,,,,,,,,,,244.29347319999943,244.30969429999823,244.79484370001592,,,,,,,,,,,,,,,,,,,,,,,244.80291299999226,244.82856130000437,244.82856130000437,244.82856130000437,247.80530309997266,indoor,j,247.80534630001057,,,247.805358099984,None,,,1.3458555999677628,0.13595800002804026,,,,,,,,,,,00054,001,2026-01-18_18h59.11.419,MST_task,2024.2.0,60.02635156633984,2026-01-18 19h01.01.694545 +0530,
,Objects\072a.jpg,20,0,21,,,,,,,None,f,0.615922299970407,None,,,,,,21,0,20,247.82259019999765,,,,,,,,,,,,,,,,,,,,,,,247.80574300000444,247.82259019999765,248.30703059997177,,,,,,,,,,,,,,,,,,,,,,,248.31525280000642,248.34054989996366,248.34054989996366,248.34054989996366,251.31781310000224,indoor,None,251.3181313999812,251.3342418000102,251.3342418000102,251.95365739997942,f,0.615922299970407,None,,,,,,,,,,,,,00054,001,2026-01-18_18h59.11.419,MST_task,2024.2.0,60.02635156633984,2026-01-18 19h01.01.694545 +0530,
,Objects\032a.jpg,21,0,22,,,,,,,j,None,,,1.2145679999957792,0.12055819999659434,,,,22,0,21,251.96980059996713,,,,,,,,,,,,,,,,,,,,,,,251.95374659996014,251.96980059996713,252.45541220001178,,,,,,,,,,,,,,,,,,,,,,,252.45979950000765,252.47155829996336,252.47155829996336,252.47155829996336,255.46572639996884,shoe,j,255.46770879998803,,,255.4677287999657,None,,,1.2145679999957792,0.12055819999659434,,,,,,,,,,,00054,001,2026-01-18_18h59.11.419,MST_task,2024.2.0,60.02635156633984,2026-01-18 19h01.01.694545 +0530,
,Objects\350a.jpg,22,0,23,,,,,,,j,None,,,1.7185188999865204,0.16699549998156726,,,,23,0,22,255.48211049998645,,,,,,,,,,,,,,,,,,,,,,,255.46784200001275,255.48211049998645,255.9676041000057,,,,,,,,,,,,,,,,,,,,,,,255.97602579998784,256.00056049996056,256.00056049996056,256.00056049996056,258.97784329997376,shoe,j,258.9780330999638,,,258.9780478999601,None,,,1.7185188999865204,0.16699549998156726,256.00056049996056,,,,,,,,,,00054,001,2026-01-18_18h59.11.419,MST_task,2024.2.0,60.02635156633984,2026-01-18 19h01.01.694545 +0530,
,Objects\378a.jpg,23,0,24,,,,,,,None,f,3.56417440000223,None,,,,,,24,0,23,258.99440440000035,,,,,,,,,,,,,,,,,,,,,,,258.9781181999715,258.99440440000035,259.4799968000152,,,,,,,,,,,,,,,,,,,,,,,259.4883184999926,259.5128807000001,259.5128807000001,259.5128807000001,262.48984719999135,shoe,None,262.4898917999817,262.5065262999851,262.5065262999851,266.0865294999676,f,3.56417440000223,None,,,,,,,,,,,,,00054,001,2026-01-18_18h59.11.419,MST_task,2024.2.0,60.02635156633984,2026-01-18 19h01.01.694545 +0530,
,Objects\096a.jpg,24,0,25,,,,,,,None,j,1.6556750000454485,None,,,,,,25,0,24,266.1027419999591,,,,,,,,,,,,,,,,,,,,,,,266.0866228999803,266.1027419999591,266.5880083999946,,,,,,,,,,,,,,,,,,,,,,,266.5913739000098,266.60504579998087,266.60504579998087,266.60504579998087,269.5986090999795,shoe,None,269.5988067999715,269.61493639997207,269.61493639997207,271.2722729999805,j,1.6556750000454485,None,,,,,,,,,,,,,00054,001,2026-01-18_18h59.11.419,MST_task,2024.2.0,60.02635156633984,2026-01-18 19h01.01.694545 +0530,
,Objects\184a.jpg,25,0,26,,,,,,,j,None,,,1.5602861000224948,0.1528363000252284,,,,26,0,25,271.28746699995827,,,,,,,,,,,,,,,,,,,,,,,271.272364799981,271.28746699995827,271.7726953999954,,,,,,,,,,,,,,,,,,,,,,,271.775601500005,271.789197999984,271.789197999984,271.789197999984,274.7835752000101,shoe,j,274.7836274000001,,,274.78364129998954,None,,,1.5602861000224948,0.1528363000252284,,,,,,,,,,,00054,001,2026-01-18_18h59.11.419,MST_task,2024.2.0,60.02635156633984,2026-01-18 19h01.01.694545 +0530,
,Objects\341a.jpg,26,0,27,,,,,,,None,f,0.7260262999916449,None,,,,,,27,0,26,274.7997483999934,,,,,,,,,,,,,,,,,,,,,,,274.7837526999647,274.7997483999934,275.28494549996685,,,,,,,,,,,,,,,,,,,,,,,275.2885210000095,275.30163830000674,275.30163830000674,275.30163830000674,278.2954949999694,shoe,None,278.2957934999722,278.3121990999789,278.3121990999789,279.0486951000057,f,0.7260262999916449,None,,,,,,,,,,,,,00054,001,2026-01-18_18h59.11.419,MST_task,2024.2.0,60.02635156633984,2026-01-18 19h01.01.694545 +0530,
,Objects\366a.jpg,27,0,28,,,,,,,None,f,None,None,,,,,,28,0,27,279.064819799969,,,,,,,,,,,,,,,,,,,,,,,279.0487894999678,279.064819799969,279.549763899995,,,,,,,,,,,,,,,,,,,,,,,279.5529986000038,279.5666649999912,279.5666649999912,279.5666649999912,282.56034309999086,shoe,None,282.56038629997056,282.57712749997154,282.57712749997154,282.678129500011,f,None,None,,,,,,,,,,,,,00054,001,2026-01-18_18h59.11.419,MST_task,2024.2.0,60.02635156633984,2026-01-18 19h01.01.694545 +0530,
,Objects\005a.jpg,28,0,29,,,,,,,None,j,0.5991507999715395,None,,,,,,29,0,28,282.6940545999678,,,,,,,,,,,,,,,,,,,,,,,282.6782144999597,282.6940545999678,283.179558200005,,,,,,,,,,,,,,,,,,,,,,,283.1832582000061,283.195945399988,283.195945399988,283.195945399988,286.1898571999627,indoor,None,286.19117120001465,286.2063631999772,286.2063631999772,286.8091794999782,j,0.5991507999715395,None,,,,,,,,,,,,,00054,001,2026-01-18_18h59.11.419,MST_task,2024.2.0,60.02635156633984,2026-01-18 19h01.01.694545 +0530,
,Objects\062a.jpg,29,0,30,,,,,,,None,f,0.8044817000045441,None,,,,,,30,0,29,286.82535699999426,,,,,,,,,,,,,,,,,,,,,,,286.8092680000118,286.82535699999426,287.3102960999822,,,,,,,,,,,,,,,,,,,,,,,287.31321890000254,287.3270654999651,287.3270654999651,287.3270654999651,290.32084020000184,indoor,None,290.3208816999686,290.3376183999935,290.3376183999935,291.1577542999876,f,0.8044817000045441,None,,,,,,,,,,,,,00054,001,2026-01-18_18h59.11.419,MST_task,2024.2.0,60.02635156633984,2026-01-18 19h01.01.694545 +0530,
,Objects\170a.jpg,30,0,31,,,,,,,None,j,0.08830949995899573,None,,,,,,31,0,30,291.1745538999676,,,,,,,,,,,,,,,,,,,,,,,291.15784800000256,291.1745538999676,291.65885139995953,,,,,,,,,,,,,,,,,,,,,,,291.66207769996254,291.67563700000755,291.67563700000755,291.67563700000755,294.6701205999707,indoor,None,294.67016539996257,294.6860636000056,294.6860636000056,294.78701039997395,j,0.08830949995899573,None,,,,,,,,,,,,,00054,001,2026-01-18_18h59.11.419,MST_task,2024.2.0,60.02635156633984,2026-01-18 19h01.01.694545 +0530,
,Objects\301a.jpg,31,0,32,,,,,,,j,None,,,2.0764003999647684,0.12095160002354532,,,,32,0,31,294.8032525999588,,,,,,,,,,,,,,,,,,,,,,,294.7871041999897,294.8032525999588,295.2884081999655,,,,,,,,,,,,,,,,,,,,,,,295.291388899961,295.3051728999708,295.3051728999708,295.3051728999708,298.2988861000049,indoor,j,298.2989316000021,,,298.2989440999809,None,,,2.0764003999647684,0.12095160002354532,,,,,,,,,,,00054,001,2026-01-18_18h59.11.419,MST_task,2024.2.0,60.02635156633984,2026-01-18 19h01.01.694545 +0530,
,Objects\088a.jpg,32,0,33,,,,,,,j,None,,,1.9961770999943838,0.13695240003289655,,,,33,0,32,298.31555980001576,,,,,,,,,,,,,,,,,,,,,,,298.29901379998773,298.31555980001576,298.80053770000814,,,,,,,,,,,,,,,,,,,,,,,298.8039052999811,298.81753469997784,298.81753469997784,298.81753469997784,301.8110533999861,indoor,j,301.8110973999719,,,301.8111094000051,None,,,1.9961770999943838,0.13695240003289655,,,,,,,,,,,00054,001,2026-01-18_18h59.11.419,MST_task,2024.2.0,60.02635156633984,2026-01-18 19h01.01.694545 +0530,
,Objects\183a.jpg,33,0,34,,,,,,,f,None,,,1.18097340001259,0.1289536000113003,,,,34,0,33,301.82785140001215,,,,,,,,,,,,,,,,,,,,,,,301.81117960001575,301.82785140001215,302.3128169999691,,,,,,,,,,,,,,,,,,,,,,,302.3158621999901,302.3296061999863,302.3296061999863,302.3296061999863,305.3235538000008,indoor,f,305.32359869999345,,,305.3236101999646,None,,,1.18097340001259,0.1289536000113003,,,,,,,,,,,00054,001,2026-01-18_18h59.11.419,MST_task,2024.2.0,60.02635156633984,2026-01-18 19h01.01.694545 +0530,
,Objects\242a.jpg,34,0,35,,,,,,,None,f,2.0249275999958627,None,,,,,,35,0,34,305.34017270000186,,,,,,,,,,,,,,,,,,,,,,,305.32367869996233,305.34017270000186,305.8251247999724,,,,,,,,,,,,,,,,,,,,,,,305.8285220999969,305.8419137999881,305.8419137999881,305.8419137999881,308.8358474000124,indoor,None,308.83590579999145,308.85246189997997,308.85246189997997,310.893584800011,f,2.0249275999958627,None,,,,,,,,,,,,,00054,001,2026-01-18_18h59.11.419,MST_task,2024.2.0,60.02635156633984,2026-01-18 19h01.01.694545 +0530,
,Objects\357a.jpg,35,0,36,,,,,,,j,None,,,2.082236699992791,0.15255529998103157,,,,36,0,35,310.9095290999976,,,,,,,,,,,,,,,,,,,,,,,310.893680499983,310.9095290999976,311.3946477000136,,,,,,,,,,,,,,,,,,,,,,,311.3993107000133,311.4112877000007,311.4112877000007,311.4112877000007,314.4052561999997,shoe,j,314.4067363999784,,,314.4067560000112,None,,,2.082236699992791,0.15255529998103157,,,,,,,,,,,00054,001,2026-01-18_18h59.11.419,MST_task,2024.2.0,60.02635156633984,2026-01-18 19h01.01.694545 +0530,
,Objects\274a.jpg,36,0,37,,,,,,,j,None,,,1.1457371999858879,0.11204169999109581,,,,37,0,36,314.42195950000314,,,,,,,,,,,,,,,,,,,,,,,314.4068279999774,314.42195950000314,314.90711949998513,,,,,,,,,,,,,,,,,,,,,,,314.91073070000857,314.92400469997665,314.92400469997665,314.92400469997665,317.91758229996776,shoe,j,317.91802549996646,,,317.91803800000343,None,,,1.1457371999858879,0.11204169999109581,,,,,,,,,,,00054,001,2026-01-18_18h59.11.419,MST_task,2024.2.0,60.02635156633984,2026-01-18 19h01.01.694545 +0530,
,Objects\027a.jpg,37,0,38,,,,,,,f,None,,,2.1066242000088096,0.07180809997953475,,,,38,0,37,317.9344224999659,,,,,,,,,,,,,,,,,,,,,,,317.9181061999989,317.9344224999659,318.4192654999788,,,,,,,,,,,,,,,,,,,,,,,318.42282029998023,318.43599769996945,318.43599769996945,318.43599769996945,321.42983609996736,shoe,f,321.4299170000013,,,321.4299323000014,None,,,2.1066242000088096,0.07180809997953475,,,,,,,,,,,00054,001,2026-01-18_18h59.11.419,MST_task,2024.2.0,60.02635156633984,2026-01-18 19h01.01.694545 +0530,
,Objects\104a.jpg,38,0,39,,,,,,,f,None,,,1.0497117000049911,0.07109670003410429,,,,39,0,38,321.4466629999806,,,,,,,,,,,,,,,,,,,,,,,321.43000200000824,321.4466629999806,321.9317024999764,,,,,,,,,,,,,,,,,,,,,,,321.93462389998604,321.9487402999657,321.9487402999657,321.9487402999657,324.9422514999751,shoe,f,324.942296299967,,,324.9423102000146,None,,,1.0497117000049911,0.07109670003410429,,,,,,,,,,,00054,001,2026-01-18_18h59.11.419,MST_task,2024.2.0,60.02635156633984,2026-01-18 19h01.01.694545 +0530,
,Objects\269a.jpg,39,0,40,,,,,,,None,f,0.07065740000689402,None,,,,,,40,0,39,324.95907729998,,,,,,,,,,,,,,,,,,,,,,,324.9424434999819,324.95907729998,325.44382879999466,,,,,,,,,,,,,,,,,,,,,,,325.4613529999624,325.4773385999724,325.4773385999724,325.4773385999724,328.4544954999583,shoe,None,328.4545357999741,328.471042899997,328.471042899997,328.55518259998644,f,0.07065740000689402,None,,,,,,,,,,,,,00054,001,2026-01-18_18h59.11.419,MST_task,2024.2.0,60.02635156633984,2026-01-18 19h01.01.694545 +0530,
,Objects\026a.jpg,40,0,41,,,,,,,j,None,,,1.700494399992749,0.13572570000542328,,,,41,0,40,328.5714047999936,,,,,,,,,,,,,,,,,,,,,,,328.55527209996944,328.5714047999936,329.0566736999899,,,,,,,,,,,,,,,,,,,,,,,329.0653517000028,329.09014169999864,329.09014169999864,329.09014169999864,332.0671340000117,shoe,j,332.0671798000112,,,332.0671916999854,None,,,1.700494399992749,0.13572570000542328,,,,,,,,,,,00054,001,2026-01-18_18h59.11.419,MST_task,2024.2.0,60.02635156633984,2026-01-18 19h01.01.694545 +0530,
,Objects\033a.jpg,41,0,42,,,,,,,None,j,None,None,,,,,,42,0,41,332.08369140001014,,,,,,,,,,,,,,,,,,,,,,,332.0672956999624,332.08369140001014,332.56906889996026,,,,,,,,,,,,,,,,,,,,,,,332.5719445999712,332.5856182000134,332.5856182000134,332.5856182000134,335.5804205999593,shoe,None,335.5804591999622,335.5962000999716,335.5962000999716,335.74722739995923,j,None,None,,,,,,,,,,,,,00054,001,2026-01-18_18h59.11.419,MST_task,2024.2.0,60.02635156633984,2026-01-18 19h01.01.694545 +0530,
,Objects\238a.jpg,42,0,43,,,,,,,None,j,1.4979176000342704,None,,,,,,43,0,42,335.7632371999789,,,,,,,,,,,,,,,,,,,,,,,335.7473127999692,335.7632371999789,336.24843039998086,,,,,,,,,,,,,,,,,,,,,,,336.2577505999943,336.28170990000945,336.28170990000945,336.28170990000945,339.2588739999919,indoor,None,339.26048289996106,339.275651599979,339.275651599979,340.78164619999006,j,1.4979176000342704,None,,,,,,,,,,,,,00054,001,2026-01-18_18h59.11.419,MST_task,2024.2.0,60.02635156633984,2026-01-18 19h01.01.694545 +0530,
,Objects\314a.jpg,43,0,44,,,,,,,None,j,4.896188499988057,None,,,,,,44,0,43,340.7975437999703,,,,,,,,,,,,,,,,,,,,,,,340.7817336000153,340.7975437999703,341.28274739999324,,,,,,,,,,,,,,,,,,,,,,,341.2910487999907,341.3160102000111,341.3160102000111,341.3160102000111,344.2931575999828,indoor,None,344.29320979997283,344.3099528999883,344.3099528999883,349.2108971999842,j,4.896188499988057,None,,,,,,,,,,,,,00054,001,2026-01-18_18h59.11.419,MST_task,2024.2.0,60.02635156633984,2026-01-18 19h01.01.694545 +0530,
,Objects\360a.jpg,44,0,45,,,,,,,f,None,,,1.7500392000074498,0.10383219999494031,,,,45,0,44,349.2276714000036,,,,,,,,,,,,,,,,,,,,,,,349.2109865999664,349.2276714000036,349.71246509999037,,,,,,,,,,,,,,,,,,,,,,,349.7196738999919,349.72809069999494,349.72809069999494,349.72809069999494,352.72281519998796,indoor,f,352.72286229999736,,,352.72287499997765,None,,,1.7500392000074498,0.10383219999494031,,,,,,,,,,,00054,001,2026-01-18_18h59.11.419,MST_task,2024.2.0,60.02635156633984,2026-01-18 19h01.01.694545 +0530,
,Objects\011a.jpg,45,0,46,,,,,,,j,None,,,1.5571548999869265,0.13584990001982078,,,,46,0,45,352.7393535999581,,,,,,,,,,,,,,,,,,,,,,,352.72294509998756,352.7393535999581,353.2247003999655,,,,,,,,,,,,,,,,,,,,,,,353.23146129999077,353.24120970000513,353.24120970000513,353.24120970000513,356.2352734999731,indoor,j,356.2353187999688,,,356.23533039999893,None,,,1.5571548999869265,0.13584990001982078,,,,,,,,,,,00054,001,2026-01-18_18h59.11.419,MST_task,2024.2.0,60.02635156633984,2026-01-18 19h01.01.694545 +0530,
,Objects\081a.jpg,46,0,47,,,,,,,None,j,4.610039799998049,None,,,,,,47,0,46,356.2518446999602,,,,,,,,,,,,,,,,,,,,,,,356.2353984999936,356.2518446999602,356.7370605999604,,,,,,,,,,,,,,,,,,,,,,,356.73976149997907,356.7535589999752,356.7535589999752,356.7535589999752,359.7470760999713,indoor,None,359.74728579999646,359.76366140000755,359.76366140000755,364.38091569999233,j,4.610039799998049,None,,,,,,,,,,,,,00054,001,2026-01-18_18h59.11.419,MST_task,2024.2.0,60.02635156633984,2026-01-18 19h01.01.694545 +0530,
,Objects\382a.jpg,47,0,48,,,,,,,j,None,,,2.722712699964177,0.16004220000468194,,,,48,0,47,364.3969722999609,,,,,,,,,,,,,,,,,,,,,,,364.3810037999647,364.3969722999609,364.88192670000717,,,,,,,,,,,,,,,,,,,,,,,364.891260400007,364.9154295999906,364.9154295999906,364.9154295999906,367.8924735999899,indoor,j,367.89253109996207,,,367.8925434999983,None,,,2.722712699964177,0.16004220000468194,,,,,,,,,,,00054,001,2026-01-18_18h59.11.419,MST_task,2024.2.0,60.02635156633984,2026-01-18 19h01.01.694545 +0530,
,Objects\234a.jpg,48,0,49,,,,,,,None,f,0.08052780001889914,None,,,,,,49,0,48,367.9092418999644,,,,,,,,,,,,,,,,,,,,,,,367.8926106999861,367.9092418999644,368.39461339998525,,,,,,,,,,,,,,,,,,,,,,,368.40306310000597,368.4278729999787,368.4278729999787,368.4278729999787,371.40536109998357,indoor,None,371.4054127999698,371.42143250000663,371.42143250000663,371.50584599998547,f,0.08052780001889914,None,,,,,,,,,,,,,00054,001,2026-01-18_18h59.11.419,MST_task,2024.2.0,60.02635156633984,2026-01-18 19h01.01.694545 +0530,
,Objects\150a.jpg,49,0,50,,,,,,,None,j,None,None,,,,,,50,0,49,371.52180300001055,,,,,,,,,,,,,,,,,,,,,,,371.50597050000215,371.52180300001055,372.0072640000144,,,,,,,,,,,,,,,,,,,,,,,372.01155539997853,372.0235337999766,372.0235337999766,372.0235337999766,375.01754879998043,shoe,None,375.0189837999642,375.03410019999137,375.03410019999137,375.202216900012,j,None,None,,,,,,,,,,,,,00054,001,2026-01-18_18h59.11.419,MST_task,2024.2.0,60.02635156633984,2026-01-18 19h01.01.694545 +0530,
,Objects\355a.jpg,50,0,51,,,,,,,None,f,3.7804917999892496,None,,,,,,51,0,50,375.2183747999952,,,,,,,,,,,,,,,,,,,,,,,375.2023087000125,375.2183747999952,375.70316759997513,,,,,,,,,,,,,,,,,,,,,,,375.71193240000866,375.73666719999164,375.73666719999164,375.73666719999164,378.71373989997664,shoe,None,378.7137950999895,378.73044379998464,378.73044379998464,382.5276777999825,f,3.7804917999892496,None,,,,,,,,,,,,,00054,001,2026-01-18_18h59.11.419,MST_task,2024.2.0,60.02635156633984,2026-01-18 19h01.01.694545 +0530,
,Objects\381a.jpg,51,0,52,,,,,,,j,None,,,1.5272069000056945,0.1369092999957502,,,,52,0,51,382.54370809998363,,,,,,,,,,,,,,,,,,,,,,,382.52777210000204,382.54370809998363,383.029029599973,,,,,,,,,,,,,,,,,,,,,,,383.0360157999676,383.0622047999641,383.0622047999641,383.0622047999641,386.0394732999848,shoe,j,386.03951749997213,,,386.03952990000835,None,,,1.5272069000056945,0.1369092999957502,,,,,,,,,,,00054,001,2026-01-18_18h59.11.419,MST_task,2024.2.0,60.02635156633984,2026-01-18 19h01.01.694545 +0530,
,Objects\222a.jpg,52,0,53,,,,,,,j,None,,,1.551667699997779,0.14344479999272153,,,,53,0,52,386.0560159999877,,,,,,,,,,,,,,,,,,,,,,,386.0396574999904,386.0560159999877,386.54124009999214,,,,,,,,,,,,,,,,,,,,,,,386.54935059999116,386.57449470000574,386.57449470000574,386.57449470000574,389.5516448999988,shoe,j,389.55171279999195,,,389.55173120001564,None,,,1.551667699997779,0.14344479999272153,,,,,,,,,,,00054,001,2026-01-18_18h59.11.419,MST_task,2024.2.0,60.02635156633984,2026-01-18 19h01.01.694545 +0530,
,Objects\154a.jpg,53,0,54,,,,,,,None,j,1.341408699983731,None,,,,,,54,0,53,389.56843169999775,,,,,,,,,,,,,,,,,,,,,,,389.55195110000204,389.56843169999775,390.05341599998064,,,,,,,,,,,,,,,,,,,,,,,390.06101659999695,390.0869141999865,390.0869141999865,390.0869141999865,393.0640646999818,shoe,None,393.0641043999931,393.08061969996197,393.08061969996197,394.43602099997224,j,1.341408699983731,None,,,,,,,,,,,,,00054,001,2026-01-18_18h59.11.419,MST_task,2024.2.0,60.02635156633984,2026-01-18 19h01.01.694545 +0530,
,Objects\174a.jpg,54,0,55,,,,,,,j,None,,,1.3720769000356086,0.15222219994757324,,,,55,0,54,394.4520779000013,,,,,,,,,,,,,,,,,,,,,,,394.43615029996727,394.4520779000013,394.9372986999806,,,,,,,,,,,,,,,,,,,,,,,394.93989829998463,394.9538331999793,394.9538331999793,394.9538331999793,397.94802869996056,shoe,j,397.9480734000099,,,397.9480860999902,None,,,1.3720769000356086,0.15222219994757324,,,,,,,,,,,00054,001,2026-01-18_18h59.11.419,MST_task,2024.2.0,60.02635156633984,2026-01-18 19h01.01.694545 +0530,
,Objects\046a.jpg,55,0,56,,,,,,,f,None,,,2.9562389999628067,None,,,,56,0,55,397.9645628000144,,,,,,,,,,,,,,,,,,,,,,,397.9481963000144,397.9645628000144,398.449594900012,,,,,,,,,,,,,,,,,,,,,,,398.4522455999977,398.466133799986,398.466133799986,398.466133799986,401.4602439000155,shoe,f,401.46028800000204,,,401.4602997999755,None,,,2.9562389999628067,None,,,,,,,,,,,00054,001,2026-01-18_18h59.11.419,MST_task,2024.2.0,60.02635156633984,2026-01-18 19h01.01.694545 +0530,
,Objects\327a.jpg,56,0,57,,,,,,,None,f,0.7133237000089139,None,,,,,,57,0,56,401.4766793999588,,,,,,,,,,,,,,,,,,,,,,,401.4603827999672,401.4766793999588,401.9619655999704,,,,,,,,,,,,,,,,,,,,,,,401.97221599996556,401.99527529999614,401.99527529999614,401.99527529999614,404.9730673999875,indoor,None,404.9743819999858,404.9889885999728,404.9889885999728,405.70881839998765,f,0.7133237000089139,None,,,,,,,,,,,,,00054,001,2026-01-18_18h59.11.419,MST_task,2024.2.0,60.02635156633984,2026-01-18 19h01.01.694545 +0530,
,Objects\206a.jpg,57,0,58,,,,,,,j,None,,,2.3640108999679796,0.1521185000310652,,,,58,0,57,405.7249001999735,,,,,,,,,,,,,,,,,,,,,,,405.70890610001516,405.7249001999735,406.21022329997504,,,,,,,,,,,,,,,,,,,,,,,406.21635299996706,406.2259905000101,406.2259905000101,406.2259905000101,409.22236089996295,indoor,j,409.22241990000475,,,409.22243409999646,None,,,2.3640108999679796,0.1521185000310652,,,,,,,,,,,00054,001,2026-01-18_18h59.11.419,MST_task,2024.2.0,60.02635156633984,2026-01-18 19h01.01.694545 +0530,
,Objects\140a.jpg,58,0,59,,,,,,,j,None,,,2.9146017999737523,None,,,,59,0,58,409.2373501000111,,,,,,,,,,,,,,,,,,,,,,,409.222515499976,409.2373501000111,409.7230225999956,,,,,,,,,,,,,,,,,,,,,,,409.73139949998586,409.75568609999027,409.75568609999027,409.75568609999027,412.73301139997784,indoor,j,412.7330551999621,,,412.73306810000213,None,,,2.9146017999737523,None,409.75568609999027,,,,,,,,,,00054,001,2026-01-18_18h59.11.419,MST_task,2024.2.0,60.02635156633984,2026-01-18 19h01.01.694545 +0530,
,Objects\197a.jpg,59,0,60,,,,,,,f,None,,,1.210302599996794,0.11983899999177083,,,,60,0,59,412.74960450001527,,,,,,,,,,,,,,,,,,,,,,,412.73313790000975,412.74960450001527,413.2345769999665,,,,,,,,,,,,,,,,,,,,,,,413.23769739997806,413.2513562999666,413.2513562999666,413.2513562999666,416.245242999983,indoor,f,416.24528719997033,,,416.2452992000035,None,,,1.210302599996794,0.11983899999177083,,,,,,,,,,,00054,001,2026-01-18_18h59.11.419,MST_task,2024.2.0,60.02635156633984,2026-01-18 19h01.01.694545 +0530,
,Objects\370a.jpg,60,0,61,,,,,,,j,None,,,1.4103989000432193,0.13567639997927472,,,,61,0,60,416.26192590000574,,,,,,,,,,,,,,,,,,,,,,,416.2453688000096,416.26192590000574,416.7468854999752,,,,,,,,,,,,,,,,,,,,,,,416.7499262999627,416.76381039997796,416.76381039997796,416.76381039997796,419.75753399997484,indoor,j,419.7577437,,,419.7577562999795,None,,,1.4103989000432193,0.13567639997927472,,,,,,,,,,,00054,001,2026-01-18_18h59.11.419,MST_task,2024.2.0,60.02635156633984,2026-01-18 19h01.01.694545 +0530,
,Objects\375a.jpg,61,0,62,,,,,,,None,j,0.47983209998346865,None,,,,,,62,0,61,419.77408860001015,,,,,,,,,,,,,,,,,,,,,,,419.75782950001303,419.77408860001015,420.2594369999715,,,,,,,,,,,,,,,,,,,,,,,420.26691830001073,420.2925588999642,420.2925588999642,420.2925588999642,423.2698879999807,indoor,None,423.2699500999879,423.2865112000145,423.2865112000145,423.7720680999919,j,0.47983209998346865,None,,,,,,,,,,,,,00054,001,2026-01-18_18h59.11.419,MST_task,2024.2.0,60.02635156633984,2026-01-18 19h01.01.694545 +0530,
,Objects\028a.jpg,62,0,63,,,,,,,f,None,,,2.8837785000214353,None,,,,63,0,62,423.78826910001226,,,,,,,,,,,,,,,,,,,,,,,423.7721582999802,423.78826910001226,424.2732271999703,,,,,,,,,,,,,,,,,,,,,,,424.28182729997206,424.3067422999884,424.3067422999884,424.3067422999884,427.28390589996707,indoor,f,427.28394870000193,,,427.28396049997536,None,,,2.8837785000214353,None,,,,,,,,,,,00054,001,2026-01-18_18h59.11.419,MST_task,2024.2.0,60.02635156633984,2026-01-18 19h01.01.694545 +0530,
,Objects\352a.jpg,63,0,64,,,,,,,None,j,0.7616797999944538,None,,,,,,64,0,63,427.30044630001066,,,,,,,,,,,,,,,,,,,,,,,427.28402829996776,427.30044630001066,427.78569059999427,,,,,,,,,,,,,,,,,,,,,,,427.79520319995936,427.8189236999606,427.8189236999606,427.8189236999606,430.79607509996276,shoe,None,430.7975743999705,430.81301209999947,430.81301209999947,431.5828105999972,j,0.7616797999944538,None,,,,,,,,,,,,,00054,001,2026-01-18_18h59.11.419,MST_task,2024.2.0,60.02635156633984,2026-01-18 19h01.01.694545 +0530,
,Objects\041a.jpg,64,0,65,,,,,,,j,None,,,1.6331950000021607,0.16027569997822866,,,,65,0,64,431.5988440999645,,,,,,,,,,,,,,,,,,,,,,,431.5829012999893,431.5988440999645,432.0843104000087,,,,,,,,,,,,,,,,,,,,,,,432.0920790999662,432.11730849999003,432.11730849999003,432.11730849999003,435.09461889998056,shoe,j,435.09466649999376,,,435.0946790999733,None,,,1.6331950000021607,0.16027569997822866,,,,,,,,,,,00054,001,2026-01-18_18h59.11.419,MST_task,2024.2.0,60.02635156633984,2026-01-18 19h01.01.694545 +0530,
,Objects\084a.jpg,65,0,66,,,,,,,f,None,,,1.2410815000184812,0.09672689996659756,,,,66,0,65,435.1112665999681,,,,,,,,,,,,,,,,,,,,,,,435.09478859999217,435.1112665999681,435.59624139999505,,,,,,,,,,,,,,,,,,,,,,,435.5990621999954,435.6132618999691,435.6132618999691,435.6132618999691,438.6069860999705,shoe,f,438.607029900013,,,438.6070415999857,None,,,1.2410815000184812,0.09672689996659756,,,,,,,,,,,00054,001,2026-01-18_18h59.11.419,MST_task,2024.2.0,60.02635156633984,2026-01-18 19h01.01.694545 +0530,
,Objects\369a.jpg,66,0,67,,,,,,,f,None,,,1.440401199972257,0.1118750000023283,,,,67,0,66,438.6234400999965,,,,,,,,,,,,,,,,,,,,,,,438.6071612999658,438.6234400999965,439.10866600001464,,,,,,,,,,,,,,,,,,,,,,,439.11194039997645,439.1253005999606,439.1253005999606,439.1253005999606,442.119072499976,shoe,f,442.1191436999943,,,442.11915809998754,None,,,1.440401199972257,0.1118750000023283,,,,,,,,,,,00054,001,2026-01-18_18h59.11.419,MST_task,2024.2.0,60.02635156633984,2026-01-18 19h01.01.694545 +0530,
,Objects\097a.jpg,67,0,68,,,,,,,j,None,,,2.209027100005187,0.11927770002512261,,,,68,0,67,442.13586199999554,,,,,,,,,,,,,,,,,,,,,,,442.1192629999714,442.13586199999554,442.62081240001135,,,,,,,,,,,,,,,,,,,,,,,442.6241430999944,442.63779439998325,442.63779439998325,442.63779439998325,445.6315514000016,shoe,j,445.6315932999714,,,445.6316056000069,None,,,2.209027100005187,0.11927770002512261,,,,,,,,,,,00054,001,2026-01-18_18h59.11.419,MST_task,2024.2.0,60.02635156633984,2026-01-18 19h01.01.694545 +0530,
,Objects\128a.jpg,68,0,69,,,,,,,j,None,,,2.727727099962067,0.15994490002049133,,,,69,0,68,445.6481737999711,,,,,,,,,,,,,,,,,,,,,,,445.6316739000031,445.6481737999711,446.1334078999935,,,,,,,,,,,,,,,,,,,,,,,446.13618019997375,446.1500597000122,446.1500597000122,446.1500597000122,449.14384629996493,shoe,j,449.14388970000437,,,449.14390159997856,None,,,2.727727099962067,0.15994490002049133,,,,,,,,,,,00054,001,2026-01-18_18h59.11.419,MST_task,2024.2.0,60.02635156633984,2026-01-18 19h01.01.694545 +0530,
,Objects\127a.jpg,69,0,70,,,,,,,None,j,0.11691189999692142,None,,,,,,70,0,69,449.16060599999037,,,,,,,,,,,,,,,,,,,,,,,449.1439917999669,449.16060599999037,449.645580100012,,,,,,,,,,,,,,,,,,,,,,,449.6483406999614,449.6624119000044,449.6624119000044,449.6624119000044,452.6559661999927,shoe,None,452.6560046999948,452.67291389999446,452.67291389999446,452.7903759999899,j,0.11691189999692142,None,,,,,,,,,,,,,00054,001,2026-01-18_18h59.11.419,MST_task,2024.2.0,60.02635156633984,2026-01-18 19h01.01.694545 +0530,
,Objects\147a.jpg,70,0,71,,,,,,,f,None,,,2.257267299981322,0.07209700002567843,,,,71,0,70,452.80673780001234,,,,,,,,,,,,,,,,,,,,,,,452.79046009999,452.80673780001234,453.2917214999907,,,,,,,,,,,,,,,,,,,,,,,453.29578849999234,453.30860910000047,453.30860910000047,453.30860910000047,456.30259119998664,indoor,f,456.30429999995977,,,456.30431889998727,None,,,2.257267299981322,0.07209700002567843,,,,,,,,,,,00054,001,2026-01-18_18h59.11.419,MST_task,2024.2.0,60.02635156633984,2026-01-18 19h01.01.694545 +0530,
,Objects\316a.jpg,71,0,72,,,,,,,None,f,None,None,,,,,,72,0,71,456.318929400004,,,,,,,,,,,,,,,,,,,,,,,456.3043883999926,456.318929400004,456.8041368999984,,,,,,,,,,,,,,,,,,,,,,,456.81196640001144,456.83722739998484,456.83722739998484,456.83722739998484,459.81436680001207,indoor,None,459.8144414999988,459.8311531000072,459.8311531000072,459.96562679996714,f,None,None,,,456.83722739998484,,,,,,,,,,00054,001,2026-01-18_18h59.11.419,MST_task,2024.2.0,60.02635156633984,2026-01-18 19h01.01.694545 +0530,
,Objects\071a.jpg,72,0,73,,,,,,,j,None,,,1.8008091000374407,0.13668729999335483,,,,73,0,72,459.98155600001337,,,,,,,,,,,,,,,,,,,,,,,459.96570860000793,459.98155600001337,460.46697629999835,,,,,,,,,,,,,,,,,,,,,,,460.474927800009,460.50070470001083,460.50070470001083,460.50070470001083,463.4771706999745,indoor,j,463.47725060000084,,,463.4772651999956,None,,,1.8008091000374407,0.13668729999335483,,,,,,,,,,,00054,001,2026-01-18_18h59.11.419,MST_task,2024.2.0,60.02635156633984,2026-01-18 19h01.01.694545 +0530,
,Objects\291a.jpg,73,0,74,,,,,,,None,f,0.49595000001136214,None,,,,,,74,0,73,463.4939685999998,,,,,,,,,,,,,,,,,,,,,,,463.4773346000002,463.4939685999998,463.97911909996765,,,,,,,,,,,,,,,,,,,,,,,463.99581629998283,464.012450899987,464.012450899987,464.012450899987,466.9897704999894,indoor,None,466.98981479997747,467.0061541000032,467.0061541000032,467.50873629999114,f,0.49595000001136214,None,,,,,,,,,,,,,00054,001,2026-01-18_18h59.11.419,MST_task,2024.2.0,60.02635156633984,2026-01-18 19h01.01.694545 +0530,
,Objects\201a.jpg,74,0,75,,,,,,,f,None,,,2.5005068999598734,0.11999770003603771,,,,75,0,74,467.5247628999641,,,,,,,,,,,,,,,,,,,,,,,467.5088258999749,467.5247628999641,468.0097203999758,,,,,,,,,,,,,,,,,,,,,,,468.0173698000144,468.02569270000095,468.02569270000095,468.02569270000095,471.02027310000267,indoor,f,471.02031689998694,,,471.0203290999634,None,,,2.5005068999598734,0.11999770003603771,,,,,,,,,,,00054,001,2026-01-18_18h59.11.419,MST_task,2024.2.0,60.02635156633984,2026-01-18 19h01.01.694545 +0530,
,Objects\215a.jpg,75,0,76,,,,,,,None,f,0.5288093999843113,None,,,,,,76,0,75,471.037054699962,,,,,,,,,,,,,,,,,,,,,,,471.0203986999695,471.037054699962,471.5221923000063,,,,,,,,,,,,,,,,,,,,,,,471.5299703999772,471.55553209997015,471.55553209997015,471.55553209997015,474.5325798999984,indoor,None,474.53261850000126,474.5493486999767,474.5493486999767,475.0852131000138,f,0.5288093999843113,None,,,,,,,,,,,,,00054,001,2026-01-18_18h59.11.419,MST_task,2024.2.0,60.02635156633984,2026-01-18 19h01.01.694545 +0530,
,Objects\115a.jpg,76,0,77,,,,,,,f,None,,,1.843094400013797,0.14439410000341013,,,,77,0,76,475.1013268000097,,,,,,,,,,,,,,,,,,,,,,,475.0853069999721,475.1013268000097,475.58638880000217,,,,,,,,,,,,,,,,,,,,,,,475.58902549999766,475.60293079999974,475.60293079999974,475.60293079999974,478.5973108999897,indoor,f,478.59735619998537,,,478.5973689999664,None,,,1.843094400013797,0.14439410000341013,,,,,,,,,,,00054,001,2026-01-18_18h59.11.419,MST_task,2024.2.0,60.02635156633984,2026-01-18 19h01.01.694545 +0530,
,Objects\258a.jpg,77,0,78,,,,,,,None,f,1.640249699994456,None,,,,,,78,0,77,478.61359679995803,,,,,,,,,,,,,,,,,,,,,,,478.5974431000068,478.61359679995803,479.0988103999989,,,,,,,,,,,,,,,,,,,,,,,479.1087572000106,479.13195750000887,479.13195750000887,479.13195750000887,482.10908069997095,shoe,None,482.1106851999648,482.1258845999837,482.1258845999837,483.7822970999987,f,1.640249699994456,None,,,,,,,,,,,,,00054,001,2026-01-18_18h59.11.419,MST_task,2024.2.0,60.02635156633984,2026-01-18 19h01.01.694545 +0530,
,Objects\153a.jpg,78,0,79,,,,,,,None,j,0.054999499989207834,None,,,,,,79,0,78,483.7984049000079,,,,,,,,,,,,,,,,,,,,,,,483.78238699998474,483.7984049000079,484.283368400007,,,,,,,,,,,,,,,,,,,,,,,484.29980959999375,484.31688659999054,484.31688659999054,484.31688659999054,487.2941440999857,shoe,None,487.29432609997457,487.3106654000003,487.3106654000003,487.3781938999891,j,0.054999499989207834,None,,,,,,,,,,,,,00054,001,2026-01-18_18h59.11.419,MST_task,2024.2.0,60.02635156633984,2026-01-18 19h01.01.694545 +0530,
,Objects\337a.jpg,79,0,80,,,,,,,None,j,3.819510899949819,None,,,,,,80,0,79,487.3943399999989,,,,,,,,,,,,,,,,,,,,,,,487.3782801000052,487.3943399999989,487.8793476999854,,,,,,,,,,,,,,,,,,,,,,,487.88835560000734,487.91293150000274,487.91293150000274,487.91293150000274,490.8898658999824,shoe,None,490.88990690000355,490.9066365999752,490.9066365999752,494.73772979999194,j,3.819510899949819,None,,,,,,,,,,,,,00054,001,2026-01-18_18h59.11.419,MST_task,2024.2.0,60.02635156633984,2026-01-18 19h01.01.694545 +0530,
,Objects\004a.jpg,80,0,81,,,,,,,f,None,,,2.070351500005927,0.12804009998217225,,,,81,0,80,494.7534430999658,,,,,,,,,,,,,,,,,,,,,,,494.73781819996657,494.7534430999658,495.23839469999075,,,,,,,,,,,,,,,,,,,,,,,495.2468949999893,495.27210389997344,495.27210389997344,495.27210389997344,498.24925599998096,shoe,f,498.249302399985,,,498.24931479996303,None,,,2.070351500005927,0.12804009998217225,,,,,,,,,,,00054,001,2026-01-18_18h59.11.419,MST_task,2024.2.0,60.02635156633984,2026-01-18 19h01.01.694545 +0530,
,Objects\190a.jpg,81,0,82,,,,,,,f,None,,,0.9105789000168443,0.1036788999917917,,,,82,0,81,498.26561790000414,,,,,,,,,,,,,,,,,,,,,,,498.24940400000196,498.26561790000414,498.75083059997996,,,,,,,,,,,,,,,,,,,,,,,498.75458319997415,498.76736379996873,498.76736379996873,498.76736379996873,501.7615980000119,shoe,f,501.7616552999825,,,501.76166759995976,None,,,0.9105789000168443,0.1036788999917917,,,,,,,,,,,00054,001,2026-01-18_18h59.11.419,MST_task,2024.2.0,60.02635156633984,2026-01-18 19h01.01.694545 +0530,
,Objects\135a.jpg,82,0,83,,,,,,,f,None,,,0.9038664000108838,0.11003729997901246,,,,83,0,82,501.77793300000485,,,,,,,,,,,,,,,,,,,,,,,501.7617375999689,501.77793300000485,502.2631365999696,,,,,,,,,,,,,,,,,,,,,,,502.2660745999892,502.27991019998444,502.27991019998444,502.27991019998444,505.27383889997145,shoe,f,505.27388719999,,,505.2738990999642,None,,,0.9038664000108838,0.11003729997901246,,,,,,,,,,,00054,001,2026-01-18_18h59.11.419,MST_task,2024.2.0,60.02635156633984,2026-01-18 19h01.01.694545 +0530,
,Objects\343a.jpg,83,0,84,,,,,,,None,j,0.4755748999887146,None,,,,,,84,0,83,505.29021939996164,,,,,,,,,,,,,,,,,,,,,,,505.27402419998543,505.29021939996164,505.77556280000135,,,,,,,,,,,,,,,,,,,,,,,505.78030009998474,505.79196579998825,505.79196579998825,505.79196579998825,508.78587099997094,shoe,None,508.7859136000043,508.8026424999698,508.8026424999698,509.2884829000104,j,0.4755748999887146,None,,,,,,,,,,,,,00054,001,2026-01-18_18h59.11.419,MST_task,2024.2.0,60.02635156633984,2026-01-18 19h01.01.694545 +0530,
,Objects\194a.jpg,84,0,85,,,,,,,None,f,0.4614947999943979,None,,,,,,85,0,84,509.304393599974,,,,,,,,,,,,,,,,,,,,,,,509.2885776999756,509.304393599974,509.78939069999615,,,,,,,,,,,,,,,,,,,,,,,509.797347499989,509.82287380000344,509.82287380000344,509.82287380000344,512.800036599976,indoor,None,512.8013345999643,512.8165821000002,512.8165821000002,513.2856024999637,f,0.4614947999943979,None,,,,,,,,,,,,,00054,001,2026-01-18_18h59.11.419,MST_task,2024.2.0,60.02635156633984,2026-01-18 19h01.01.694545 +0530,
,Objects\359a.jpg,85,0,86,,,,,,,None,f,0.6157321000355296,None,,,,,,86,0,85,513.3017301000073,,,,,,,,,,,,,,,,,,,,,,,513.2856912999996,513.3017301000073,513.7867050999776,,,,,,,,,,,,,,,,,,,,,,,513.7964259000146,513.8203321999754,513.8203321999754,513.8203321999754,516.7974557999987,indoor,None,516.7974976999685,516.8138996000052,516.8138996000052,517.4336288999766,f,0.6157321000355296,None,,,,,,,,,,,,,00054,001,2026-01-18_18h59.11.419,MST_task,2024.2.0,60.02635156633984,2026-01-18 19h01.01.694545 +0530,
,Objects\118a.jpg,86,0,87,,,,,,,j,None,,,2.0224555999739096,0.18310200003907084,,,,87,0,86,517.4494629999972,,,,,,,,,,,,,,,,,,,,,,,517.433717900014,517.4494629999972,517.9346702999901,,,,,,,,,,,,,,,,,,,,,,,517.9521294999868,517.9679380999878,517.9679380999878,517.9679380999878,520.9451298000058,indoor,j,520.9451903000008,,,520.9452032999834,None,,,2.0224555999739096,0.18310200003907084,,,,,,,,,,,00054,001,2026-01-18_18h59.11.419,MST_task,2024.2.0,60.02635156633984,2026-01-18 19h01.01.694545 +0530,
,Objects\212a.jpg,87,0,88,,,,,,,j,None,,,0.9653403999982402,0.15321229997789487,,,,88,0,87,520.9618877999601,,,,,,,,,,,,,,,,,,,,,,,520.9452736999956,520.9618877999601,521.4469129999634,,,,,,,,,,,,,,,,,,,,,,,521.4561550999642,521.4803536999971,521.4803536999971,521.4803536999971,524.457502699981,indoor,j,524.4575453000143,,,524.4575566999847,None,,,0.9653403999982402,0.15321229997789487,,,,,,,,,,,00054,001,2026-01-18_18h59.11.419,MST_task,2024.2.0,60.02635156633984,2026-01-18 19h01.01.694545 +0530,
,Objects\331a.jpg,88,0,89,,,,,,,None,j,0.5798939000233077,None,,,,,,89,0,88,524.4740840999875,,,,,,,,,,,,,,,,,,,,,,,524.4576251999824,524.4740840999875,524.9592566000065,,,,,,,,,,,,,,,,,,,,,,,524.9664014999871,524.9756648999755,524.9756648999755,524.9756648999755,527.9699890000047,indoor,None,527.9700283000129,527.9863874000148,527.9863874000148,528.5725734999869,j,0.5798939000233077,None,,,,,,,,,,,,,00054,001,2026-01-18_18h59.11.419,MST_task,2024.2.0,60.02635156633984,2026-01-18 19h01.01.694545 +0530,
,Objects\340a.jpg,89,0,90,,,,,,,j,None,,,1.0598536999896169,0.12666130001889542,,,,90,0,89,528.5884812999866,,,,,,,,,,,,,,,,,,,,,,,528.572669599962,528.5884812999866,529.073819399986,,,,,,,,,,,,,,,,,,,,,,,529.0814006999717,529.1068815999897,529.1068815999897,529.1068815999897,532.0842555999989,indoor,j,532.0842991999816,,,532.0843116999604,None,,,1.0598536999896169,0.12666130001889542,,,,,,,,,,,00054,001,2026-01-18_18h59.11.419,MST_task,2024.2.0,60.02635156633984,2026-01-18 19h01.01.694545 +0530,
,Objects\276a.jpg,90,0,91,,,,,,,j,None,,,2.794824799988419,0.1276670999941416,,,,91,0,90,532.1010179999867,,,,,,,,,,,,,,,,,,,,,,,532.0845339999651,532.1010179999867,532.5858866999624,,,,,,,,,,,,,,,,,,,,,,,532.5940824999707,532.6193742000032,532.6193742000032,532.6193742000032,535.596519899962,indoor,j,535.5965711000026,,,535.5965827999753,None,,,2.794824799988419,0.1276670999941416,,,,,,,,,,,00054,001,2026-01-18_18h59.11.419,MST_task,2024.2.0,60.02635156633984,2026-01-18 19h01.01.694545 +0530,
,Objects\229a.jpg,91,0,92,,,,,,,f,None,,,1.8027788000181317,0.07897199998842552,,,,92,0,91,535.6130783999688,,,,,,,,,,,,,,,,,,,,,,,535.5966871000128,535.6130783999688,536.0984616999631,,,,,,,,,,,,,,,,,,,,,,,536.1085941999918,536.1315475999727,536.1315475999727,536.1315475999727,539.1083697999711,shoe,f,539.1110631999909,,,539.111082999967,None,,,1.8027788000181317,0.07897199998842552,,,,,,,,,,,00054,001,2026-01-18_18h59.11.419,MST_task,2024.2.0,60.02635156633984,2026-01-18 19h01.01.694545 +0530,
,Objects\374a.jpg,92,0,93,,,,,,,j,None,,,1.6580823000404052,0.15995619999011979,,,,93,0,92,539.1247062999755,,,,,,,,,,,,,,,,,,,,,,,539.1111545999884,539.1247062999755,539.6108593000099,,,,,,,,,,,,,,,,,,,,,,,539.6196261000005,539.6441300999722,539.6441300999722,539.6441300999722,542.6209292999702,shoe,j,542.6209948000032,,,542.6210117999581,None,,,1.6580823000404052,0.15995619999011979,539.6441300999722,,,,,,,,,,00054,001,2026-01-18_18h59.11.419,MST_task,2024.2.0,60.02635156633984,2026-01-18 19h01.01.694545 +0530,
,Objects\049a.jpg,93,0,94,,,,,,,f,None,,,1.715661300055217,0.09523649996845052,,,,94,0,93,542.6373619000078,,,,,,,,,,,,,,,,,,,,,,,542.6211744999746,542.6373619000078,543.1225779000088,,,,,,,,,,,,,,,,,,,,,,,543.1301659999881,543.1384487999603,543.1384487999603,543.1384487999603,546.1330178999924,shoe,f,546.1330658000079,,,546.1330782999867,None,,,1.715661300055217,0.09523649996845052,,,,,,,,,,,00054,001,2026-01-18_18h59.11.419,MST_task,2024.2.0,60.02635156633984,2026-01-18 19h01.01.694545 +0530,
,Objects\090a.jpg,94,0,95,,,,,,,f,None,,,2.874619000009261,None,,,,95,0,94,546.149803999986,,,,,,,,,,,,,,,,,,,,,,,546.1331494000042,546.149803999986,546.635484999977,,,,,,,,,,,,,,,,,,,,,,,546.6386645999737,546.6515039000078,546.6515039000078,546.6515039000078,549.6453224999714,shoe,f,549.6453804000048,,,549.6453948999988,None,,,2.874619000009261,None,,,,,,,,,,,00054,001,2026-01-18_18h59.11.419,MST_task,2024.2.0,60.02635156633984,2026-01-18 19h01.01.694545 +0530,
,Objects\151a.jpg,95,0,96,,,,,,,j,None,,,1.9376770000089891,0.13594609999563545,,,,96,0,95,549.6621073000133,,,,,,,,,,,,,,,,,,,,,,,549.6457398000057,549.6621073000133,550.147086300014,,,,,,,,,,,,,,,,,,,,,,,550.1500618999708,550.1638262000051,550.1638262000051,550.1638262000051,553.1575748999603,shoe,j,553.1576180999982,,,553.1576297999709,None,,,1.9376770000089891,0.13594609999563545,,,,,,,,,,,00054,001,2026-01-18_18h59.11.419,MST_task,2024.2.0,60.02635156633984,2026-01-18 19h01.01.694545 +0530,
,Objects\078a.jpg,96,0,97,,,,,,,j,None,,,1.7382443000096828,0.15172020002501085,,,,97,0,96,553.1743914000108,,,,,,,,,,,,,,,,,,,,,,,553.1576977999648,553.1743914000108,553.6593511999818,,,,,,,,,,,,,,,,,,,,,,,553.6626023999997,553.6761845999863,553.6761845999863,553.6761845999863,556.6698921999778,shoe,j,556.6699363999651,,,556.6699479999952,None,,,1.7382443000096828,0.15172020002501085,,,,,,,,,,,00054,001,2026-01-18_18h59.11.419,MST_task,2024.2.0,60.02635156633984,2026-01-18 19h01.01.694545 +0530,
,Objects\289a.jpg,97,0,98,,,,,,,f,None,,,1.3121910999761894,0.12022580002667382,,,,98,0,97,556.6868122000014,,,,,,,,,,,,,,,,,,,,,,,556.6700169999967,556.6868122000014,557.1716530999984,,,,,,,,,,,,,,,,,,,,,,,557.180950000009,557.2051362000057,557.2051362000057,557.2051362000057,560.1824162999983,shoe,f,560.1827234000084,,,560.1827390000108,None,,,1.3121910999761894,0.12022580002667382,,,,,,,,,,,00054,001,2026-01-18_18h59.11.419,MST_task,2024.2.0,60.02635156633984,2026-01-18 19h01.01.694545 +0530,
,Objects\051a.jpg,98,0,99,,,,,,,j,None,,,2.3440907999756746,0.14437290001660585,,,,99,0,98,560.1988791999756,,,,,,,,,,,,,,,,,,,,,,,560.1828084999579,560.1988791999756,560.6847312999889,,,,,,,,,,,,,,,,,,,,,,,560.7007283999701,560.7173221000121,560.7173221000121,560.7173221000121,563.6949848000077,indoor,j,563.6965473999735,,,563.6965685999603,None,,,2.3440907999756746,0.14437290001660585,,,,,,,,,,,00054,001,2026-01-18_18h59.11.419,MST_task,2024.2.0,60.02635156633984,2026-01-18 19h01.01.694545 +0530,
,Objects\364a.jpg,99,0,100,,,,,,,j,None,,,1.833547800022643,0.11999380000634119,,,,100,0,99,563.7113073999644,,,,,,,,,,,,,,,,,,,,,,,563.6966429000022,563.7113073999644,564.1968483999954,,,,,,,,,,,,,,,,,,,,,,,564.2038392999675,564.2122260999749,564.2122260999749,564.2122260999749,567.2067564000026,indoor,j,567.2068100000033,,,567.2068232999882,None,,,1.833547800022643,0.11999380000634119,564.2122260999749,,,,,,,,,,00054,001,2026-01-18_18h59.11.419,MST_task,2024.2.0,60.02635156633984,2026-01-18 19h01.01.694545 +0530,
,Objects\175a.jpg,100,0,101,,,,,,,f,None,,,2.801302600011695,0.10329669999191537,,,,101,0,100,567.2235946999863,,,,,,,,,,,,,,,,,,,,,,,567.2068891999661,567.2235946999863,567.7085553999641,,,,,,,,,,,,,,,,,,,,,,,567.7163894000114,567.7246872999822,567.7246872999822,567.7246872999822,570.7192740999744,indoor,f,570.719329399988,,,570.7193420999683,None,,,2.801302600011695,0.10329669999191537,,,,,,,,,,,00054,001,2026-01-18_18h59.11.419,MST_task,2024.2.0,60.02635156633984,2026-01-18 19h01.01.694545 +0530,
,Objects\290a.jpg,101,0,102,,,,,,,j,None,,,2.312406499986537,0.11958709999453276,,,,102,0,101,570.7358861999819,,,,,,,,,,,,,,,,,,,,,,,570.7195736999856,570.7358861999819,571.2210228999611,,,,,,,,,,,,,,,,,,,,,,,571.2289650999592,571.2377174000139,571.2377174000139,571.2377174000139,574.2315346999676,indoor,j,574.2315798999625,,,574.2315923999995,None,,,2.312406499986537,0.11958709999453276,,,,,,,,,,,00054,001,2026-01-18_18h59.11.419,MST_task,2024.2.0,60.02635156633984,2026-01-18 19h01.01.694545 +0530,
,Objects\029a.jpg,102,0,103,,,,,,,f,None,,,1.8078927000169642,0.08093090000329539,,,,103,0,102,574.2482055000146,,,,,,,,,,,,,,,,,,,,,,,574.2317118999781,574.2482055000146,574.7332843999611,,,,,,,,,,,,,,,,,,,,,,,574.7415633999626,574.7494452999672,574.7494452999672,574.7494452999672,577.7438005000004,indoor,f,577.7438421999686,,,577.743854100001,None,,,1.8078927000169642,0.08093090000329539,,,,,,,,,,,00054,001,2026-01-18_18h59.11.419,MST_task,2024.2.0,60.02635156633984,2026-01-18 19h01.01.694545 +0530,
,Objects\031a.jpg,103,0,104,,,,,,,None,f,0.38925589999416843,None,,,,,,104,0,103,577.760355299979,,,,,,,,,,,,,,,,,,,,,,,577.7439318000106,577.760355299979,578.2457461999729,,,,,,,,,,,,,,,,,,,,,,,578.248785600008,578.2620876000146,578.2620876000146,578.2620876000146,581.2559715000098,indoor,None,581.2560112999636,581.2729229999823,581.2729229999823,581.6747960000066,f,0.38925589999416843,None,,,,,,,,,,,,,00054,001,2026-01-18_18h59.11.419,MST_task,2024.2.0,60.02635156633984,2026-01-18 19h01.01.694545 +0530,
,Objects\267a.jpg,104,0,105,,,,,,,None,f,1.7621348000247963,None,,,,,,105,0,104,581.6908150999807,,,,,,,,,,,,,,,,,,,,,,,581.6748820999637,581.6908150999807,582.176627399982,,,,,,,,,,,,,,,,,,,,,,,582.1848759999848,582.209234000009,582.209234000009,582.209234000009,585.1863963999785,indoor,None,585.1864407999674,585.2032159999944,585.2032159999944,586.9767474000109,f,1.7621348000247963,None,,,,,,,,,,,,,00054,001,2026-01-18_18h59.11.419,MST_task,2024.2.0,60.02635156633984,2026-01-18 19h01.01.694545 +0530,
,Objects\286a.jpg,105,0,106,,,,,,,j,None,,,2.0079737000050955,0.11942489998182282,,,,106,0,105,586.992687299964,,,,,,,,,,,,,,,,,,,,,,,586.9768391000107,586.992687299964,587.4780895999866,,,,,,,,,,,,,,,,,,,,,,,587.4850758999819,587.4939730999758,587.4939730999758,587.4939730999758,590.4884342000005,shoe,j,590.4908842999721,,,590.4909057999612,None,,,2.0079737000050955,0.11942489998182282,,,,,,,,,,,00054,001,2026-01-18_18h59.11.419,MST_task,2024.2.0,60.02635156633984,2026-01-18 19h01.01.694545 +0530,
,Objects\285a.jpg,106,0,107,,,,,,,f,None,,,2.5028366000042297,0.15996849996736273,,,,107,0,106,590.5050117999781,,,,,,,,,,,,,,,,,,,,,,,590.4909896999598,590.5050117999781,590.9908004999743,,,,,,,,,,,,,,,,,,,,,,,590.9998554000049,591.0234633999644,591.0234633999644,591.0234633999644,594.0005896000075,shoe,f,594.0006323999842,,,594.0006451999652,None,,,2.5028366000042297,0.15996849996736273,591.0234633999644,,,,,,,,,,00054,001,2026-01-18_18h59.11.419,MST_task,2024.2.0,60.02635156633984,2026-01-18 19h01.01.694545 +0530,
,Objects\020a.jpg,107,0,108,,,,,,,f,None,,,1.5744174999999814,0.08165240002563223,,,,108,0,107,594.017672099988,,,,,,,,,,,,,,,,,,,,,,,594.0007112000021,594.017672099988,594.5023818999762,,,,,,,,,,,,,,,,,,,,,,,594.5052285999991,594.5192581000156,594.5192581000156,594.5192581000156,597.5130264000036,shoe,f,597.5130711999955,,,597.5130828999681,None,,,1.5744174999999814,0.08165240002563223,,,,,,,,,,,00054,001,2026-01-18_18h59.11.419,MST_task,2024.2.0,60.02635156633984,2026-01-18 19h01.01.694545 +0530,
,Objects\192a.jpg,108,0,109,,,,,,,f,None,,,1.3027259999653324,0.09554300003219396,,,,109,0,108,597.5295977999922,,,,,,,,,,,,,,,,,,,,,,,597.5131925999885,597.5295977999922,598.0148064999958,,,,,,,,,,,,,,,,,,,,,,,598.0179799000034,598.031436899968,598.031436899968,598.031436899968,601.0255846999935,shoe,f,601.0256336999591,,,601.0256469000014,None,,,1.3027259999653324,0.09554300003219396,,,,,,,,,,,00054,001,2026-01-18_18h59.11.419,MST_task,2024.2.0,60.02635156633984,2026-01-18 19h01.01.694545 +0530,
,Objects\226a.jpg,109,0,110,,,,,,,None,f,2.4129015000071377,None,,,,,,110,0,109,601.0426290999749,,,,,,,,,,,,,,,,,,,,,,,601.0257252000156,601.0426290999749,601.5275326999836,,,,,,,,,,,,,,,,,,,,,,,601.5440043999697,601.5608907999704,601.5608907999704,601.5608907999704,604.5376670999685,shoe,None,604.537706299976,604.5543069000123,604.5543069000123,606.980104999966,f,2.4129015000071377,None,,,,,,,,,,,,,00054,001,2026-01-18_18h59.11.419,MST_task,2024.2.0,60.02635156633984,2026-01-18 19h01.01.694545 +0530,
,Objects\356a.jpg,110,0,111,,,,,,,f,None,,,1.7252941000042483,0.11176190001424402,,,,111,0,110,606.9962030999595,,,,,,,,,,,,,,,,,,,,,,,606.9801970999688,606.9962030999595,607.4814742999733,,,,,,,,,,,,,,,,,,,,,,,607.4884385999758,607.4973973999731,607.4973973999731,607.4973973999731,610.492310200003,shoe,f,610.492364500009,,,610.4923933999962,None,,,1.7252941000042483,0.11176190001424402,,,,,,,,,,,00054,001,2026-01-18_18h59.11.419,MST_task,2024.2.0,60.02635156633984,2026-01-18 19h01.01.694545 +0530,
,Objects\117a.jpg,111,0,112,,,,,,,j,None,,,2.5140116999973543,0.176355000003241,,,,112,0,111,610.5089781999704,,,,,,,,,,,,,,,,,,,,,,,610.4924670999753,610.5089781999704,610.993770800007,,,,,,,,,,,,,,,,,,,,,,,611.0025382000022,611.0274213000084,611.0274213000084,611.0274213000084,614.004713399976,shoe,j,614.0047568000155,,,614.0047681999858,None,,,2.5140116999973543,0.176355000003241,,,,,,,,,,,00054,001,2026-01-18_18h59.11.419,MST_task,2024.2.0,60.02635156633984,2026-01-18 19h01.01.694545 +0530,
,Objects\204a.jpg,112,0,113,,,,,,,j,None,,,2.835049999994226,None,,,,113,0,112,614.0209807999781,,,,,,,,,,,,,,,,,,,,,,,614.0048365999828,614.0209807999781,614.5061865999596,,,,,,,,,,,,,,,,,,,,,,,614.5105590999592,614.522721199959,614.522721199959,614.522721199959,617.5167146999738,indoor,j,617.518259799981,,,617.5182761999895,None,,,2.835049999994226,None,,,,,,,,,,,00054,001,2026-01-18_18h59.11.419,MST_task,2024.2.0,60.02635156633984,2026-01-18 19h01.01.694545 +0530,
,Objects\299a.jpg,113,0,114,,,,,,,j,None,,,1.5062879000324756,0.1445953999646008,,,,114,0,113,617.5332629999612,,,,,,,,,,,,,,,,,,,,,,,617.5183445999864,617.5332629999612,618.0184649999719,,,,,,,,,,,,,,,,,,,,,,,618.0267419999582,618.0517492999788,618.0517492999788,618.0517492999788,621.028908999986,indoor,j,621.0289533999749,,,621.0289659000118,None,,,1.5062879000324756,0.1445953999646008,,,,,,,,,,,00054,001,2026-01-18_18h59.11.419,MST_task,2024.2.0,60.02635156633984,2026-01-18 19h01.01.694545 +0530,
,Objects\324a.jpg,114,0,115,,,,,,,None,j,3.1443467999924906,None,,,,,,115,0,114,621.0456960999873,,,,,,,,,,,,,,,,,,,,,,,621.0290377999772,621.0456960999873,621.5309550999664,,,,,,,,,,,,,,,,,,,,,,,621.539805700013,621.5641641999828,621.5641641999828,621.5641641999828,624.541314299975,indoor,None,624.541355399997,624.5578565999749,624.5578565999749,627.7030104000005,j,3.1443467999924906,None,,,,,,,,,,,,,00054,001,2026-01-18_18h59.11.419,MST_task,2024.2.0,60.02635156633984,2026-01-18 19h01.01.694545 +0530,
,Objects\344a.jpg,115,0,116,,,,,,,j,None,,,2.1143790999776684,0.13518560002557933,,,,116,0,115,627.7190558000002,,,,,,,,,,,,,,,,,,,,,,,627.7030984999728,627.7190558000002,628.204143400013,,,,,,,,,,,,,,,,,,,,,,,628.2106774999993,628.2200162999798,628.2200162999798,628.2200162999798,631.214571599965,indoor,j,631.2146494999761,,,631.2146637999685,None,,,2.1143790999776684,0.13518560002557933,,,,,,,,,,,00054,001,2026-01-18_18h59.11.419,MST_task,2024.2.0,60.02635156633984,2026-01-18 19h01.01.694545 +0530,
,Objects\281a.jpg,116,0,117,,,,,,,None,f,2.10226989997318,None,,,,,,117,0,116,631.2313556000008,,,,,,,,,,,,,,,,,,,,,,,631.2147341999807,631.2313556000008,631.7163824999589,,,,,,,,,,,,,,,,,,,,,,,631.7249420000007,631.7498413000139,631.7498413000139,631.7498413000139,634.7269026999711,indoor,None,634.7269414999755,634.7436578999623,634.7436578999623,636.8517417999683,f,2.10226989997318,None,,,,,,,,,,,,,00054,001,2026-01-18_18h59.11.419,MST_task,2024.2.0,60.02635156633984,2026-01-18 19h01.01.694545 +0530,
,Objects\254a.jpg,117,0,118,,,,,,,j,None,,,1.1640428999671713,0.1439187999931164,,,,118,0,117,636.8677755999961,,,,,,,,,,,,,,,,,,,,,,,636.8518336999696,636.8677755999961,637.3530514999875,,,,,,,,,,,,,,,,,,,,,,,637.3626866000122,637.3861303000012,637.3861303000012,637.3861303000012,640.3632813000004,indoor,j,640.3633244999801,,,640.3633368000155,None,,,1.1640428999671713,0.1439187999931164,,,,,,,,,,,00054,001,2026-01-18_18h59.11.419,MST_task,2024.2.0,60.02635156633984,2026-01-18 19h01.01.694545 +0530,
,Objects\203a.jpg,118,0,119,,,,,,,None,f,0.8096922000404447,None,,,,,,119,0,118,640.3800600999966,,,,,,,,,,,,,,,,,,,,,,,640.363429799967,640.3800600999966,640.8650218999828,,,,,,,,,,,,,,,,,,,,,,,640.8751993000042,640.8986741999979,640.8986741999979,640.8986741999979,643.8757045000093,indoor,None,643.8757439999608,643.892230700003,643.892230700003,644.7127839999739,f,0.8096922000404447,None,,,,,,,,,,,,,00054,001,2026-01-18_18h59.11.419,MST_task,2024.2.0,60.02635156633984,2026-01-18 19h01.01.694545 +0530,
,Objects\134a.jpg,119,0,120,,,,,,,j,None,,,1.7520136999664828,0.14341509999940172,,,,120,0,119,644.7286688999739,,,,,,,,,,,,,,,,,,,,,,,644.7128940999974,644.7286688999739,645.2138667000108,,,,,,,,,,,,,,,,,,,,,,,645.2236499999999,645.2471604999737,645.2471604999737,645.2471604999737,648.2241341999616,shoe,j,648.2260946999886,,,648.2261123000062,None,,,1.7520136999664828,0.14341509999940172,,,,,,,,,,,00054,001,2026-01-18_18h59.11.419,MST_task,2024.2.0,60.02635156633984,2026-01-18 19h01.01.694545 +0530,
,Objects\353a.jpg,120,0,121,,,,,,,None,f,2.541388100013137,None,,,,,,121,0,120,648.2410344000091,,,,,,,,,,,,,,,,,,,,,,,648.226225499995,648.2410344000091,648.7263467999874,,,,,,,,,,,,,,,,,,,,,,,648.7330779999611,648.7594246999943,648.7594246999943,648.7594246999943,651.7365503999754,shoe,None,651.7365936000133,651.753097000008,651.753097000008,654.2961095999926,f,2.541388100013137,None,,,648.7594246999943,,,,,,,,,,00054,001,2026-01-18_18h59.11.419,MST_task,2024.2.0,60.02635156633984,2026-01-18 19h01.01.694545 +0530,
,Objects\321a.jpg,121,0,122,,,,,,,f,None,,,0.9910765000386164,0.09561509999912232,,,,122,0,121,654.3121858999948,,,,,,,,,,,,,,,,,,,,,,,654.2962016999954,654.3121858999948,654.7972917999723,,,,,,,,,,,,,,,,,,,,,,,654.8058974999585,654.8306686999858,654.8306686999858,654.8306686999858,657.8078083000146,shoe,f,657.8080003999639,,,657.808013700007,None,,,0.9910765000386164,0.09561509999912232,,,,,,,,,,,00054,001,2026-01-18_18h59.11.419,MST_task,2024.2.0,60.02635156633984,2026-01-18 19h01.01.694545 +0530,
,Objects\266a.jpg,122,0,123,,,,,,,j,None,,,1.3507634000270627,0.1279897999484092,,,,123,0,122,657.824492499989,,,,,,,,,,,,,,,,,,,,,,,657.808084099961,657.824492499989,658.3095646000002,,,,,,,,,,,,,,,,,,,,,,,658.3269094999996,658.3431332999608,658.3431332999608,658.3431332999608,661.3205734000076,shoe,j,661.3206215999671,,,661.3206345000071,None,,,1.3507634000270627,0.1279897999484092,,,,,,,,,,,00054,001,2026-01-18_18h59.11.419,MST_task,2024.2.0,60.02635156633984,2026-01-18 19h01.01.694545 +0530,
,Objects\152a.jpg,123,0,124,,,,,,,f,None,,,1.3739143999991938,0.09693290002178401,,,,124,0,123,661.3367881000158,,,,,,,,,,,,,,,,,,,,,,,661.3207109000068,661.3367881000158,661.821997299965,,,,,,,,,,,,,,,,,,,,,,,661.8307589999749,661.8556607000064,661.8556607000064,661.8556607000064,664.8324063000036,shoe,f,664.8324497999856,,,664.8324620999629,None,,,1.3739143999991938,0.09693290002178401,,,,,,,,,,,00054,001,2026-01-18_18h59.11.419,MST_task,2024.2.0,60.02635156633984,2026-01-18 19h01.01.694545 +0530,
,Objects\037a.jpg,124,0,125,,,,,,,f,None,,,0.9584936000173911,0.08050919999368489,,,,125,0,124,664.8489741999656,,,,,,,,,,,,,,,,,,,,,,,664.8325752000092,664.8489741999656,665.3344303999911,,,,,,,,,,,,,,,,,,,,,,,665.3377526999684,665.3512347000069,665.3512347000069,665.3512347000069,668.3448690999649,shoe,f,668.3449306999682,,,668.3449436000083,None,,,0.9584936000173911,0.08050919999368489,,,,,,,,,,,00054,001,2026-01-18_18h59.11.419,MST_task,2024.2.0,60.02635156633984,2026-01-18 19h01.01.694545 +0530,
,Objects\138a.jpg,125,0,126,,,,,,,j,None,,,1.4625739000039175,0.144713599991519,,,,126,0,125,668.361401800008,,,,,,,,,,,,,,,,,,,,,,,668.3450480999891,668.361401800008,668.8463455999736,,,,,,,,,,,,,,,,,,,,,,,668.8494587999885,668.8631213000044,668.8631213000044,668.8631213000044,671.856895999983,shoe,j,671.8569416999817,,,671.8569539999589,None,,,1.4625739000039175,0.144713599991519,,,,,,,,,,,00054,001,2026-01-18_18h59.11.419,MST_task,2024.2.0,60.02635156633984,2026-01-18 19h01.01.694545 +0530,
,Objects\133a.jpg,126,0,127,,,,,,,f,None,,,1.110990600020159,0.0952019999967888,,,,127,0,126,671.8736927999998,,,,,,,,,,,,,,,,,,,,,,,671.8572224999662,671.8736927999998,672.3586756999721,,,,,,,,,,,,,,,,,,,,,,,672.3643110999838,672.3752555999672,672.3752555999672,672.3752555999672,675.3693050000002,indoor,f,675.3706190999947,,,675.3706376999617,None,,,1.110990600020159,0.0952019999967888,,,,,,,,,,,00054,001,2026-01-18_18h59.11.419,MST_task,2024.2.0,60.02635156633984,2026-01-18 19h01.01.694545 +0530,
,Objects\023a.jpg,127,0,128,,,,,,,f,None,,,1.2300726000103168,0.0720185000100173,,,,128,0,127,675.3859908999875,,,,,,,,,,,,,,,,,,,,,,,675.3707085999777,675.3859908999875,675.8710525999777,,,,,,,,,,,,,,,,,,,,,,,675.8737904999871,675.8877328999806,675.8877328999806,675.8877328999806,678.8815311999642,indoor,f,678.8815892999992,,,678.8816015999764,None,,,1.2300726000103168,0.0720185000100173,,,,,,,,,,,00054,001,2026-01-18_18h59.11.419,MST_task,2024.2.0,60.02635156633984,2026-01-18 19h01.01.694545 +0530,
,Objects\158a.jpg,128,0,129,,,,,,,f,None,,,0.8937975000008009,0.07989230001112446,,,,129,0,128,678.8983023999608,,,,,,,,,,,,,,,,,,,,,,,678.8818188000005,678.8983023999608,679.383253499982,,,,,,,,,,,,,,,,,,,,,,,679.3866017999826,679.4000408999855,679.4000408999855,679.4000408999855,682.3940576000023,indoor,f,682.3941018999903,,,682.3941144999699,None,,,0.8937975000008009,0.07989230001112446,,,,,,,,,,,00054,001,2026-01-18_18h59.11.419,MST_task,2024.2.0,60.02635156633984,2026-01-18 19h01.01.694545 +0530,
,Objects\064a.jpg,129,0,130,,,,,,,j,None,,,1.4944745000102557,0.12838909996207803,,,,130,0,129,682.4105789999594,,,,,,,,,,,,,,,,,,,,,,,682.3941854999866,682.4105789999594,682.8955483000027,,,,,,,,,,,,,,,,,,,,,,,682.8984475999605,682.9123291000142,682.9123291000142,682.9123291000142,685.9063805000042,indoor,j,685.906433199998,,,685.9064471999882,None,,,1.4944745000102557,0.12838909996207803,,,,,,,,,,,00054,001,2026-01-18_18h59.11.419,MST_task,2024.2.0,60.02635156633984,2026-01-18 19h01.01.694545 +0530,
,Objects\239a.jpg,130,0,131,,,,,,,f,None,,,2.524064199998975,0.0807321000029333,,,,131,0,130,685.9228274999768,,,,,,,,,,,,,,,,,,,,,,,685.9065241999924,685.9228274999768,686.4081517999875,,,,,,,,,,,,,,,,,,,,,,,686.4166732999729,686.441376200004,686.441376200004,686.441376200004,689.4184060000116,indoor,f,689.4184632999822,,,689.4184756999603,None,,,2.524064199998975,0.0807321000029333,,,,,,,,,,,00054,001,2026-01-18_18h59.11.419,MST_task,2024.2.0,60.02635156633984,2026-01-18 19h01.01.694545 +0530,
,Objects\279a.jpg,131,0,132,,,,,,,j,None,,,1.8199377999990247,0.15239459997974336,,,,132,0,131,689.435178100015,,,,,,,,,,,,,,,,,,,,,,,689.4188278999645,689.435178100015,689.9201968999696,,,,,,,,,,,,,,,,,,,,,,,689.9289128999808,689.953655899968,689.953655899968,689.953655899968,692.9308333999943,indoor,j,692.9308767999755,,,692.9308886000072,None,,,1.8199377999990247,0.15239459997974336,,,,,,,,,,,00054,001,2026-01-18_18h59.11.419,MST_task,2024.2.0,60.02635156633984,2026-01-18 19h01.01.694545 +0530,
,Objects\053a.jpg,132,0,133,,,,,,,f,None,,,0.7736601000069641,0.10305109998444095,,,,133,0,132,692.9473691000021,,,,,,,,,,,,,,,,,,,,,,,692.9309596999665,692.9473691000021,693.4326991999988,,,,,,,,,,,,,,,,,,,,,,,693.435835799959,693.44936769997,693.44936769997,693.44936769997,696.4430995999719,indoor,f,696.4434209999745,,,696.443433700013,None,,,0.7736601000069641,0.10305109998444095,,,,,,,,,,,00054,001,2026-01-18_18h59.11.419,MST_task,2024.2.0,60.02635156633984,2026-01-18 19h01.01.694545 +0530,
,Objects\232a.jpg,133,0,134,,,,,,,f,None,,,2.0275856999796815,0.12871490005636588,,,,134,0,133,696.4596620000084,,,,,,,,,,,,,,,,,,,,,,,696.4435059999814,696.4596620000084,696.9448567999643,,,,,,,,,,,,,,,,,,,,,,,696.9625512000057,696.9781578999828,696.9781578999828,696.9781578999828,699.9552834999631,shoe,f,699.9572415999719,,,699.9572614000062,None,,,2.0275856999796815,0.12871490005636588,,,,,,,,,,,00054,001,2026-01-18_18h59.11.419,MST_task,2024.2.0,60.02635156633984,2026-01-18 19h01.01.694545 +0530,
,Objects\054a.jpg,134,0,135,,,,,,,j,None,,,0.8043163999682292,0.1273586000315845,,,,135,0,134,699.972092699958,,,,,,,,,,,,,,,,,,,,,,,699.9573316999595,699.972092699958,700.4574972999981,,,,,,,,,,,,,,,,,,,,,,,700.466902599961,700.4905540999607,700.4905540999607,700.4905540999607,703.4675854999805,shoe,j,703.4676424000063,,,703.4676566999988,None,,,0.8043163999682292,0.1273586000315845,700.4905540999607,,,,,,,,,,00054,001,2026-01-18_18h59.11.419,MST_task,2024.2.0,60.02635156633984,2026-01-18 19h01.01.694545 +0530,
,Objects\214a.jpg,135,0,136,,,,,,,f,None,,,1.7632131000282243,0.11305459996219724,,,,136,0,135,703.484360100003,,,,,,,,,,,,,,,,,,,,,,,703.4680268999655,703.484360100003,703.9696440999978,,,,,,,,,,,,,,,,,,,,,,,703.9725460999762,703.9861077999813,703.9861077999813,703.9861077999813,706.9806018999661,shoe,f,706.9806515999953,,,706.9806639999733,None,,,1.7632131000282243,0.11305459996219724,,,,,,,,,,,00054,001,2026-01-18_18h59.11.419,MST_task,2024.2.0,60.02635156633984,2026-01-18 19h01.01.694545 +0530,
,Objects\067a.jpg,136,0,137,,,,,,,f,None,,,1.2979512000456452,0.10597659996710718,,,,137,0,136,706.9967795999837,,,,,,,,,,,,,,,,,,,,,,,706.9807346999878,706.9967795999837,707.4820478999754,,,,,,,,,,,,,,,,,,,,,,,707.4849214999704,707.4993926999741,707.4993926999741,707.4993926999741,710.4924432999687,shoe,f,710.4924907999812,,,710.4925042999675,None,,,1.2979512000456452,0.10597659996710718,,,,,,,,,,,00054,001,2026-01-18_18h59.11.419,MST_task,2024.2.0,60.02635156633984,2026-01-18 19h01.01.694545 +0530,
,Objects\365a.jpg,137,0,138,,,,,,,f,None,,,1.2262017999892123,0.14432700001634657,,,,138,0,137,710.509508099989,,,,,,,,,,,,,,,,,,,,,,,710.4925823999802,710.509508099989,710.9942177999765,,,,,,,,,,,,,,,,,,,,,,,711.0014505999861,711.0281286999816,711.0281286999816,711.0281286999816,714.0045001999824,shoe,f,714.0045599999721,,,714.0045868000016,None,,,1.2262017999892123,0.14432700001634657,,,,,,,,,,,00054,001,2026-01-18_18h59.11.419,MST_task,2024.2.0,60.02635156633984,2026-01-18 19h01.01.694545 +0530,
,Objects\022a.jpg,138,0,139,,,,,,,j,None,,,2.1777816000394523,0.14357660000678152,,,,139,0,138,714.0214105999912,,,,,,,,,,,,,,,,,,,,,,,714.0049565999652,714.0214105999912,714.5064184999792,,,,,,,,,,,,,,,,,,,,,,,714.5155249999953,714.5398525999626,714.5398525999626,714.5398525999626,717.5174157000147,shoe,j,717.5175440000021,,,717.5175908000092,None,,,2.1777816000394523,0.14357660000678152,,,,,,,,,,,00054,001,2026-01-18_18h59.11.419,MST_task,2024.2.0,60.02635156633984,2026-01-18 19h01.01.694545 +0530,
,Objects\145a.jpg,139,0,140,,,,,,,f,None,,,1.9154667999828234,0.09620339999673888,,,,140,0,139,717.5335028999834,,,,,,,,,,,,,,,,,,,,,,,717.5178097999888,717.5335028999834,718.0186661999905,,,,,,,,,,,,,,,,,,,,,,,718.0214722999954,718.0352147999802,718.0352147999802,718.0352147999802,721.029088100011,shoe,f,721.0291318999953,,,721.0291445999756,None,,,1.9154667999828234,0.09620339999673888,,,,,,,,,,,00054,001,2026-01-18_18h59.11.419,MST_task,2024.2.0,60.02635156633984,2026-01-18 19h01.01.694545 +0530,
,Objects\125a.jpg,140,0,141,,,,,,,j,None,,,1.5301822000183165,0.15225280000595376,,,,141,0,140,721.0458679000149,,,,,,,,,,,,,,,,,,,,,,,721.0294398000115,721.0458679000149,721.5309225000092,,,,,,,,,,,,,,,,,,,,,,,721.5351487000007,721.5476127999718,721.5476127999718,721.5476127999718,724.5415310999961,indoor,j,724.5429192999727,,,724.5429404999595,None,,,1.5301822000183165,0.15225280000595376,,,,,,,,,,,00054,001,2026-01-18_18h59.11.419,MST_task,2024.2.0,60.02635156633984,2026-01-18 19h01.01.694545 +0530,
,Objects\180a.jpg,141,0,142,,,,,,,f,None,,,1.1862576000276022,0.10306479997234419,,,,142,0,141,724.5583007999812,,,,,,,,,,,,,,,,,,,,,,,724.5430144999991,724.5583007999812,725.0431587999919,,,,,,,,,,,,,,,,,,,,,,,725.0470220000134,725.0599270999664,725.0599270999664,725.0599270999664,728.0537967999699,indoor,f,728.0538392000017,,,728.0538511999766,None,,,1.1862576000276022,0.10306479997234419,,,,,,,,,,,00054,001,2026-01-18_18h59.11.419,MST_task,2024.2.0,60.02635156633984,2026-01-18 19h01.01.694545 +0530,
,Objects\063a.jpg,142,0,143,,,,,,,j,None,,,2.9697991000139154,None,,,,143,0,142,728.0704628999811,,,,,,,,,,,,,,,,,,,,,,,728.0539188999683,728.0704628999811,728.5554502999876,,,,,,,,,,,,,,,,,,,,,,,728.5588304999983,728.5722177000134,728.5722177000134,728.5722177000134,731.5660724999616,indoor,j,731.5661155999987,,,731.5661280999775,None,,,2.9697991000139154,None,,,,,,,,,,,00054,001,2026-01-18_18h59.11.419,MST_task,2024.2.0,60.02635156633984,2026-01-18 19h01.01.694545 +0530,
,Objects\205a.jpg,143,0,144,,,,,,,None,f,1.087088100030087,None,,,,,,144,0,143,731.5828830999671,,,,,,,,,,,,,,,,,,,,,,,731.5661965999752,731.5828830999671,732.067748899979,,,,,,,,,,,,,,,,,,,,,,,732.0761965999845,732.101245799975,732.101245799975,732.101245799975,735.0784083000035,indoor,None,735.0784467000049,735.0950946999947,735.0950946999947,736.1832250999869,f,1.087088100030087,None,,,,,,,,,,,,,00054,001,2026-01-18_18h59.11.419,MST_task,2024.2.0,60.02635156633984,2026-01-18 19h01.01.694545 +0530,
,Objects\149a.jpg,144,0,145,,,,,,,f,None,,,1.8559105999884196,0.1363077000132762,,,,145,0,144,736.1989909000113,,,,,,,,,,,,,,,,,,,,,,,736.1833173999912,736.1989909000113,736.68422190001,,,,,,,,,,,,,,,,,,,,,,,736.6922958999639,736.7175105999922,736.7175105999922,736.7175105999922,739.6945981999743,indoor,f,739.6949173999601,,,739.694931200007,None,,,1.8559105999884196,0.1363077000132762,,,,,,,,,,,00054,001,2026-01-18_18h59.11.419,MST_task,2024.2.0,60.02635156633984,2026-01-18 19h01.01.694545 +0530,
,Objects\177a.jpg,145,0,146,,,,,,,j,None,,,1.0887926999712363,0.12138660001801327,,,,146,0,145,739.7111250999733,,,,,,,,,,,,,,,,,,,,,,,739.6950042999815,739.7111250999733,740.1963346999837,,,,,,,,,,,,,,,,,,,,,,,740.1990409999853,740.2128689999809,740.2128689999809,740.2128689999809,743.2068886999623,indoor,j,743.2070770999999,,,743.2070898999809,None,,,1.0887926999712363,0.12138660001801327,,,,,,,,,,,00054,001,2026-01-18_18h59.11.419,MST_task,2024.2.0,60.02635156633984,2026-01-18 19h01.01.694545 +0530,
,Objects\296a.jpg,146,0,147,,,,,,,j,None,,,2.9288182000163943,None,,,,147,0,146,743.2234274999937,,,,,,,,,,,,,,,,,,,,,,,743.2071591999847,743.2234274999937,743.708783900016,,,,,,,,,,,,,,,,,,,,,,,743.7153446999728,743.72454809997,743.72454809997,743.72454809997,746.7192479000078,indoor,j,746.7192899999791,,,746.7193016000092,None,,,2.9288182000163943,None,,,,,,,,,,,00054,001,2026-01-18_18h59.11.419,MST_task,2024.2.0,60.02635156633984,2026-01-18 19h01.01.694545 +0530,
,Objects\287a.jpg,147,0,148,,,,,,,None,j,0.7656788000022061,None,,,,,,148,0,147,746.7358295000158,,,,,,,,,,,,,,,,,,,,,,,746.7193971999804,746.7358295000158,747.2209458000143,,,,,,,,,,,,,,,,,,,,,,,747.229192800005,747.2543791999924,747.2543791999924,747.2543791999924,750.2313762999838,shoe,None,750.2333924999693,750.2482804000028,750.2482804000028,751.0186167999636,j,0.7656788000022061,None,,,,,,,,,,,,,00054,001,2026-01-18_18h59.11.419,MST_task,2024.2.0,60.02635156633984,2026-01-18 19h01.01.694545 +0530,
,Objects\317a.jpg,148,0,149,,,,,,,j,None,,,1.2209132999996655,0.12792060000356287,,,,149,0,148,751.034295099962,,,,,,,,,,,,,,,,,,,,,,,751.0187092999695,751.034295099962,751.5195413999609,,,,,,,,,,,,,,,,,,,,,,,751.527617899992,751.5533498000004,751.5533498000004,751.5533498000004,754.5297694999608,shoe,j,754.5298271999927,,,754.5298399999738,None,,,1.2209132999996655,0.12792060000356287,,,,,,,,,,,00054,001,2026-01-18_18h59.11.419,MST_task,2024.2.0,60.02635156633984,2026-01-18 19h01.01.694545 +0530,
,Objects\264a.jpg,149,0,150,,,,,,,f,None,,,1.2695070000481792,0.11168439994798973,,,,150,0,149,754.5466521999915,,,,,,,,,,,,,,,,,,,,,,,754.5299478999805,754.5466521999915,755.0315017999965,,,,,,,,,,,,,,,,,,,,,,,755.0377838999848,755.048444999964,755.048444999964,755.048444999964,758.0420313999639,shoe,f,758.0420749000041,,,758.0420876999851,None,,,1.2695070000481792,0.11168439994798973,,,,,,,,,,,00054,001,2026-01-18_18h59.11.419,MST_task,2024.2.0,60.02635156633984,2026-01-18 19h01.01.694545 +0530,
,Objects\326a.jpg,150,0,151,,,,,,,f,None,,,0.6126491000177339,0.10403190000215545,,,,151,0,150,758.0588250000146,,,,,,,,,,,,,,,,,,,,,,,758.0423374999664,758.0588250000146,758.5438057999709,,,,,,,,,,,,,,,,,,,,,,,758.554531199974,758.5774257999728,758.5774257999728,758.5774257999728,761.5544556999812,shoe,f,761.5545028999913,,,761.5545153999701,None,,,0.6126491000177339,0.10403190000215545,,,,,,,,,,,00054,001,2026-01-18_18h59.11.419,MST_task,2024.2.0,60.02635156633984,2026-01-18 19h01.01.694545 +0530,
,Objects\220a.jpg,151,0,152,,,,,,,j,None,,,1.3802008000202477,0.14520789997186512,,,,152,0,151,761.5710083000013,,,,,,,,,,,,,,,,,,,,,,,761.5545846999739,761.5710083000013,762.0563566999626,,,,,,,,,,,,,,,,,,,,,,,762.0651649999782,762.0894894999801,762.0894894999801,762.0894894999801,765.0666943999822,shoe,j,765.06676159997,,,765.0667807999998,None,,,1.3802008000202477,0.14520789997186512,,,,,,,,,,,00054,001,2026-01-18_18h59.11.419,MST_task,2024.2.0,60.02635156633984,2026-01-18 19h01.01.694545 +0530,
,Objects\265a.jpg,152,0,153,,,,,,,j,None,,,0.9882669000071473,0.13535620004404336,,,,153,0,152,765.0835411999724,,,,,,,,,,,,,,,,,,,,,,,765.0670176999993,765.0835411999724,765.568558799976,,,,,,,,,,,,,,,,,,,,,,,765.5759169000085,765.6020796999801,765.6020796999801,765.6020796999801,768.579201799992,shoe,j,768.579243599961,,,768.5792558999965,None,,,0.9882669000071473,0.13535620004404336,,,,,,,,,,,00054,001,2026-01-18_18h59.11.419,MST_task,2024.2.0,60.02635156633984,2026-01-18 19h01.01.694545 +0530,
,Objects\089a.jpg,153,0,154,,,,,,,j,None,,,1.4278007000102662,0.1280343999969773,,,,154,0,153,768.5957670999924,,,,,,,,,,,,,,,,,,,,,,,768.5793242999935,768.5957670999924,769.0809568999684,,,,,,,,,,,,,,,,,,,,,,,769.0899456999614,769.1142507999903,769.1142507999903,769.1142507999903,772.0912241999758,shoe,j,772.0912660000031,,,772.0912780999788,None,,,1.4278007000102662,0.1280343999969773,,,,,,,,,,,00054,001,2026-01-18_18h59.11.419,MST_task,2024.2.0,60.02635156633984,2026-01-18 19h01.01.694545 +0530,
,Objects\306a.jpg,154,0,155,,,,,,,f,None,,,1.2594672000268474,0.1039877999573946,,,,155,0,154,772.1080296,,,,,,,,,,,,,,,,,,,,,,,772.0913889000076,772.1080296,772.5930029999581,,,,,,,,,,,,,,,,,,,,,,,772.600937500014,772.6264946999727,772.6264946999727,772.6264946999727,775.6041789999581,indoor,f,775.6054735999787,,,775.6054938999587,None,,,1.2594672000268474,0.1039877999573946,,,,,,,,,,,00054,001,2026-01-18_18h59.11.419,MST_task,2024.2.0,60.02635156633984,2026-01-18 19h01.01.694545 +0530,
,Objects\244a.jpg,155,0,156,,,,,,,f,None,,,1.4675862999865785,0.11282669997308403,,,,156,0,155,775.620507100015,,,,,,,,,,,,,,,,,,,,,,,775.60556549998,775.620507100015,776.1063396999962,,,,,,,,,,,,,,,,,,,,,,,776.1114481000113,776.1218839999638,776.1218839999638,776.1218839999638,779.1160116000101,indoor,f,779.1160541999852,,,779.1160658999579,None,,,1.4675862999865785,0.11282669997308403,,,,,,,,,,,00054,001,2026-01-18_18h59.11.419,MST_task,2024.2.0,60.02635156633984,2026-01-18 19h01.01.694545 +0530,
,Objects\363a.jpg,156,0,157,,,,,,,j,None,,,2.6663272000150755,0.12861449999036267,,,,157,0,156,779.1327828000067,,,,,,,,,,,,,,,,,,,,,,,779.1161351999617,779.1327828000067,779.617762000009,,,,,,,,,,,,,,,,,,,,,,,779.6265697999625,779.6512722999905,779.6512722999905,779.6512722999905,782.6282482999959,indoor,j,782.6282916999771,,,782.6283041000133,None,,,2.6663272000150755,0.12861449999036267,,,,,,,,,,,00054,001,2026-01-18_18h59.11.419,MST_task,2024.2.0,60.02635156633984,2026-01-18 19h01.01.694545 +0530,
,Objects\362a.jpg,157,0,158,,,,,,,j,None,,,1.0503112999722362,0.13735680002719164,,,,158,0,157,782.6448043999844,,,,,,,,,,,,,,,,,,,,,,,782.628374199965,782.6448043999844,783.1301942999708,,,,,,,,,,,,,,,,,,,,,,,783.137365099974,783.1632693000138,783.1632693000138,783.1632693000138,786.1404512999579,indoor,j,786.1404947999981,,,786.1405067999731,None,,,1.0503112999722362,0.13735680002719164,,,,,,,,,,,00054,001,2026-01-18_18h59.11.419,MST_task,2024.2.0,60.02635156633984,2026-01-18 19h01.01.694545 +0530,
,Objects\169a.jpg,158,0,159,,,,,,,j,None,,,2.9219131999998353,None,,,,159,0,158,786.1574004999711,,,,,,,,,,,,,,,,,,,,,,,786.1408635000116,786.1574004999711,786.6424031999777,,,,,,,,,,,,,,,,,,,,,,,786.6513778999797,786.675828300009,786.675828300009,786.675828300009,789.6528370999731,indoor,j,789.6529062999762,,,789.6529189000139,None,,,2.9219131999998353,None,,,,,,,,,,,00054,001,2026-01-18_18h59.11.419,MST_task,2024.2.0,60.02635156633984,2026-01-18 19h01.01.694545 +0530,
,Objects\219a.jpg,159,0,160,,,,,,,j,None,,,1.6671541000250727,0.1606781999580562,,,,160,0,159,789.6699891999597,,,,,,,,,,,,,,,,,,,,,,,789.6529892999679,789.6699891999597,790.1546002000105,,,,,,,,,,,,,,,,,,,,,,,790.1583647999796,790.1711544999853,790.1711544999853,790.1711544999853,793.1652604999836,indoor,j,793.1654723999673,,,793.1654871999635,None,,,1.6671541000250727,0.1606781999580562,,,,,,,,,,,00054,001,2026-01-18_18h59.11.419,MST_task,2024.2.0,60.02635156633984,2026-01-18 19h01.01.694545 +0530,
,Objects\309a.jpg,160,0,161,,,,,,,None,f,5.415749200037681,None,,,,,,161,0,160,793.1817003999604,,,,,,,,,,,,,,,,,,,,,,,793.1655598999932,793.1817003999604,793.6669081000146,,,,,,,,,,,,,,,,,,,,,,,793.6738005999941,793.6829378000111,793.6829378000111,793.6829378000111,796.6778712999658,indoor,None,796.6779405999696,796.6939994000131,796.6939994000131,802.1139074999955,f,5.415749200037681,None,,,,,,,,,,,,,00054,001,2026-01-18_18h59.11.419,MST_task,2024.2.0,60.02635156633984,2026-01-18 19h01.01.694545 +0530,
,Objects\137a.jpg,161,0,162,,,,,,,j,None,,,2.029772900044918,0.14393909997306764,,,,162,0,161,802.129808800004,,,,,,,,,,,,,,,,,,,,,,,802.1139945999603,802.129808800004,802.6148188000079,,,,,,,,,,,,,,,,,,,,,,,802.6254322999739,802.648295299965,802.648295299965,802.648295299965,805.6254477999755,shoe,j,805.6271937999991,,,805.6272127999691,None,,,2.029772900044918,0.14393909997306764,,,,,,,,,,,00054,001,2026-01-18_18h59.11.419,MST_task,2024.2.0,60.02635156633984,2026-01-18 19h01.01.694545 +0530,
,Objects\188a.jpg,162,0,163,,,,,,,f,None,,,1.5020330999977887,0.14421610004501417,,,,163,0,162,805.6420094000059,,,,,,,,,,,,,,,,,,,,,,,805.6272830999806,805.6420094000059,806.1275083000073,,,,,,,,,,,,,,,,,,,,,,,806.1306937999907,806.1440230999724,806.1440230999724,806.1440230999724,809.1378526999615,shoe,f,809.1380455999752,,,809.1380608999752,None,,,1.5020330999977887,0.14421610004501417,806.1440230999724,,,,,,,,,,00054,001,2026-01-18_18h59.11.419,MST_task,2024.2.0,60.02635156633984,2026-01-18 19h01.01.694545 +0530,
,Objects\367a.jpg,163,0,164,,,,,,,j,None,,,0.9985676999785937,0.16788950003683567,,,,164,0,163,809.1542938000057,,,,,,,,,,,,,,,,,,,,,,,809.1381835999782,809.1542938000057,809.6395084999967,,,,,,,,,,,,,,,,,,,,,,,809.6459565999685,809.6553991999826,809.6553991999826,809.6553991999826,812.6500282000052,shoe,j,812.6503385999822,,,812.6503530999762,None,,,0.9985676999785937,0.16788950003683567,,,,,,,,,,,00054,001,2026-01-18_18h59.11.419,MST_task,2024.2.0,60.02635156633984,2026-01-18 19h01.01.694545 +0530,
,Objects\210a.jpg,164,0,165,,,,,,,f,None,,,1.3513817999628372,0.11924530001124367,,,,165,0,164,812.6665869000135,,,,,,,,,,,,,,,,,,,,,,,812.6504252000013,812.6665869000135,813.1518082999974,,,,,,,,,,,,,,,,,,,,,,,813.1590425999602,813.167794500012,813.167794500012,813.167794500012,816.1627780999988,shoe,f,816.162827299966,,,816.162842199963,None,,,1.3513817999628372,0.11924530001124367,,,,,,,,,,,00054,001,2026-01-18_18h59.11.419,MST_task,2024.2.0,60.02635156633984,2026-01-18 19h01.01.694545 +0530,
,Objects\059a.jpg,165,0,166,,,,,,,None,j,0.8746640000026673,None,,,,,,166,0,165,816.1788934000069,,,,,,,,,,,,,,,,,,,,,,,816.1629172000103,816.1788934000069,816.6640925999964,,,,,,,,,,,,,,,,,,,,,,,816.6723523999681,816.6973741999827,816.6973741999827,816.6973741999827,819.6746424000012,shoe,None,819.674695499998,819.6913119999808,819.6913119999808,820.5783352999715,j,0.8746640000026673,None,,,,,,,,,,,,,00054,001,2026-01-18_18h59.11.419,MST_task,2024.2.0,60.02635156633984,2026-01-18 19h01.01.694545 +0530,
,Objects\187a.jpg,166,0,167,,,,,,,f,None,,,0.9259895000141114,0.12778189999517053,,,,167,0,166,820.5944564999663,,,,,,,,,,,,,,,,,,,,,,,820.5784653999726,820.5944564999663,821.0794515999733,,,,,,,,,,,,,,,,,,,,,,,821.0829232999822,821.0962125000078,821.0962125000078,821.0962125000078,824.0900020999834,shoe,f,824.0900578000001,,,824.0900703999796,None,,,0.9259895000141114,0.12778189999517053,,,,,,,,,,,00054,001,2026-01-18_18h59.11.419,MST_task,2024.2.0,60.02635156633984,2026-01-18 19h01.01.694545 +0530,
,Objects\060a.jpg,167,0,168,,,,,,,j,None,,,2.4288613000535406,0.12888779997592792,,,,168,0,167,824.1067600999959,,,,,,,,,,,,,,,,,,,,,,,824.0905763999908,824.1067600999959,824.5917206999729,,,,,,,,,,,,,,,,,,,,,,,824.5953588999691,824.6085656000068,824.6085656000068,824.6085656000068,827.6023917999701,shoe,j,827.6025928999879,,,827.6026059999713,None,,,2.4288613000535406,0.12888779997592792,,,,,,,,,,,00054,001,2026-01-18_18h59.11.419,MST_task,2024.2.0,60.02635156633984,2026-01-18 19h01.01.694545 +0530,
,Objects\371a.jpg,168,0,169,,,,,,,j,None,,,2.7323922000359744,0.144187800004147,,,,169,0,168,827.61908460001,,,,,,,,,,,,,,,,,,,,,,,827.6026780999964,827.61908460001,828.1044801999815,,,,,,,,,,,,,,,,,,,,,,,828.1132623999729,828.1374274999835,828.1374274999835,828.1374274999835,831.1145659000031,indoor,j,831.1164635999594,,,831.1164835999953,None,,,2.7323922000359744,0.144187800004147,,,,,,,,,,,00054,001,2026-01-18_18h59.11.419,MST_task,2024.2.0,60.02635156633984,2026-01-18 19h01.01.694545 +0530,
,Objects\256a.jpg,169,0,170,,,,,,,j,None,,,1.835303500003647,0.1445761999930255,,,,170,0,169,831.1313699999591,,,,,,,,,,,,,,,,,,,,,,,831.1165550000151,831.1313699999591,831.6168399999733,,,,,,,,,,,,,,,,,,,,,,,831.6256073999684,831.6499869999825,831.6499869999825,831.6499869999825,834.6269257999957,indoor,j,834.626972500002,,,834.6269861999899,None,,,1.835303500003647,0.1445761999930255,831.6499869999825,,,,,,,,,,00054,001,2026-01-18_18h59.11.419,MST_task,2024.2.0,60.02635156633984,2026-01-18 19h01.01.694545 +0530,
,Objects\119a.jpg,170,0,171,,,,,,,j,None,,,0.8356962000252679,0.13656919996719807,,,,171,0,170,834.6436620999593,,,,,,,,,,,,,,,,,,,,,,,834.6270678999717,834.6436620999593,835.128681799979,,,,,,,,,,,,,,,,,,,,,,,835.1367892000126,835.1622742000036,835.1622742000036,835.1622742000036,838.1392908999696,indoor,j,838.1393345000106,,,838.1393468999886,None,,,0.8356962000252679,0.13656919996719807,,,,,,,,,,,00054,001,2026-01-18_18h59.11.419,MST_task,2024.2.0,60.02635156633984,2026-01-18 19h01.01.694545 +0530,
,Objects\114a.jpg,171,0,172,,,,,,,j,None,,,1.940352300007362,0.12767910002730787,,,,172,0,171,838.155845500005,,,,,,,,,,,,,,,,,,,,,,,838.1394203999662,838.155845500005,838.641238799959,,,,,,,,,,,,,,,,,,,,,,,838.6443292999757,838.6575850999798,838.6575850999798,838.6575850999798,841.6513680999633,indoor,j,841.6514186999993,,,841.6514315999812,None,,,1.940352300007362,0.12767910002730787,,,,,,,,,,,00054,001,2026-01-18_18h59.11.419,MST_task,2024.2.0,60.02635156633984,2026-01-18 19h01.01.694545 +0530,
,Objects\191a.jpg,172,0,173,,,,,,,f,None,,,2.844205800036434,0.10401099995942786,,,,173,0,172,841.6681575999828,,,,,,,,,,,,,,,,,,,,,,,841.6515217999695,841.6681575999828,842.1533442999935,,,,,,,,,,,,,,,,,,,,,,,842.1564216999686,842.1699053999619,842.1699053999619,842.1699053999619,845.1639237999916,indoor,f,845.1639834999805,,,845.1639953000122,None,,,2.844205800036434,0.10401099995942786,,,,,,,,,,,00054,001,2026-01-18_18h59.11.419,MST_task,2024.2.0,60.02635156633984,2026-01-18 19h01.01.694545 +0530,
,Objects\384a.jpg,173,0,174,,,,,,,f,None,,,1.0356239000102505,0.08083180000539869,,,,174,0,173,845.1805791999795,,,,,,,,,,,,,,,,,,,,,,,845.1643265999737,845.1805791999795,845.6655307000037,,,,,,,,,,,,,,,,,,,,,,,845.6696388999699,845.6823194999597,845.6823194999597,845.6823194999597,848.6760835999739,indoor,f,848.6761280999635,,,848.676140399999,None,,,1.0356239000102505,0.08083180000539869,,,,,,,,,,,00054,001,2026-01-18_18h59.11.419,MST_task,2024.2.0,60.02635156633984,2026-01-18 19h01.01.694545 +0530,
,Objects\346a.jpg,174,0,175,,,,,,,j,None,,,0.7299816000158899,0.09606989996973425,,,,175,0,174,848.6928725999896,,,,,,,,,,,,,,,,,,,,,,,848.6762108000112,848.6928725999896,849.1778660999844,,,,,,,,,,,,,,,,,,,,,,,849.1856168999802,849.2114671999589,849.2114671999589,849.2114671999589,852.1885098000057,indoor,j,852.1885555000044,,,852.1885683999863,None,,,0.7299816000158899,0.09606989996973425,,,,,,,,,,,00054,001,2026-01-18_18h59.11.419,MST_task,2024.2.0,60.02635156633984,2026-01-18 19h01.01.694545 +0530,
,Objects\304a.jpg,175,0,176,,,,,,,j,None,,,1.7616980000166222,0.129003299982287,,,,176,0,175,852.2051806999953,,,,,,,,,,,,,,,,,,,,,,,852.1886380999931,852.2051806999953,852.690569599974,,,,,,,,,,,,,,,,,,,,,,,852.7045800999622,852.7235296000144,852.7235296000144,852.7235296000144,855.7006502000149,shoe,j,855.7021104999585,,,855.7021338999621,None,,,1.7616980000166222,0.129003299982287,,,,,,,,,,,00054,001,2026-01-18_18h59.11.419,MST_task,2024.2.0,60.02635156633984,2026-01-18 19h01.01.694545 +0530,
,Objects\085a.jpg,176,0,177,,,,,,,j,None,,,2.3301888999994844,0.10400829999707639,,,,177,0,176,855.7174548999756,,,,,,,,,,,,,,,,,,,,,,,855.7022579999757,855.7174548999756,856.2024443999981,,,,,,,,,,,,,,,,,,,,,,,856.2115966000129,856.2359632999869,856.2359632999869,856.2359632999869,859.2133423999767,shoe,j,859.2133868999663,,,859.2133994000033,None,,,2.3301888999994844,0.10400829999707639,,,,,,,,,,,00054,001,2026-01-18_18h59.11.419,MST_task,2024.2.0,60.02635156633984,2026-01-18 19h01.01.694545 +0530,
,Objects\282a.jpg,177,0,178,,,,,,,j,None,,,0.7464419999741949,0.12004510004771873,,,,178,0,177,859.2296747000073,,,,,,,,,,,,,,,,,,,,,,,859.2135526000056,859.2296747000073,859.7148545999662,,,,,,,,,,,,,,,,,,,,,,,859.7183501999825,859.7314705000026,859.7314705000026,859.7314705000026,862.7253080999944,shoe,j,862.7253624000004,,,862.7253746999777,None,,,0.7464419999741949,0.12004510004771873,,,,,,,,,,,00054,001,2026-01-18_18h59.11.419,MST_task,2024.2.0,60.02635156633984,2026-01-18 19h01.01.694545 +0530,
,Objects\213a.jpg,178,0,179,,,,,,,f,None,,,0.6249639000161551,0.0882582999765873,,,,179,0,178,862.742064399994,,,,,,,,,,,,,,,,,,,,,,,862.7257105999743,862.742064399994,863.2270428999909,,,,,,,,,,,,,,,,,,,,,,,863.2346197000006,863.260542700009,863.260542700009,863.260542700009,866.2376748999814,shoe,f,866.2377185999649,,,866.2377306999988,None,,,0.6249639000161551,0.0882582999765873,,,,,,,,,,,00054,001,2026-01-18_18h59.11.419,MST_task,2024.2.0,60.02635156633984,2026-01-18 19h01.01.694545 +0530,
,Objects\099a.jpg,179,0,180,,,,,,,f,None,,,1.3614409000147134,0.1117824999964796,,,,180,0,179,866.2542392999749,,,,,,,,,,,,,,,,,,,,,,,866.2377998000011,866.2542392999749,866.7394385999651,,,,,,,,,,,,,,,,,,,,,,,866.7481827000156,866.7727291999618,866.7727291999618,866.7727291999618,869.7498819999746,shoe,f,869.7499341999646,,,869.7499565999606,None,,,1.3614409000147134,0.1117824999964796,,,,,,,,,,,00054,001,2026-01-18_18h59.11.419,MST_task,2024.2.0,60.02635156633984,2026-01-18 19h01.01.694545 +0530,
,Objects\272a.jpg,180,0,181,,,,,,,f,None,,,0.8813090999610722,0.09614830004284158,,,,181,0,180,869.7666547999834,,,,,,,,,,,,,,,,,,,,,,,869.7501805999782,869.7666547999834,870.251649599988,,,,,,,,,,,,,,,,,,,,,,,870.2591211000108,870.2850288999616,870.2850288999616,870.2850288999616,873.2622974999831,shoe,f,873.2623474000138,,,873.2623601999949,None,,,0.8813090999610722,0.09614830004284158,,,,,,,,,,,00054,001,2026-01-18_18h59.11.419,MST_task,2024.2.0,60.02635156633984,2026-01-18 19h01.01.694545 +0530,
