thisN,thisTrialN,thisRepN,key_resp_3.keys,key_resp_3.rt,key_resp_3.duration,trials.thisRepN,trials.thisTrialN,trials.thisN,thisRow.t,notes,intro_page.started,text.started,key_resp.started,intro_page.stopped,key_resp.keys,key_resp.rt,key_resp.duration,instructions.started,text_2.started,key_resp_2.started,instructions.stopped,key_resp_2.keys,key_resp_2.rt,key_resp_2.duration,demo1.started,image_1.started,image_2.started,text_7.started,key_resp_6.started,text_9.started,demo1.stopped,key_resp_6.keys,key_resp_6.rt,key_resp_6.duration,demo3.started,image_5.started,image_6.started,text_11.started,text_12.started,key_resp_8.started,demo3.stopped,key_resp_8.keys,key_resp_8.rt,key_resp_8.duration,demo_conclusion.started,text_13.started,key_resp_9.started,demo_conclusion.stopped,key_resp_9.keys,key_resp_9.rt,key_resp_9.duration,start_test.started,text_6.started,key_resp_5.started,start_test.stopped,key_resp_5.keys,key_resp_5.rt,key_resp_5.duration,ISI.started,text_4.started,text_4.stopped,ISI.stopped,routine_1.started,image.started,text_3.started,key_resp_3.started,routine_1.stopped,image_path,position_of_stimuli,trials.key_resp_3.keys,trials.key_resp_3.rt,trials.key_resp_3.duration,End_page.started,text_5.started,key_resp_4.started,End_page.stopped,key_resp_4.keys,key_resp_4.rt,key_resp_4.duration,participant,session,date,expName,psychopyVersion,frameRate,expStart,
,,,,,,,,,,,0.0013706999998248648,0.0033983999983320246,0.0033983999983320246,3.5559643999986292,space,3.5368791000000783,None,,,,,,,,,,,,,,,,,,,,,,,,,,,,,,,,,,,,,,,,,,,,,,,,,,,,,,,,,,,,,,,00052,001,2026-01-18_18h26.03.402,MST_test,2024.2.0,59.62883435756326,2026-01-18 18h26.14.312828 +0530,
,,,,,,,,,,,,,,,,,,3.5560518999991473,3.572550199998659,3.572550199998659,17.300109699999666,space,13.71166919999996,None,,,,,,,,,,,,,,,,,,,,,,,,,,,,,,,,,,,,,,,,,,,,,,,,,,,,,,,,00052,001,2026-01-18_18h26.03.402,MST_test,2024.2.0,59.62883435756326,2026-01-18 18h26.14.312828 +0530,
,,,,,,,,,,,,,,,,,,,,,,,,,17.300207899999805,17.339199799998823,17.339199799998823,17.339199799998823,17.339199799998823,17.339199799998823,21.73410469999908,space,4.385522900000069,None,,,,,,,,,,,,,,,,,,,,,,,,,,,,,,,,,,,,,,,,,,,,,,00052,001,2026-01-18_18h26.03.402,MST_test,2024.2.0,59.62883435756326,2026-01-18 18h26.14.312828 +0530,
,,,,,,,,,,,,,,,,,,,,,,,,,,,,,,,,,,,21.734241099999053,21.74879559999863,21.74879559999863,21.74879559999863,21.74879559999863,21.74879559999863,24.18370579999828,space,2.4317796000013914,None,,,,,,,,,,,,,,,,,,,,,,,,,,,,,,,,,,,,00052,001,2026-01-18_18h26.03.402,MST_test,2024.2.0,59.62883435756326,2026-01-18 18h26.14.312828 +0530,
,,,,,,,,,,,,,,,,,,,,,,,,,,,,,,,,,,,,,,,,,,,,,24.18383039999935,24.198118699998304,24.198118699998304,36.39991809999992,space,12.189332599999034,None,,,,,,,,,,,,,,,,,,,,,,,,,,,,,00052,001,2026-01-18_18h26.03.402,MST_test,2024.2.0,59.62883435756326,2026-01-18 18h26.14.312828 +0530,
,,,,,,,,,,,,,,,,,,,,,,,,,,,,,,,,,,,,,,,,,,,,,,,,,,,,36.40006479999829,36.43104049999965,36.43104049999965,46.39988839999933,space,9.965665499999886,None,,,,,,,,,,,,,,,,,,,,,,00052,001,2026-01-18_18h26.03.402,MST_test,2024.2.0,59.62883435756326,2026-01-18 18h26.14.312828 +0530,
0,0,1,o,8.318751099999645,None,1,0,0,46.414475599998696,,,,,,,,,,,,,,,,,,,,,,,,,,,,,,,,,,,,,,,,,,,,,,,,,,46.407907499999055,46.414475599998696,46.917310399998314,46.899300199998834,46.91365339999902,46.917310399998314,46.917310399998314,46.917310399998314,55.25011819999963,Objects\113a.jpg,pre,o,8.318751099999645,None,,,,,,,,00052,001,2026-01-18_18h26.03.402,MST_test,2024.2.0,59.62883435756326,2026-01-18 18h26.14.312828 +0530,
1,0,2,s,2.221391900000526,None,2,0,1,55.26482179999948,,,,,,,,,,,,,,,,,,,,,,,,,,,,,,,,,,,,,,,,,,,,,,,,,,55.25044839999828,55.26482179999948,55.76626739999847,55.74942149999879,55.75546779999968,55.76626739999847,55.76626739999847,55.76626739999847,58.00034329999835,Foils\049a.jpg,none,s,2.221391900000526,None,,,,,,,,00052,001,2026-01-18_18h26.03.402,MST_test,2024.2.0,59.62883435756326,2026-01-18 18h26.14.312828 +0530,
2,0,3,s,33.517161800000395,None,3,0,2,58.01483769999868,,,,,,,,,,,,,,,,,,,,,,,,,,,,,,,,,,,,,,,,,,,,,,,,,,58.00067399999898,58.01483769999868,58.543389899999966,58.4995973999994,58.54090980000001,58.543389899999966,58.543389899999966,58.543389899999966,92.06656189999921,Objects\235b.jpg,pre,s,33.517161800000395,None,,,,,,,,00052,001,2026-01-18_18h26.03.402,MST_test,2024.2.0,59.62883435756326,2026-01-18 18h26.14.312828 +0530,
3,0,4,o,2.5593881999993755,None,4,0,3,92.08154149999973,,,,,,,,,,,,,,,,,,,,,,,,,,,,,,,,,,,,,,,,,,,,,,,,,,92.06680329999836,92.08154149999973,92.58170539999992,92.56629470000007,92.57219049999912,92.58170539999992,92.58170539999992,92.58170539999992,95.15026559999933,Foils\057a.jpg,none,o,2.5593881999993755,None,,,,,,,,00052,001,2026-01-18_18h26.03.402,MST_test,2024.2.0,59.62883435756326,2026-01-18 18h26.14.312828 +0530,
4,0,5,s,1.961998599999788,None,5,0,4,95.16481749999912,,,,,,,,,,,,,,,,,,,,,,,,,,,,,,,,,,,,,,,,,,,,,,,,,,95.15060259999882,95.16481749999912,95.66582749999907,95.64949109999907,95.65547119999974,95.66582749999907,95.66582749999907,95.66582749999907,97.63358859999971,Objects\306b.jpg,post,s,1.961998599999788,None,,,,,,,,00052,001,2026-01-18_18h26.03.402,MST_test,2024.2.0,59.62883435756326,2026-01-18 18h26.14.312828 +0530,
5,0,6,s,1.496137500000259,None,6,0,5,97.64826609999909,,,,,,,,,,,,,,,,,,,,,,,,,,,,,,,,,,,,,,,,,,,,,,,,,,97.6339795999993,97.64826609999909,98.14859019999858,98.13242569999966,98.13780879999831,98.14859019999858,98.14859019999858,98.14859019999858,99.65030899999874,Foils\073a.jpg,none,s,1.496137500000259,None,,,,,,,,00052,001,2026-01-18_18h26.03.402,MST_test,2024.2.0,59.62883435756326,2026-01-18 18h26.14.312828 +0530,
6,0,7,s,4.738931600000797,None,7,0,6,99.6647911,,,,,,,,,,,,,,,,,,,,,,,,,,,,,,,,,,,,,,,,,,,,,,,,,,99.6507230999996,99.6647911,100.19364929999938,100.14920839999832,100.19139319999886,100.19364929999938,100.19364929999938,100.19364929999938,104.94994019999831,Objects\008b.jpg,pre,s,4.738931600000797,None,,,,,,,,00052,001,2026-01-18_18h26.03.402,MST_test,2024.2.0,59.62883435756326,2026-01-18 18h26.14.312828 +0530,
7,0,8,o,2.370463799999925,None,8,0,7,104.96486019999975,,,,,,,,,,,,,,,,,,,,,,,,,,,,,,,,,,,,,,,,,,,,,,,,,,104.95023439999932,104.96486019999975,105.46555369999987,105.4492997999987,105.45460729999832,105.46555369999987,105.46555369999987,105.46555369999987,107.84983370000009,Objects\269a.jpg,post,o,2.370463799999925,None,,,,,,,,00052,001,2026-01-18_18h26.03.402,MST_test,2024.2.0,59.62883435756326,2026-01-18 18h26.14.312828 +0530,
8,0,9,o,1.5319699000010587,None,9,0,8,107.86491179999939,,,,,,,,,,,,,,,,,,,,,,,,,,,,,,,,,,,,,,,,,,,,,,,,,,107.85018559999844,107.86491179999939,108.42368949999945,108.34959619999972,108.4195026999987,108.42368949999945,108.42368949999945,108.42368949999945,109.96654619999936,Objects\267b.jpg,post,o,1.5319699000010587,None,,,,,,,,00052,001,2026-01-18_18h26.03.402,MST_test,2024.2.0,59.62883435756326,2026-01-18 18h26.14.312828 +0530,
9,0,10,s,1.6025281000001996,None,10,0,9,109.98146639999868,,,,,,,,,,,,,,,,,,,,,,,,,,,,,,,,,,,,,,,,,,,,,,,,,,109.96693909999885,109.98146639999868,110.48165659999904,110.46604859999934,110.4738929999985,110.48165659999904,110.48165659999904,110.48165659999904,112.1001271999994,Foils\020b.jpg,none,s,1.6025281000001996,None,,,,,,,,00052,001,2026-01-18_18h26.03.402,MST_test,2024.2.0,59.62883435756326,2026-01-18 18h26.14.312828 +0530,
10,0,11,o,1.4813804000004893,None,11,0,10,112.11481529999946,,,,,,,,,,,,,,,,,,,,,,,,,,,,,,,,,,,,,,,,,,,,,,,,,,112.1003914999983,112.11481529999946,112.64332079999986,112.59922359999837,112.64072019999912,112.64332079999986,112.64332079999986,112.64332079999986,114.13356279999971,Objects\157b.jpg,pre,o,1.4813804000004893,None,,,,,,,,00052,001,2026-01-18_18h26.03.402,MST_test,2024.2.0,59.62883435756326,2026-01-18 18h26.14.312828 +0530,
11,0,12,o,1.3961294000000635,None,12,0,11,114.14844019999873,,,,,,,,,,,,,,,,,,,,,,,,,,,,,,,,,,,,,,,,,,,,,,,,,,114.1338898999984,114.14844019999873,114.64844209999865,114.63270119999834,114.63901679999981,114.64844209999865,114.64844209999865,114.64844209999865,116.0498435999998,Objects\377b.jpg,post,o,1.3961294000000635,None,,,,,,,,00052,001,2026-01-18_18h26.03.402,MST_test,2024.2.0,59.62883435756326,2026-01-18 18h26.14.312828 +0530,
12,0,13,o,1.1112153999984002,None,13,0,12,116.06481069999973,,,,,,,,,,,,,,,,,,,,,,,,,,,,,,,,,,,,,,,,,,,,,,,,,,116.05006099999991,116.06481069999973,116.56537329999992,116.54912519999925,116.55480229999921,116.56537329999992,116.56537329999992,116.56537329999992,117.68374609999955,Objects\117b.jpg,mid,o,1.1112153999984002,None,,,,,,,,00052,001,2026-01-18_18h26.03.402,MST_test,2024.2.0,59.62883435756326,2026-01-18 18h26.14.312828 +0530,
13,0,14,s,3.222010400000727,None,14,0,13,117.69815099999869,,,,,,,,,,,,,,,,,,,,,,,,,,,,,,,,,,,,,,,,,,,,,,,,,,117.68399509999836,117.69815099999869,118.19850809999843,118.18271490000006,118.18864679999933,118.19850809999843,118.19850809999843,118.19850809999843,121.43373079999947,Foils\101b.jpg,none,s,3.222010400000727,None,,,,,,,,00052,001,2026-01-18_18h26.03.402,MST_test,2024.2.0,59.62883435756326,2026-01-18 18h26.14.312828 +0530,
14,0,15,n,1.670966600000611,None,15,0,14,121.44813889999932,,,,,,,,,,,,,,,,,,,,,,,,,,,,,,,,,,,,,,,,,,,,,,,,,,121.43406789999972,121.44813889999932,121.94864499999858,121.93261859999984,121.94096949999948,121.94864499999858,121.94864499999858,121.94864499999858,123.63344849999885,Foils\017a.jpg,none,n,1.670966600000611,None,,,,,,,,00052,001,2026-01-18_18h26.03.402,MST_test,2024.2.0,59.62883435756326,2026-01-18 18h26.14.312828 +0530,
15,0,16,s,2.9276606000003085,None,16,0,15,123.6481322999989,,,,,,,,,,,,,,,,,,,,,,,,,,,,,,,,,,,,,,,,,,,,,,,,,,123.6337730999985,123.6481322999989,124.14885429999958,124.13261769999917,124.14041079999879,124.14885429999958,124.14885429999958,124.14885429999958,127.08369159999893,Objects\309b.jpg,pre,s,2.9276606000003085,None,,,,,,,,00052,001,2026-01-18_18h26.03.402,MST_test,2024.2.0,59.62883435756326,2026-01-18 18h26.14.312828 +0530,
16,0,17,s,1.5734142000001157,None,17,0,16,127.09813029999896,,,,,,,,,,,,,,,,,,,,,,,,,,,,,,,,,,,,,,,,,,,,,,,,,,127.08396029999858,127.09813029999896,127.59866989999864,127.58260059999884,127.58902859999944,127.59866989999864,127.59866989999864,127.59866989999864,129.1835773999992,Objects\322b.jpg,pre,s,1.5734142000001157,None,,,,,,,,00052,001,2026-01-18_18h26.03.402,MST_test,2024.2.0,59.62883435756326,2026-01-18 18h26.14.312828 +0530,
17,0,18,o,4.434163500000068,None,18,0,17,129.19850139999835,,,,,,,,,,,,,,,,,,,,,,,,,,,,,,,,,,,,,,,,,,,,,,,,,,129.18399099999988,129.19850139999835,129.6986066999998,129.68264219999946,129.6892020999985,129.6986066999998,129.6986066999998,129.6986066999998,134.1500948999983,Objects\092a.jpg,pre,o,4.434163500000068,None,,,,,,,,00052,001,2026-01-18_18h26.03.402,MST_test,2024.2.0,59.62883435756326,2026-01-18 18h26.14.312828 +0530,
18,0,19,o,3.626548799999,None,19,0,18,134.16488539999955,,,,,,,,,,,,,,,,,,,,,,,,,,,,,,,,,,,,,,,,,,,,,,,,,,134.15051089999906,134.16488539999955,134.66503469999952,134.64918869999929,134.6567759999998,134.66503469999952,134.66503469999952,134.66503469999952,138.30059209999854,Objects\204a.jpg,mid,o,3.626548799999,None,,,,,,,,00052,001,2026-01-18_18h26.03.402,MST_test,2024.2.0,59.62883435756326,2026-01-18 18h26.14.312828 +0530,
19,0,20,o,1.4444399000003614,None,20,0,19,138.31464229999983,,,,,,,,,,,,,,,,,,,,,,,,,,,,,,,,,,,,,,,,,,,,,,,,,,138.30097690000002,138.31464229999983,138.81522959999893,138.79855150000003,138.80385829999977,138.81522959999893,138.81522959999893,138.81522959999893,140.26587619999918,Objects\238a.jpg,post,o,1.4444399000003614,None,,,,,,,,00052,001,2026-01-18_18h26.03.402,MST_test,2024.2.0,59.62883435756326,2026-01-18 18h26.14.312828 +0530,
20,0,21,s,4.446557799999937,None,21,0,20,140.28175609999926,,,,,,,,,,,,,,,,,,,,,,,,,,,,,,,,,,,,,,,,,,,,,,,,,,140.2659960000001,140.28175609999926,140.82177029999912,140.7658980999986,140.81890249999924,140.82177029999912,140.82177029999912,140.82177029999912,145.2833258999999,Objects\186b.jpg,mid,s,4.446557799999937,None,,,,,,,,00052,001,2026-01-18_18h26.03.402,MST_test,2024.2.0,59.62883435756326,2026-01-18 18h26.14.312828 +0530,
21,0,22,s,1.4850739000012254,None,22,0,21,145.2982749999992,,,,,,,,,,,,,,,,,,,,,,,,,,,,,,,,,,,,,,,,,,,,,,,,,,145.2836286999991,145.2982749999992,145.798410899999,145.7827791999989,145.7918953999997,145.798410899999,145.798410899999,145.798410899999,147.3003675,Foils\010a.jpg,none,s,1.4850739000012254,None,,,,,,,,00052,001,2026-01-18_18h26.03.402,MST_test,2024.2.0,59.62883435756326,2026-01-18 18h26.14.312828 +0530,
22,0,23,s,1.2191517000010208,None,23,0,22,147.31479569999829,,,,,,,,,,,,,,,,,,,,,,,,,,,,,,,,,,,,,,,,,,,,,,,,,,147.30063789999986,147.31479569999829,147.84825060000003,147.79926859999978,147.84520669999984,147.84825060000003,147.84825060000003,147.84825060000003,149.08337759999995,Objects\196b.jpg,mid,s,1.2191517000010208,None,,,,,,,,00052,001,2026-01-18_18h26.03.402,MST_test,2024.2.0,59.62883435756326,2026-01-18 18h26.14.312828 +0530,
23,0,24,o,1.4380046000005677,None,24,0,23,149.0980458999984,,,,,,,,,,,,,,,,,,,,,,,,,,,,,,,,,,,,,,,,,,,,,,,,,,149.08375759999944,149.0980458999984,149.5983843999984,149.58272399999987,149.59202939999886,149.5983843999984,149.5983843999984,149.5983843999984,151.04996239999855,Objects\285a.jpg,post,o,1.4380046000005677,None,,,,,,,,00052,001,2026-01-18_18h26.03.402,MST_test,2024.2.0,59.62883435756326,2026-01-18 18h26.14.312828 +0530,
24,0,25,o,1.4545765000002575,None,25,0,24,151.06488379999973,,,,,,,,,,,,,,,,,,,,,,,,,,,,,,,,,,,,,,,,,,,,,,,,,,151.05027279999922,151.06488379999973,151.59801009999865,151.54951159999837,151.59498369999892,151.59801009999865,151.59801009999865,151.59801009999865,153.06680779999988,Objects\327b.jpg,mid,o,1.4545765000002575,None,,,,,,,,00052,001,2026-01-18_18h26.03.402,MST_test,2024.2.0,59.62883435756326,2026-01-18 18h26.14.312828 +0530,
25,0,26,o,0.8154962999997224,None,26,0,25,153.08178939999925,,,,,,,,,,,,,,,,,,,,,,,,,,,,,,,,,,,,,,,,,,,,,,,,,,153.06716179999967,153.08178939999925,153.58175129999836,153.56514759999845,153.5739027999989,153.58175129999836,153.58175129999836,153.58175129999836,154.40133969999988,Objects\337a.jpg,mid,o,0.8154962999997224,None,,,,,,,,00052,001,2026-01-18_18h26.03.402,MST_test,2024.2.0,59.62883435756326,2026-01-18 18h26.14.312828 +0530,
26,0,27,s,1.3453955999993923,None,27,0,26,154.4147385999986,,,,,,,,,,,,,,,,,,,,,,,,,,,,,,,,,,,,,,,,,,,,,,,,,,154.40175549999913,154.4147385999986,154.9149811999996,154.90017420000004,154.90721259999918,154.9149811999996,154.9149811999996,154.9149811999996,156.2668324999995,Foils\065a.jpg,none,s,1.3453955999993923,None,,,,,,,,00052,001,2026-01-18_18h26.03.402,MST_test,2024.2.0,59.62883435756326,2026-01-18 18h26.14.312828 +0530,
27,0,28,o,1.4949082000002818,None,28,0,27,156.2822146999988,,,,,,,,,,,,,,,,,,,,,,,,,,,,,,,,,,,,,,,,,,,,,,,,,,156.26709779999874,156.2822146999988,156.7817258999985,156.76640569999836,156.7734423999991,156.7817258999985,156.7817258999985,156.7817258999985,158.28346379999857,Objects\298a.jpg,post,o,1.4949082000002818,None,,,,,,,,00052,001,2026-01-18_18h26.03.402,MST_test,2024.2.0,59.62883435756326,2026-01-18 18h26.14.312828 +0530,
28,0,29,s,2.7747180000005756,None,29,0,28,158.2981652999988,,,,,,,,,,,,,,,,,,,,,,,,,,,,,,,,,,,,,,,,,,,,,,,,,,158.28377059999912,158.2981652999988,158.79849429999922,158.78245659999993,158.79120539999894,158.79849429999922,158.79849429999922,158.79849429999922,161.58359500000006,Foils\086a.jpg,none,s,2.7747180000005756,None,,,,,,,,00052,001,2026-01-18_18h26.03.402,MST_test,2024.2.0,59.62883435756326,2026-01-18 18h26.14.312828 +0530,
29,0,30,n,8.922181599999021,None,30,0,29,161.59826829999838,,,,,,,,,,,,,,,,,,,,,,,,,,,,,,,,,,,,,,,,,,,,,,,,,,161.584019599999,161.59826829999838,162.09823770000003,162.0825950999988,162.08895959999973,162.09823770000003,162.09823770000003,162.09823770000003,171.03333479999856,Foils\121a.jpg,none,n,8.922181599999021,None,,,,,,,,00052,001,2026-01-18_18h26.03.402,MST_test,2024.2.0,59.62883435756326,2026-01-18 18h26.14.312828 +0530,
30,0,31,o,3.574976899999456,None,31,0,30,171.04829879999852,,,,,,,,,,,,,,,,,,,,,,,,,,,,,,,,,,,,,,,,,,,,,,,,,,171.0337084999992,171.04829879999852,171.5484179999985,171.53287490000002,171.5433168999989,171.5484179999985,171.5484179999985,171.5484179999985,175.13324959999954,Objects\290a.jpg,post,o,3.574976899999456,None,,,,,,,,00052,001,2026-01-18_18h26.03.402,MST_test,2024.2.0,59.62883435756326,2026-01-18 18h26.14.312828 +0530,
31,0,32,o,1.701146900000822,None,32,0,31,175.14815289999933,,,,,,,,,,,,,,,,,,,,,,,,,,,,,,,,,,,,,,,,,,,,,,,,,,175.13354289999916,175.14815289999933,175.68694789999972,175.63276929999847,175.6842127,175.68694789999972,175.68694789999972,175.68694789999972,177.39994579999984,Objects\108b.jpg,pre,o,1.701146900000822,None,,,,,,,,00052,001,2026-01-18_18h26.03.402,MST_test,2024.2.0,59.62883435756326,2026-01-18 18h26.14.312828 +0530,
32,0,33,o,1.1536861999993562,None,33,0,32,177.41556749999836,,,,,,,,,,,,,,,,,,,,,,,,,,,,,,,,,,,,,,,,,,,,,,,,,,177.400216,177.41556749999836,177.91500610000003,177.8992546999998,177.90692769999987,177.91500610000003,177.91500610000003,177.91500610000003,179.08308169999873,Objects\276a.jpg,post,o,1.1536861999993562,None,,,,,,,,00052,001,2026-01-18_18h26.03.402,MST_test,2024.2.0,59.62883435756326,2026-01-18 18h26.14.312828 +0530,
33,0,34,n,1.4311385999990307,None,34,0,33,179.09813389999908,,,,,,,,,,,,,,,,,,,,,,,,,,,,,,,,,,,,,,,,,,,,,,,,,,179.0833277999991,179.09813389999908,179.598426999999,179.58242489999975,179.58854189999875,179.598426999999,179.598426999999,179.598426999999,181.0332832999993,Foils\090a.jpg,none,n,1.4311385999990307,None,,,,,,,,00052,001,2026-01-18_18h26.03.402,MST_test,2024.2.0,59.62883435756326,2026-01-18 18h26.14.312828 +0530,
34,0,35,o,1.279902199999924,None,35,0,34,181.04808199999934,,,,,,,,,,,,,,,,,,,,,,,,,,,,,,,,,,,,,,,,,,,,,,,,,,181.03365510000003,181.04808199999934,181.54885979999926,181.53245919999972,181.537696899999,181.54885979999926,181.54885979999926,181.54885979999926,182.83382429999983,Objects\233a.jpg,mid,o,1.279902199999924,None,,,,,,,,00052,001,2026-01-18_18h26.03.402,MST_test,2024.2.0,59.62883435756326,2026-01-18 18h26.14.312828 +0530,
35,0,36,o,2.0237876000010147,None,36,0,35,182.8481374999992,,,,,,,,,,,,,,,,,,,,,,,,,,,,,,,,,,,,,,,,,,,,,,,,,,182.8341836999989,182.8481374999992,183.34848639999836,183.33254409999972,183.3383157999997,183.34848639999836,183.34848639999836,183.34848639999836,185.38346289999936,Objects\345a.jpg,mid,o,2.0237876000010147,None,,,,,,,,00052,001,2026-01-18_18h26.03.402,MST_test,2024.2.0,59.62883435756326,2026-01-18 18h26.14.312828 +0530,
36,0,37,s,5.297267899999497,None,37,0,36,185.39879109999856,,,,,,,,,,,,,,,,,,,,,,,,,,,,,,,,,,,,,,,,,,,,,,,,,,185.38387689999945,185.39879109999856,185.898550599999,185.88257929999963,185.89078659999905,185.898550599999,185.898550599999,185.898550599999,191.19983289999982,Objects\119b.jpg,mid,s,5.297267899999497,None,,,,,,,,00052,001,2026-01-18_18h26.03.402,MST_test,2024.2.0,59.62883435756326,2026-01-18 18h26.14.312828 +0530,
37,0,38,o,2.601687200000015,None,38,0,37,191.2148191999986,,,,,,,,,,,,,,,,,,,,,,,,,,,,,,,,,,,,,,,,,,,,,,,,,,191.2000885999987,191.2148191999986,191.74675619999834,191.69948169999952,191.74405379999916,191.74675619999834,191.74675619999834,191.74675619999834,194.35053719999996,Objects\328b.jpg,mid,o,2.601687200000015,None,,,,,,,,00052,001,2026-01-18_18h26.03.402,MST_test,2024.2.0,59.62883435756326,2026-01-18 18h26.14.312828 +0530,
38,0,39,s,2.7872404999998253,None,39,0,38,194.3650603999995,,,,,,,,,,,,,,,,,,,,,,,,,,,,,,,,,,,,,,,,,,,,,,,,,,194.35079159999987,194.3650603999995,194.86500499999966,194.8494737000001,194.8553592999997,194.86500499999966,194.86500499999966,194.86500499999966,197.66639549999854,Objects\035a.jpg,mid,s,2.7872404999998253,None,,,,,,,,00052,001,2026-01-18_18h26.03.402,MST_test,2024.2.0,59.62883435756326,2026-01-18 18h26.14.312828 +0530,
39,0,40,o,1.3182334000011906,None,40,0,39,197.68139960000008,,,,,,,,,,,,,,,,,,,,,,,,,,,,,,,,,,,,,,,,,,,,,,,,,,197.6667314999995,197.68139960000008,198.18223289999878,198.165936899999,198.17431749999923,198.18223289999878,198.18223289999878,198.18223289999878,199.51661879999847,Objects\099b.jpg,pre,o,1.3182334000011906,None,,,,,,,,00052,001,2026-01-18_18h26.03.402,MST_test,2024.2.0,59.62883435756326,2026-01-18 18h26.14.312828 +0530,
40,0,41,s,1.1087852000000566,None,41,0,40,199.53135870000006,,,,,,,,,,,,,,,,,,,,,,,,,,,,,,,,,,,,,,,,,,,,,,,,,,199.5168952999993,199.53135870000006,200.03177089999917,200.01601669999945,200.02436019999914,200.03177089999917,200.03177089999917,200.03177089999917,201.15022599999975,Objects\077a.jpg,mid,s,1.1087852000000566,None,,,,,,,,00052,001,2026-01-18_18h26.03.402,MST_test,2024.2.0,59.62883435756326,2026-01-18 18h26.14.312828 +0530,
41,0,42,o,1.2188197000014043,None,42,0,41,201.16480029999911,,,,,,,,,,,,,,,,,,,,,,,,,,,,,,,,,,,,,,,,,,,,,,,,,,201.15057109999907,201.16480029999911,201.66499269999986,201.64960040000005,201.65509969999948,201.66499269999986,201.66499269999986,201.66499269999986,202.90023079999992,Objects\112a.jpg,mid,o,1.2188197000014043,None,,,,,,,,00052,001,2026-01-18_18h26.03.402,MST_test,2024.2.0,59.62883435756326,2026-01-18 18h26.14.312828 +0530,
42,0,43,o,1.1811852999999246,None,43,0,42,202.91569569999956,,,,,,,,,,,,,,,,,,,,,,,,,,,,,,,,,,,,,,,,,,,,,,,,,,202.9006307999989,202.91569569999956,203.41532219999863,203.39930060000006,203.40837539999848,203.41532219999863,203.41532219999863,203.41532219999863,204.6002469999985,Objects\292b.jpg,post,o,1.1811852999999246,None,,,,,,,,00052,001,2026-01-18_18h26.03.402,MST_test,2024.2.0,59.62883435756326,2026-01-18 18h26.14.312828 +0530,
43,0,44,s,2.4019571999997424,None,44,0,43,204.6148648999988,,,,,,,,,,,,,,,,,,,,,,,,,,,,,,,,,,,,,,,,,,,,,,,,,,204.60067179999896,204.6148648999988,205.13754269999845,205.0993043999988,205.13488439999855,205.13754269999845,205.13754269999845,205.13754269999845,207.55020159999913,Objects\191b.jpg,pre,s,2.4019571999997424,None,,,,,,,,00052,001,2026-01-18_18h26.03.402,MST_test,2024.2.0,59.62883435756326,2026-01-18 18h26.14.312828 +0530,
44,0,45,o,1.3948142000008374,None,45,0,44,207.56540829999904,,,,,,,,,,,,,,,,,,,,,,,,,,,,,,,,,,,,,,,,,,,,,,,,,,207.55055169999832,207.56540829999904,208.06533379999928,208.0494775999996,208.05740729999889,208.06533379999928,208.06533379999928,208.06533379999928,209.4670959999985,Foils\098a.jpg,none,o,1.3948142000008374,None,,,,,,,,00052,001,2026-01-18_18h26.03.402,MST_test,2024.2.0,59.62883435756326,2026-01-18 18h26.14.312828 +0530,
45,0,46,o,1.203192200000558,None,46,0,45,209.48150319999877,,,,,,,,,,,,,,,,,,,,,,,,,,,,,,,,,,,,,,,,,,,,,,,,,,209.46746910000002,209.48150319999877,210.00933779999832,209.9658623999985,210.00682319999942,210.00933779999832,210.00933779999832,210.00933779999832,211.2167477999992,Objects\052b.jpg,post,o,1.203192200000558,None,,,,,,,,00052,001,2026-01-18_18h26.03.402,MST_test,2024.2.0,59.62883435756326,2026-01-18 18h26.14.312828 +0530,
46,0,47,o,1.0888599999998405,None,47,0,46,211.23140819999935,,,,,,,,,,,,,,,,,,,,,,,,,,,,,,,,,,,,,,,,,,,,,,,,,,211.21717119999994,211.23140819999935,211.73149489999923,211.7160920999995,211.7221952,211.73149489999923,211.73149489999923,211.73149489999923,212.83330249999926,Objects\084a.jpg,post,o,1.0888599999998405,None,,,,,,,,00052,001,2026-01-18_18h26.03.402,MST_test,2024.2.0,59.62883435756326,2026-01-18 18h26.14.312828 +0530,
47,0,48,s,1.399907200000598,None,48,0,47,212.84841499999857,,,,,,,,,,,,,,,,,,,,,,,,,,,,,,,,,,,,,,,,,,,,,,,,,,212.83356939999976,212.84841499999857,213.34833869999966,213.3324270999983,213.3386774999999,213.34833869999966,213.34833869999966,213.34833869999966,214.75080799999887,Objects\010b.jpg,post,s,1.399907200000598,None,,,,,,,,00052,001,2026-01-18_18h26.03.402,MST_test,2024.2.0,59.62883435756326,2026-01-18 18h26.14.312828 +0530,
48,0,49,n,1.6908621000002313,None,49,0,48,214.76482399999986,,,,,,,,,,,,,,,,,,,,,,,,,,,,,,,,,,,,,,,,,,,,,,,,,,214.75115619999997,214.76482399999986,215.2652236999984,215.24953119999918,215.254042999999,215.2652236999984,215.2652236999984,215.2652236999984,216.96684189999905,Foils\f7.jpg,none,n,1.6908621000002313,None,,,,,,,,00052,001,2026-01-18_18h26.03.402,MST_test,2024.2.0,59.62883435756326,2026-01-18 18h26.14.312828 +0530,
49,0,50,o,8.922625600000174,None,50,0,49,216.9813596999993,,,,,,,,,,,,,,,,,,,,,,,,,,,,,,,,,,,,,,,,,,,,,,,,,,216.96711949999917,216.9813596999993,217.48172479999994,217.46579569999994,217.47307349999937,217.48172479999994,217.48172479999994,217.48172479999994,226.41698749999887,Objects\208a.jpg,pre,o,8.922625600000174,None,,,,,,,,00052,001,2026-01-18_18h26.03.402,MST_test,2024.2.0,59.62883435756326,2026-01-18 18h26.14.312828 +0530,
50,0,51,o,0.9202725000013743,None,51,0,50,226.43127139999888,,,,,,,,,,,,,,,,,,,,,,,,,,,,,,,,,,,,,,,,,,,,,,,,,,226.41741419999926,226.43127139999888,226.9318777999997,226.9157826999999,226.9245362999991,226.9318777999997,226.9318777999997,226.9318777999997,227.86702139999943,Objects\201b.jpg,post,o,0.9202725000013743,None,,,,,,,,00052,001,2026-01-18_18h26.03.402,MST_test,2024.2.0,59.62883435756326,2026-01-18 18h26.14.312828 +0530,
51,0,52,n,1.4952521000013803,None,52,0,51,227.8814394000001,,,,,,,,,,,,,,,,,,,,,,,,,,,,,,,,,,,,,,,,,,,,,,,,,,227.867274799999,227.8814394000001,228.38156079999862,228.36587919999874,228.37110739999844,228.38156079999862,228.38156079999862,228.38156079999862,229.88338949999888,Objects\029b.jpg,pre,n,1.4952521000013803,None,,,,,,,,00052,001,2026-01-18_18h26.03.402,MST_test,2024.2.0,59.62883435756326,2026-01-18 18h26.14.312828 +0530,
52,0,53,n,5.598452500000349,None,53,0,52,229.89813749999848,,,,,,,,,,,,,,,,,,,,,,,,,,,,,,,,,,,,,,,,,,,,,,,,,,229.8838031999985,229.89813749999848,230.3982950999998,230.3825180999993,230.3913395999989,230.3982950999998,230.3982950999998,230.3982950999998,236.00028739999834,Foils\058a.jpg,none,n,5.598452500000349,None,,,,,,,,00052,001,2026-01-18_18h26.03.402,MST_test,2024.2.0,59.62883435756326,2026-01-18 18h26.14.312828 +0530,
53,0,54,n,0.6809864999995625,None,54,0,53,236.0147763999994,,,,,,,,,,,,,,,,,,,,,,,,,,,,,,,,,,,,,,,,,,,,,,,,,,236.00060559999838,236.0147763999994,236.51502399999845,236.5003203999986,236.50787929999933,236.51502399999845,236.51502399999845,236.51502399999845,237.20005390000006,Foils\042a.jpg,none,n,0.6809864999995625,None,,,,,,,,00052,001,2026-01-18_18h26.03.402,MST_test,2024.2.0,59.62883435756326,2026-01-18 18h26.14.312828 +0530,
54,0,55,s,1.4806260999994265,None,55,0,54,237.2149131999995,,,,,,,,,,,,,,,,,,,,,,,,,,,,,,,,,,,,,,,,,,,,,,,,,,237.2003754999987,237.2149131999995,237.7153572999996,237.69911819999834,237.70639009999832,237.7153572999996,237.7153572999996,237.7153572999996,239.1998752999989,Objects\025a.jpg,pre,s,1.4806260999994265,None,,,,,,,,00052,001,2026-01-18_18h26.03.402,MST_test,2024.2.0,59.62883435756326,2026-01-18 18h26.14.312828 +0530,
55,0,56,o,2.0246643999998923,None,56,0,55,239.21481979999953,,,,,,,,,,,,,,,,,,,,,,,,,,,,,,,,,,,,,,,,,,,,,,,,,,239.20031500000005,239.21481979999953,239.71530749999874,239.6991653999994,239.70811319999848,239.71530749999874,239.71530749999874,239.71530749999874,241.7501949999987,Objects\300a.jpg,pre,o,2.0246643999998923,None,,,,,,,,00052,001,2026-01-18_18h26.03.402,MST_test,2024.2.0,59.62883435756326,2026-01-18 18h26.14.312828 +0530,
56,0,57,n,1.1955576000000292,None,57,0,56,241.76476479999837,,,,,,,,,,,,,,,,,,,,,,,,,,,,,,,,,,,,,,,,,,,,,,,,,,241.7504642999993,241.76476479999837,242.26532879999831,242.2492857999987,242.2588113999991,242.26532879999831,242.26532879999831,242.26532879999831,243.46676429999934,Foils\081a.jpg,none,n,1.1955576000000292,None,,,,,,,,00052,001,2026-01-18_18h26.03.402,MST_test,2024.2.0,59.62883435756326,2026-01-18 18h26.14.312828 +0530,
57,0,58,o,1.4463921999995364,None,58,0,57,243.48137229999884,,,,,,,,,,,,,,,,,,,,,,,,,,,,,,,,,,,,,,,,,,,,,,,,,,243.466993,243.48137229999884,243.98170899999968,243.96576469999854,243.97128789999988,243.98170899999968,243.98170899999968,243.98170899999968,245.43409509999947,Objects\056a.jpg,pre,o,1.4463921999995364,None,,,,,,,,00052,001,2026-01-18_18h26.03.402,MST_test,2024.2.0,59.62883435756326,2026-01-18 18h26.14.312828 +0530,
58,0,59,s,1.7822789000001649,None,59,0,58,245.44812490000004,,,,,,,,,,,,,,,,,,,,,,,,,,,,,,,,,,,,,,,,,,,,,,,,,,245.43441859999984,245.44812490000004,245.94900719999896,245.93245469999965,245.93968989999848,245.94900719999896,245.94900719999896,245.94900719999896,247.73367719999987,Foils\066a.jpg,none,s,1.7822789000001649,None,,,,,,,,00052,001,2026-01-18_18h26.03.402,MST_test,2024.2.0,59.62883435756326,2026-01-18 18h26.14.312828 +0530,
59,0,60,s,1.434920499999862,None,60,0,59,247.7480883999997,,,,,,,,,,,,,,,,,,,,,,,,,,,,,,,,,,,,,,,,,,,,,,,,,,247.73394769999868,247.7480883999997,248.24881169999935,248.2325364999997,248.23778349999884,248.24881169999935,248.24881169999935,248.24881169999935,249.6999796,Objects\256a.jpg,post,s,1.434920499999862,None,,,,,,,,00052,001,2026-01-18_18h26.03.402,MST_test,2024.2.0,59.62883435756326,2026-01-18 18h26.14.312828 +0530,
60,0,61,s,1.1603845999998157,None,61,0,60,249.71477969999978,,,,,,,,,,,,,,,,,,,,,,,,,,,,,,,,,,,,,,,,,,,,,,,,,,249.70024869999907,249.71477969999978,250.21915689999878,250.19923239999844,250.21674399999938,250.21915689999878,250.21915689999878,250.21915689999878,251.38341969999965,Objects\067b.jpg,post,s,1.1603845999998157,None,,,,,,,,00052,001,2026-01-18_18h26.03.402,MST_test,2024.2.0,59.62883435756326,2026-01-18 18h26.14.312828 +0530,
61,0,62,s,0.7779384000004939,None,62,0,61,251.39868529999876,,,,,,,,,,,,,,,,,,,,,,,,,,,,,,,,,,,,,,,,,,,,,,,,,,251.38372919999892,251.39868529999876,251.8985681999984,251.88235189999978,251.88793579999947,251.8985681999984,251.8985681999984,251.8985681999984,252.68347079999876,Objects\195a.jpg,post,s,0.7779384000004939,None,,,,,,,,00052,001,2026-01-18_18h26.03.402,MST_test,2024.2.0,59.62883435756326,2026-01-18 18h26.14.312828 +0530,
62,0,63,o,1.189206600000034,None,63,0,62,252.6981352999992,,,,,,,,,,,,,,,,,,,,,,,,,,,,,,,,,,,,,,,,,,,,,,,,,,252.6837480999984,252.6981352999992,253.19884869999987,253.18252699999903,253.18941730000006,253.19884869999987,253.19884869999987,253.19884869999987,254.3996772999999,Objects\172a.jpg,mid,o,1.189206600000034,None,,,,,,,,00052,001,2026-01-18_18h26.03.402,MST_test,2024.2.0,59.62883435756326,2026-01-18 18h26.14.312828 +0530,
63,0,64,s,15.751710399999865,None,64,0,63,254.41497339999842,,,,,,,,,,,,,,,,,,,,,,,,,,,,,,,,,,,,,,,,,,,,,,,,,,254.39995859999908,254.41497339999842,254.9156697999988,254.89951779999865,254.90554489999886,254.9156697999988,254.9156697999988,254.9156697999988,270.68367149999904,Objects\361b.jpg,mid,s,15.751710399999865,None,,,,,,,,00052,001,2026-01-18_18h26.03.402,MST_test,2024.2.0,59.62883435756326,2026-01-18 18h26.14.312828 +0530,
64,0,65,s,5.021064799999294,None,65,0,64,270.69819239999924,,,,,,,,,,,,,,,,,,,,,,,,,,,,,,,,,,,,,,,,,,,,,,,,,,270.68416459999935,270.69819239999924,271.19941130000007,271.1823992999998,271.18841379999867,271.19941130000007,271.19941130000007,271.19941130000007,276.23344259999976,Objects\272a.jpg,mid,s,5.021064799999294,None,,,,,,,,00052,001,2026-01-18_18h26.03.402,MST_test,2024.2.0,59.62883435756326,2026-01-18 18h26.14.312828 +0530,
65,0,66,s,2.0070125999991433,None,66,0,65,276.24823729999844,,,,,,,,,,,,,,,,,,,,,,,,,,,,,,,,,,,,,,,,,,,,,,,,,,276.2337413999994,276.24823729999844,276.7488992999988,276.73260729999856,276.7415566999989,276.7488992999988,276.7488992999988,276.7488992999988,278.7672857999987,Objects\263b.jpg,mid,s,2.0070125999991433,None,,,,,,,,00052,001,2026-01-18_18h26.03.402,MST_test,2024.2.0,59.62883435756326,2026-01-18 18h26.14.312828 +0530,
66,0,67,o,1.4984356000004482,None,67,0,66,278.7814170999991,,,,,,,,,,,,,,,,,,,,,,,,,,,,,,,,,,,,,,,,,,,,,,,,,,278.7677262999987,278.7814170999991,279.2816957999985,279.2659208999994,279.2766200999995,279.2816957999985,279.2816957999985,279.2816957999985,280.7832174999985,Objects\211a.jpg,pre,o,1.4984356000004482,None,,,,,,,,00052,001,2026-01-18_18h26.03.402,MST_test,2024.2.0,59.62883435756326,2026-01-18 18h26.14.312828 +0530,
67,0,68,o,1.7536498999998003,None,68,0,67,280.79819099999986,,,,,,,,,,,,,,,,,,,,,,,,,,,,,,,,,,,,,,,,,,,,,,,,,,280.783496,280.79819099999986,281.29848309999943,281.28266259999873,281.2906189999994,281.29848309999943,281.29848309999943,281.29848309999943,283.06749129999844,Objects\173b.jpg,mid,o,1.7536498999998003,None,,,,,,,,00052,001,2026-01-18_18h26.03.402,MST_test,2024.2.0,59.62883435756326,2026-01-18 18h26.14.312828 +0530,
68,0,69,s,2.5260224000012386,None,69,0,68,283.08137219999844,,,,,,,,,,,,,,,,,,,,,,,,,,,,,,,,,,,,,,,,,,,,,,,,,,283.0678977999996,283.08137219999844,283.6222349999989,283.5663945999986,283.61925639999936,283.6222349999989,283.6222349999989,283.6222349999989,286.15053719999923,Objects\182b.jpg,pre,s,2.5260224000012386,None,,,,,,,,00052,001,2026-01-18_18h26.03.402,MST_test,2024.2.0,59.62883435756326,2026-01-18 18h26.14.312828 +0530,
69,0,70,s,8.866319300001123,None,70,0,69,286.16466949999995,,,,,,,,,,,,,,,,,,,,,,,,,,,,,,,,,,,,,,,,,,,,,,,,,,286.1507251999992,286.16466949999995,286.66515679999975,286.64946559999953,286.6560411999999,286.66515679999975,286.66515679999975,286.66515679999975,295.5337596999998,Foils\f6.jpg,none,s,8.866319300001123,None,,,,,,,,00052,001,2026-01-18_18h26.03.402,MST_test,2024.2.0,59.62883435756326,2026-01-18 18h26.14.312828 +0530,
70,0,71,s,2.650964099999328,None,71,0,70,295.5480644999989,,,,,,,,,,,,,,,,,,,,,,,,,,,,,,,,,,,,,,,,,,,,,,,,,,295.5341731999997,295.5480644999989,296.0483906999998,296.03246809999837,296.04005659999893,296.0483906999998,296.0483906999998,296.0483906999998,298.71707329999845,Objects\221b.jpg,mid,s,2.650964099999328,None,,,,,,,,00052,001,2026-01-18_18h26.03.402,MST_test,2024.2.0,59.62883435756326,2026-01-18 18h26.14.312828 +0530,
71,0,72,o,2.3154458000008162,None,72,0,71,298.73254649999944,,,,,,,,,,,,,,,,,,,,,,,,,,,,,,,,,,,,,,,,,,,,,,,,,,298.7173372999987,298.73254649999944,299.2320227,299.2160359999998,299.2233707999985,299.2320227,299.2320227,299.2320227,301.55027469999914,Objects\140a.jpg,post,o,2.3154458000008162,None,,,,,,,,00052,001,2026-01-18_18h26.03.402,MST_test,2024.2.0,59.62883435756326,2026-01-18 18h26.14.312828 +0530,
72,0,73,o,1.1219906999995146,None,73,0,72,301.5649212999997,,,,,,,,,,,,,,,,,,,,,,,,,,,,,,,,,,,,,,,,,,,,,,,,,,301.55063789999986,301.5649212999997,302.06503639999937,302.04905379999946,302.05446269999993,302.06503639999937,302.06503639999937,302.06503639999937,303.1985197999984,Objects\273a.jpg,post,o,1.1219906999995146,None,,,,,,,,00052,001,2026-01-18_18h26.03.402,MST_test,2024.2.0,59.62883435756326,2026-01-18 18h26.14.312828 +0530,
73,0,74,o,1.7053305999997974,None,74,0,73,303.2144193999993,,,,,,,,,,,,,,,,,,,,,,,,,,,,,,,,,,,,,,,,,,,,,,,,,,303.1986421999991,303.2144193999993,303.7150615999999,303.69927429999916,303.70822999999837,303.7150615999999,303.7150615999999,303.7150615999999,305.4335181999995,Objects\326a.jpg,post,o,1.7053305999997974,None,,,,,,,,00052,001,2026-01-18_18h26.03.402,MST_test,2024.2.0,59.62883435756326,2026-01-18 18h26.14.312828 +0530,
74,0,75,o,1.7436894000002212,None,75,0,74,305.44818099999975,,,,,,,,,,,,,,,,,,,,,,,,,,,,,,,,,,,,,,,,,,,,,,,,,,305.43392549999953,305.44818099999975,305.9484674999985,305.93315449999864,305.9398089999995,305.9484674999985,305.9484674999985,305.9484674999985,307.7006762000001,Objects\383a.jpg,mid,o,1.7436894000002212,None,,,,,,,,00052,001,2026-01-18_18h26.03.402,MST_test,2024.2.0,59.62883435756326,2026-01-18 18h26.14.312828 +0530,
75,0,76,s,2.043829899999764,None,76,0,75,307.715103999999,,,,,,,,,,,,,,,,,,,,,,,,,,,,,,,,,,,,,,,,,,,,,,,,,,307.7009429999998,307.715103999999,308.2717705999985,308.19923070000004,308.26795739999943,308.2717705999985,308.2717705999985,308.2717705999985,310.31760049999866,Objects\214b.jpg,pre,s,2.043829899999764,None,,,,,,,,00052,001,2026-01-18_18h26.03.402,MST_test,2024.2.0,59.62883435756326,2026-01-18 18h26.14.312828 +0530,
76,0,77,s,2.8913137999988976,None,77,0,76,310.3315335999996,,,,,,,,,,,,,,,,,,,,,,,,,,,,,,,,,,,,,,,,,,,,,,,,,,310.31786079999983,310.3315335999996,310.83204139999907,310.8160444999994,310.82286309999836,310.83204139999907,310.83204139999907,310.83204139999907,313.7333466,Objects\244b.jpg,mid,s,2.8913137999988976,None,,,,,,,,00052,001,2026-01-18_18h26.03.402,MST_test,2024.2.0,59.62883435756326,2026-01-18 18h26.14.312828 +0530,
77,0,78,s,1.827229599999555,None,78,0,77,313.74805959999867,,,,,,,,,,,,,,,,,,,,,,,,,,,,,,,,,,,,,,,,,,,,,,,,,,313.73357829999986,313.74805959999867,314.24860309999895,314.2326775999991,314.24161119999917,314.24860309999895,314.24860309999895,314.24860309999895,316.08324859999993,Objects\120a.jpg,pre,s,1.827229599999555,None,,,,,,,,00052,001,2026-01-18_18h26.03.402,MST_test,2024.2.0,59.62883435756326,2026-01-18 18h26.14.312828 +0530,
78,0,79,o,1.2541281000012532,None,79,0,78,316.0982310999989,,,,,,,,,,,,,,,,,,,,,,,,,,,,,,,,,,,,,,,,,,,,,,,,,,316.083582199999,316.0982310999989,316.59836709999945,316.5824870999986,316.5880316999992,316.59836709999945,316.59836709999945,316.59836709999945,317.8665549999987,Objects\127a.jpg,post,o,1.2541281000012532,None,,,,,,,,00052,001,2026-01-18_18h26.03.402,MST_test,2024.2.0,59.62883435756326,2026-01-18 18h26.14.312828 +0530,
79,0,80,s,1.6466039000006276,None,80,0,79,317.88151729999845,,,,,,,,,,,,,,,,,,,,,,,,,,,,,,,,,,,,,,,,,,,,,,,,,,317.86685789999865,317.88151729999845,318.3815700999985,318.36604289999923,318.3736775999987,318.3815700999985,318.3815700999985,318.3815700999985,320.03320839999833,Objects\159a.jpg,pre,s,1.6466039000006276,None,,,,,,,,00052,001,2026-01-18_18h26.03.402,MST_test,2024.2.0,59.62883435756326,2026-01-18 18h26.14.312828 +0530,
80,0,81,n,2.335214700000506,None,81,0,80,320.04838839999866,,,,,,,,,,,,,,,,,,,,,,,,,,,,,,,,,,,,,,,,,,,,,,,,,,320.0335051999991,320.04838839999866,320.54847489999884,320.5326669999995,320.5409723999983,320.54847489999884,320.54847489999884,320.54847489999884,322.89989199999945,Foils\074a.jpg,none,n,2.335214700000506,None,,,,,,,,00052,001,2026-01-18_18h26.03.402,MST_test,2024.2.0,59.62883435756326,2026-01-18 18h26.14.312828 +0530,
81,0,82,s,1.3727534000008745,None,82,0,81,322.91508879999856,,,,,,,,,,,,,,,,,,,,,,,,,,,,,,,,,,,,,,,,,,,,,,,,,,322.900158299999,322.91508879999856,323.4554728999992,323.39934299999913,323.45292009999866,323.4554728999992,323.4554728999992,323.4554728999992,324.83337909999864,Objects\044b.jpg,pre,s,1.3727534000008745,None,,,,,,,,00052,001,2026-01-18_18h26.03.402,MST_test,2024.2.0,59.62883435756326,2026-01-18 18h26.14.312828 +0530,
82,0,83,s,1.1760132999988855,None,83,0,82,324.84813570000006,,,,,,,,,,,,,,,,,,,,,,,,,,,,,,,,,,,,,,,,,,,,,,,,,,324.8337546999992,324.84813570000006,325.348247599999,325.33258019999994,325.3399491,325.348247599999,325.348247599999,325.348247599999,326.53361179999956,Objects\049b.jpg,mid,s,1.1760132999988855,None,,,,,,,,00052,001,2026-01-18_18h26.03.402,MST_test,2024.2.0,59.62883435756326,2026-01-18 18h26.14.312828 +0530,
83,0,84,n,1.2117660000003525,None,84,0,83,326.54808839999896,,,,,,,,,,,,,,,,,,,,,,,,,,,,,,,,,,,,,,,,,,,,,,,,,,326.53391179999926,326.54808839999896,327.04825979999987,327.0334538999996,327.03903959999843,327.04825979999987,327.04825979999987,327.04825979999987,328.26697859999877,Foils\093b.jpg,none,n,1.2117660000003525,None,,,,,,,,00052,001,2026-01-18_18h26.03.402,MST_test,2024.2.0,59.62883435756326,2026-01-18 18h26.14.312828 +0530,
84,0,85,n,0.7900071999993088,None,85,0,84,328.2815290999988,,,,,,,,,,,,,,,,,,,,,,,,,,,,,,,,,,,,,,,,,,,,,,,,,,328.2672333999999,328.2815290999988,328.7816836999991,328.7657271999997,328.7715133999991,328.7816836999991,328.7816836999991,328.7816836999991,329.58317179999904,Foils\034a.jpg,none,n,0.7900071999993088,None,,,,,,,,00052,001,2026-01-18_18h26.03.402,MST_test,2024.2.0,59.62883435756326,2026-01-18 18h26.14.312828 +0530,
85,0,86,o,3.442212900001323,None,86,0,85,329.59808729999895,,,,,,,,,,,,,,,,,,,,,,,,,,,,,,,,,,,,,,,,,,,,,,,,,,329.58346489999894,329.59808729999895,330.0985340999996,330.0825952999985,330.0913982999991,330.0985340999996,330.0985340999996,330.0985340999996,333.5498835999988,Objects\224a.jpg,pre,o,3.442212900001323,None,,,,,,,,00052,001,2026-01-18_18h26.03.402,MST_test,2024.2.0,59.62883435756326,2026-01-18 18h26.14.312828 +0530,
86,0,87,s,3.027218900000662,None,87,0,86,333.5648016999985,,,,,,,,,,,,,,,,,,,,,,,,,,,,,,,,,,,,,,,,,,,,,,,,,,333.5501046999998,333.5648016999985,334.08116189999964,334.0493497999996,334.0782457999994,334.08116189999964,334.08116189999964,334.08116189999964,337.11672479999834,Objects\001b.jpg,post,s,3.027218900000662,None,,,,,,,,00052,001,2026-01-18_18h26.03.402,MST_test,2024.2.0,59.62883435756326,2026-01-18 18h26.14.312828 +0530,
87,0,88,s,1.4520276999992348,None,88,0,87,337.1316085999988,,,,,,,,,,,,,,,,,,,,,,,,,,,,,,,,,,,,,,,,,,,,,,,,,,337.1171814999998,337.1316085999988,337.63176529999873,337.61583569999857,337.6235977999986,337.63176529999873,337.63176529999873,337.63176529999873,339.09979399999975,Objects\102a.jpg,mid,s,1.4520276999992348,None,,,,,,,,00052,001,2026-01-18_18h26.03.402,MST_test,2024.2.0,59.62883435756326,2026-01-18 18h26.14.312828 +0530,
88,0,89,o,4.148701800000708,None,89,0,88,339.11480329999904,,,,,,,,,,,,,,,,,,,,,,,,,,,,,,,,,,,,,,,,,,,,,,,,,,339.1001075999993,339.11480329999904,339.6153488,339.5992368999996,339.60474019999856,339.6153488,339.6153488,339.6153488,343.76696999999876,Objects\369a.jpg,pre,o,4.148701800000708,None,,,,,,,,00052,001,2026-01-18_18h26.03.402,MST_test,2024.2.0,59.62883435756326,2026-01-18 18h26.14.312828 +0530,
89,0,90,n,1.8341629999995348,None,90,0,89,343.78149479999956,,,,,,,,,,,,,,,,,,,,,,,,,,,,,,,,,,,,,,,,,,,,,,,,,,343.7672438999998,343.78149479999956,344.2816731999992,344.2658668999993,344.27148599999964,344.2816731999992,344.2816731999992,344.2816731999992,346.1332156999997,Foils\018a.jpg,none,n,1.8341629999995348,None,,,,,,,,00052,001,2026-01-18_18h26.03.402,MST_test,2024.2.0,59.62883435756326,2026-01-18 18h26.14.312828 +0530,
90,0,91,s,1.9320375999996031,None,91,0,90,346.14811949999967,,,,,,,,,,,,,,,,,,,,,,,,,,,,,,,,,,,,,,,,,,,,,,,,,,346.13345499999923,346.14811949999967,346.64842509999835,346.6328638999985,346.6406971999986,346.64842509999835,346.64842509999835,346.64842509999835,348.58329009999943,Objects\124a.jpg,pre,s,1.9320375999996031,None,,,,,,,,00052,001,2026-01-18_18h26.03.402,MST_test,2024.2.0,59.62883435756326,2026-01-18 18h26.14.312828 +0530,
91,0,92,s,3.5562628000006953,None,92,0,91,348.5979976999988,,,,,,,,,,,,,,,,,,,,,,,,,,,,,,,,,,,,,,,,,,,,,,,,,,348.58372789999885,348.5979976999988,349.12753689999954,349.0826571999987,349.12468219999937,349.12753689999954,349.12753689999954,349.12753689999954,352.7001505999997,Objects\325b.jpg,pre,s,3.5562628000006953,None,,,,,,,,00052,001,2026-01-18_18h26.03.402,MST_test,2024.2.0,59.62883435756326,2026-01-18 18h26.14.312828 +0530,
92,0,93,s,1.4926135999994585,None,93,0,92,352.71486509999886,,,,,,,,,,,,,,,,,,,,,,,,,,,,,,,,,,,,,,,,,,,,,,,,,,352.7003909999985,352.71486509999886,353.2152439999991,353.19933049999963,353.20533129999967,353.2152439999991,353.2152439999991,353.2152439999991,354.71650299999965,Foils\082a.jpg,none,s,1.4926135999994585,None,,,,,,,,00052,001,2026-01-18_18h26.03.402,MST_test,2024.2.0,59.62883435756326,2026-01-18 18h26.14.312828 +0530,
93,0,94,n,1.2385140999995201,None,94,0,93,354.7313959999992,,,,,,,,,,,,,,,,,,,,,,,,,,,,,,,,,,,,,,,,,,,,,,,,,,354.7167372999993,354.7313959999992,355.24544239999886,355.21568469999875,355.2426670999994,355.24544239999886,355.24544239999886,355.24544239999886,356.5002766999987,Objects\301b.jpg,mid,n,1.2385140999995201,None,,,,,,,,00052,001,2026-01-18_18h26.03.402,MST_test,2024.2.0,59.62883435756326,2026-01-18 18h26.14.312828 +0530,
94,0,95,s,1.6198516999993444,None,95,0,94,356.5149189999993,,,,,,,,,,,,,,,,,,,,,,,,,,,,,,,,,,,,,,,,,,,,,,,,,,356.5005526999994,356.5149189999993,357.04058409999925,356.999108,357.0378372999985,357.04058409999925,357.04058409999925,357.04058409999925,358.66663979999976,Objects\107b.jpg,pre,s,1.6198516999993444,None,,,,,,,,00052,001,2026-01-18_18h26.03.402,MST_test,2024.2.0,59.62883435756326,2026-01-18 18h26.14.312828 +0530,
95,0,96,s,5.393174599999838,None,96,0,95,358.68165749999935,,,,,,,,,,,,,,,,,,,,,,,,,,,,,,,,,,,,,,,,,,,,,,,,,,358.6668587999993,358.68165749999935,359.19484699999884,359.1659837999996,359.1917724999985,359.19484699999884,359.19484699999884,359.19484699999884,364.60003770000003,Objects\222b.jpg,post,s,5.393174599999838,None,,,,,,,,00052,001,2026-01-18_18h26.03.402,MST_test,2024.2.0,59.62883435756326,2026-01-18 18h26.14.312828 +0530,
96,0,97,s,1.7767917000001034,None,97,0,96,364.6148190999993,,,,,,,,,,,,,,,,,,,,,,,,,,,,,,,,,,,,,,,,,,,,,,,,,,364.60029119999854,364.6148190999993,365.1153136999983,365.0989875999985,365.10491489999913,365.1153136999983,365.1153136999983,365.1153136999983,366.89979909999965,Objects\305b.jpg,mid,s,1.7767917000001034,None,,,,,,,,00052,001,2026-01-18_18h26.03.402,MST_test,2024.2.0,59.62883435756326,2026-01-18 18h26.14.312828 +0530,
97,0,98,o,1.32484999999906,None,98,0,97,366.91489980000006,,,,,,,,,,,,,,,,,,,,,,,,,,,,,,,,,,,,,,,,,,,,,,,,,,366.90007589999914,366.91489980000006,367.4149247999994,367.3991815999998,367.40743979999934,367.4149247999994,367.4149247999994,367.4149247999994,368.7499441,Objects\152a.jpg,pre,o,1.32484999999906,None,,,,,,,,00052,001,2026-01-18_18h26.03.402,MST_test,2024.2.0,59.62883435756326,2026-01-18 18h26.14.312828 +0530,
98,0,99,n,1.875348400000803,None,99,0,98,368.7649679999995,,,,,,,,,,,,,,,,,,,,,,,,,,,,,,,,,,,,,,,,,,,,,,,,,,368.7503420999983,368.7649679999995,369.2650776999999,369.24943559999883,369.2555605999987,369.2650776999999,369.2650776999999,369.2650776999999,371.15001159999883,Foils\002a.jpg,none,n,1.875348400000803,None,,,,,,,,00052,001,2026-01-18_18h26.03.402,MST_test,2024.2.0,59.62883435756326,2026-01-18 18h26.14.312828 +0530,
99,0,100,s,1.3629792000010639,None,100,0,99,371.1648794999983,,,,,,,,,,,,,,,,,,,,,,,,,,,,,,,,,,,,,,,,,,,,,,,,,,371.15031589999853,371.1648794999983,371.6652222999983,371.6494032999999,371.65708579999955,371.6652222999983,371.6652222999983,371.6652222999983,373.0335271999993,Objects\346b.jpg,post,s,1.3629792000010639,None,,,,,,,,00052,001,2026-01-18_18h26.03.402,MST_test,2024.2.0,59.62883435756326,2026-01-18 18h26.14.312828 +0530,
100,0,101,s,1.103766700000051,None,101,0,100,373.0486626999991,,,,,,,,,,,,,,,,,,,,,,,,,,,,,,,,,,,,,,,,,,,,,,,,,,373.0337872,373.0486626999991,373.58838409999953,373.5326477999988,373.5852853999986,373.58838409999953,373.58838409999953,373.58838409999953,374.7000618999991,Objects\060b.jpg,pre,s,1.103766700000051,None,,,,,,,,00052,001,2026-01-18_18h26.03.402,MST_test,2024.2.0,59.62883435756326,2026-01-18 18h26.14.312828 +0530,
101,0,102,s,0.8642304000004515,None,102,0,101,374.71470429999863,,,,,,,,,,,,,,,,,,,,,,,,,,,,,,,,,,,,,,,,,,,,,,,,,,374.7003158999996,374.71470429999863,375.26763179999944,375.1991788999985,375.2646503999986,375.26763179999944,375.26763179999944,375.26763179999944,376.13397899999836,Objects\231b.jpg,pre,s,0.8642304000004515,None,,,,,,,,00052,001,2026-01-18_18h26.03.402,MST_test,2024.2.0,59.62883435756326,2026-01-18 18h26.14.312828 +0530,
102,0,103,n,1.9746130000003177,None,103,0,102,376.1480492999999,,,,,,,,,,,,,,,,,,,,,,,,,,,,,,,,,,,,,,,,,,,,,,,,,,376.1342668999987,376.1480492999999,376.6771828000001,376.63271469999927,376.67401749999954,376.6771828000001,376.6771828000001,376.6771828000001,378.66675119999854,Objects\180b.jpg,post,n,1.9746130000003177,None,,,,,,,,00052,001,2026-01-18_18h26.03.402,MST_test,2024.2.0,59.62883435756326,2026-01-18 18h26.14.312828 +0530,
103,0,104,o,1.5264131000003545,None,104,0,103,378.6815033999992,,,,,,,,,,,,,,,,,,,,,,,,,,,,,,,,,,,,,,,,,,,,,,,,,,378.66710219999914,378.6815033999992,379.1818050999991,379.1655645999999,379.1742658999992,379.1818050999991,379.1818050999991,379.1818050999991,380.71658899999966,Objects\176a.jpg,mid,o,1.5264131000003545,None,,,,,,,,00052,001,2026-01-18_18h26.03.402,MST_test,2024.2.0,59.62883435756326,2026-01-18 18h26.14.312828 +0530,
104,0,105,o,1.2518861000007746,None,105,0,104,380.7315888999983,,,,,,,,,,,,,,,,,,,,,,,,,,,,,,,,,,,,,,,,,,,,,,,,,,380.7169027,380.7315888999983,381.23191829999996,381.2157697999992,381.2237544999989,381.23191829999996,381.23191829999996,381.23191829999996,382.50071989999924,Objects\189a.jpg,post,o,1.2518861000007746,None,,,,,,,,00052,001,2026-01-18_18h26.03.402,MST_test,2024.2.0,59.62883435756326,2026-01-18 18h26.14.312828 +0530,
105,0,106,s,1.0614134000006743,None,106,0,105,382.51538660000006,,,,,,,,,,,,,,,,,,,,,,,,,,,,,,,,,,,,,,,,,,,,,,,,,,382.50101079999877,382.51538660000006,383.0152464999992,382.9990281999999,383.0046939999993,383.0152464999992,383.0152464999992,383.0152464999992,384.0838378999997,Objects\131a.jpg,post,s,1.0614134000006743,None,,,,,,,,00052,001,2026-01-18_18h26.03.402,MST_test,2024.2.0,59.62883435756326,2026-01-18 18h26.14.312828 +0530,
106,0,107,s,1.6791296999999759,None,107,0,106,384.09811079999963,,,,,,,,,,,,,,,,,,,,,,,,,,,,,,,,,,,,,,,,,,,,,,,,,,384.08413049999945,384.09811079999963,384.6286205999986,384.58285009999963,384.62552439999854,384.6286205999986,384.6286205999986,384.6286205999986,386.31759280000006,Objects\116b.jpg,post,s,1.6791296999999759,None,,,,,,,,00052,001,2026-01-18_18h26.03.402,MST_test,2024.2.0,59.62883435756326,2026-01-18 18h26.14.312828 +0530,
107,0,108,s,0.9800689999992755,None,108,0,107,386.33144619999985,,,,,,,,,,,,,,,,,,,,,,,,,,,,,,,,,,,,,,,,,,,,,,,,,,386.31780959999924,386.33144619999985,386.8317533999998,386.8157035999993,386.8198479999992,386.8317533999998,386.8317533999998,386.8317533999998,387.8168571999995,Objects\062a.jpg,mid,s,0.9800689999992755,None,,,,,,,,00052,001,2026-01-18_18h26.03.402,MST_test,2024.2.0,59.62883435756326,2026-01-18 18h26.14.312828 +0530,
108,0,109,s,2.856071600001087,None,109,0,108,387.8317952999987,,,,,,,,,,,,,,,,,,,,,,,,,,,,,,,,,,,,,,,,,,,,,,,,,,387.817035099999,387.8317952999987,388.33215500000006,388.3159319999995,388.32497049999984,388.33215500000006,388.33215500000006,388.33215500000006,391.2007225999987,Objects\378b.jpg,mid,s,2.856071600001087,None,,,,,,,,00052,001,2026-01-18_18h26.03.402,MST_test,2024.2.0,59.62883435756326,2026-01-18 18h26.14.312828 +0530,
109,0,110,s,1.0476699999999255,None,110,0,109,391.2150914999984,,,,,,,,,,,,,,,,,,,,,,,,,,,,,,,,,,,,,,,,,,,,,,,,,,391.2011006999983,391.2150914999984,391.73221620000004,391.6993638999993,391.72908239999924,391.73221620000004,391.73221620000004,391.73221620000004,392.78298019999966,Objects\080b.jpg,post,s,1.0476699999999255,None,,,,,,,,00052,001,2026-01-18_18h26.03.402,MST_test,2024.2.0,59.62883435756326,2026-01-18 18h26.14.312828 +0530,
110,0,111,s,5.762175699999716,None,111,0,110,392.7980674999999,,,,,,,,,,,,,,,,,,,,,,,,,,,,,,,,,,,,,,,,,,,,,,,,,,392.7833531999986,392.7980674999999,393.2987731999983,393.2827158,393.2910404999984,393.2987731999983,393.2987731999983,393.2987731999983,399.06655209999917,Objects\250a.jpg,pre,s,5.762175699999716,None,,,,,,,,00052,001,2026-01-18_18h26.03.402,MST_test,2024.2.0,59.62883435756326,2026-01-18 18h26.14.312828 +0530,
111,0,112,s,0.9481813000002148,None,112,0,111,399.08146879999913,,,,,,,,,,,,,,,,,,,,,,,,,,,,,,,,,,,,,,,,,,,,,,,,,,399.06700249999994,399.08146879999913,399.6001867999985,399.56576909999967,399.5972852999985,399.6001867999985,399.6001867999985,399.6001867999985,400.55052029999933,Objects\246b.jpg,pre,s,0.9481813000002148,None,,,,,,,,00052,001,2026-01-18_18h26.03.402,MST_test,2024.2.0,59.62883435756326,2026-01-18 18h26.14.312828 +0530,
112,0,113,s,1.294187299999976,None,113,0,112,400.5647638999999,,,,,,,,,,,,,,,,,,,,,,,,,,,,,,,,,,,,,,,,,,,,,,,,,,400.55085229999895,400.5647638999999,401.10248709999905,401.0490517999988,401.09964299999956,401.10248709999905,401.10248709999905,401.10248709999905,402.4001396999993,Objects\370b.jpg,post,s,1.294187299999976,None,,,,,,,,00052,001,2026-01-18_18h26.03.402,MST_test,2024.2.0,59.62883435756326,2026-01-18 18h26.14.312828 +0530,
113,0,114,s,0.905624800001533,None,114,0,113,402.4147036999984,,,,,,,,,,,,,,,,,,,,,,,,,,,,,,,,,,,,,,,,,,,,,,,,,,402.4004357999984,402.4147036999984,402.91498049999973,402.8992688999988,402.90543199999956,402.91498049999973,402.91498049999973,402.91498049999973,403.83385459999954,Objects\037b.jpg,post,s,0.905624800001533,None,,,,,,,,00052,001,2026-01-18_18h26.03.402,MST_test,2024.2.0,59.62883435756326,2026-01-18 18h26.14.312828 +0530,
114,0,115,s,0.7521472000007634,None,115,0,114,403.8481137999988,,,,,,,,,,,,,,,,,,,,,,,,,,,,,,,,,,,,,,,,,,,,,,,,,,403.8341169999985,403.8481137999988,404.3796810999993,404.33258059999935,404.37709259999974,404.3796810999993,404.3796810999993,404.3796810999993,405.1338931999999,Objects\254b.jpg,mid,s,0.7521472000007634,None,,,,,,,,00052,001,2026-01-18_18h26.03.402,MST_test,2024.2.0,59.62883435756326,2026-01-18 18h26.14.312828 +0530,
115,0,116,o,1.2595814999986032,None,116,0,115,405.1480419999989,,,,,,,,,,,,,,,,,,,,,,,,,,,,,,,,,,,,,,,,,,,,,,,,,,405.1343380999988,405.1480419999989,405.64865479999935,405.6325678999983,405.6386408999988,405.64865479999935,405.64865479999935,405.64865479999935,406.91692929999954,Objects\130b.jpg,mid,o,1.2595814999986032,None,,,,,,,,00052,001,2026-01-18_18h26.03.402,MST_test,2024.2.0,59.62883435756326,2026-01-18 18h26.14.312828 +0530,
116,0,117,s,0.7564533999993728,None,117,0,116,406.93166239999846,,,,,,,,,,,,,,,,,,,,,,,,,,,,,,,,,,,,,,,,,,,,,,,,,,406.9172423,406.93166239999846,407.4787784,407.41573919999973,407.4760989999995,407.4787784,407.4787784,407.4787784,408.2501354999986,Objects\237b.jpg,post,s,0.7564533999993728,None,,,,,,,,00052,001,2026-01-18_18h26.03.402,MST_test,2024.2.0,59.62883435756326,2026-01-18 18h26.14.312828 +0530,
117,0,118,o,1.367292400000224,None,118,0,117,408.26470889999837,,,,,,,,,,,,,,,,,,,,,,,,,,,,,,,,,,,,,,,,,,,,,,,,,,408.2504192999986,408.26470889999837,408.76541779999934,408.7497902999985,408.7562070999993,408.76541779999934,408.76541779999934,408.76541779999934,410.1497475999986,Objects\207a.jpg,mid,o,1.367292400000224,None,,,,,,,,00052,001,2026-01-18_18h26.03.402,MST_test,2024.2.0,59.62883435756326,2026-01-18 18h26.14.312828 +0530,
118,0,119,o,2.8259543999993184,None,119,0,118,410.1648434999988,,,,,,,,,,,,,,,,,,,,,,,,,,,,,,,,,,,,,,,,,,,,,,,,,,410.1499664999992,410.1648434999988,410.66516219999903,410.6491557999998,410.6584487,410.66516219999903,410.66516219999903,410.66516219999903,413.5008610999994,Objects\381a.jpg,post,o,2.8259543999993184,None,,,,,,,,00052,001,2026-01-18_18h26.03.402,MST_test,2024.2.0,59.62883435756326,2026-01-18 18h26.14.312828 +0530,
119,0,120,s,1.1591339999995398,None,120,0,119,413.51497199999903,,,,,,,,,,,,,,,,,,,,,,,,,,,,,,,,,,,,,,,,,,,,,,,,,,413.5012207999989,413.51497199999903,414.05319579999923,413.99932009999975,414.0493701999985,414.05319579999923,414.05319579999923,414.05319579999923,415.21676819999993,Objects\363b.jpg,pre,s,1.1591339999995398,None,,,,,,,,00052,001,2026-01-18_18h26.03.402,MST_test,2024.2.0,59.62883435756326,2026-01-18 18h26.14.312828 +0530,
120,0,121,s,1.0639554999997927,None,121,0,120,415.23145609999847,,,,,,,,,,,,,,,,,,,,,,,,,,,,,,,,,,,,,,,,,,,,,,,,,,415.217041599999,415.23145609999847,415.7323889999989,415.7163939999991,415.72659939999903,415.7323889999989,415.7323889999989,415.7323889999989,416.80033269999876,Foils\026a.jpg,none,s,1.0639554999997927,None,,,,,,,,00052,001,2026-01-18_18h26.03.402,MST_test,2024.2.0,59.62883435756326,2026-01-18 18h26.14.312828 +0530,
121,0,122,s,0.7050768000008247,None,122,0,121,416.8148508999984,,,,,,,,,,,,,,,,,,,,,,,,,,,,,,,,,,,,,,,,,,,,,,,,,,416.80059209999854,416.8148508999984,417.3151328999993,417.29925829999956,417.3065910999994,417.3151328999993,417.3151328999993,417.3151328999993,418.0333232999983,Objects\376a.jpg,post,s,0.7050768000008247,None,,,,,,,,00052,001,2026-01-18_18h26.03.402,MST_test,2024.2.0,59.62883435756326,2026-01-18 18h26.14.312828 +0530,
122,0,123,s,1.0212719999999536,None,123,0,122,418.0481136999988,,,,,,,,,,,,,,,,,,,,,,,,,,,,,,,,,,,,,,,,,,,,,,,,,,418.03374359999907,418.0481136999988,418.56671039999856,418.5326238999987,418.5640764999989,418.56671039999856,418.56671039999856,418.56671039999856,419.6012120999985,Objects\132b.jpg,mid,s,1.0212719999999536,None,,,,,,,,00052,001,2026-01-18_18h26.03.402,MST_test,2024.2.0,59.62883435756326,2026-01-18 18h26.14.312828 +0530,
123,0,124,n,1.6965142999997624,None,124,0,123,419.6147859999983,,,,,,,,,,,,,,,,,,,,,,,,,,,,,,,,,,,,,,,,,,,,,,,,,,419.60157309999886,419.6147859999983,420.11564949999956,420.0995363999991,420.10826129999987,420.11564949999956,420.11564949999956,420.11564949999956,421.81683189999967,Objects\352b.jpg,mid,n,1.6965142999997624,None,,,,,,,,00052,001,2026-01-18_18h26.03.402,MST_test,2024.2.0,59.62883435756326,2026-01-18 18h26.14.312828 +0530,
124,0,125,n,1.1512529000010545,None,125,0,124,421.8314802999994,,,,,,,,,,,,,,,,,,,,,,,,,,,,,,,,,,,,,,,,,,,,,,,,,,421.8171795999988,421.8314802999994,422.3318703999994,422.3159065999989,422.322752099999,422.3318703999994,422.3318703999994,422.3318703999994,423.5000255999985,Foils\097a.jpg,none,n,1.1512529000010545,None,,,,,,,,00052,001,2026-01-18_18h26.03.402,MST_test,2024.2.0,59.62883435756326,2026-01-18 18h26.14.312828 +0530,
125,0,126,n,0.6349969999992027,None,126,0,125,423.5147404999989,,,,,,,,,,,,,,,,,,,,,,,,,,,,,,,,,,,,,,,,,,,,,,,,,,423.5004147999989,423.5147404999989,424.0487672999989,423.99906459999875,424.0068769999998,424.0487672999989,424.0487672999989,424.0487672999989,424.70026659999894,Foils\033a.jpg,none,n,0.6349969999992027,None,,,,,,,,00052,001,2026-01-18_18h26.03.402,MST_test,2024.2.0,59.62883435756326,2026-01-18 18h26.14.312828 +0530,
126,0,127,s,2.2053579999992508,None,127,0,126,424.71480509999856,,,,,,,,,,,,,,,,,,,,,,,,,,,,,,,,,,,,,,,,,,,,,,,,,,424.7006606999985,424.71480509999856,425.21489519999886,425.19924509999873,425.20565969999916,425.21489519999886,425.21489519999886,425.21489519999886,427.4347225999991,Objects\133b.jpg,pre,s,2.2053579999992508,None,,,,,,,,00052,001,2026-01-18_18h26.03.402,MST_test,2024.2.0,59.62883435756326,2026-01-18 18h26.14.312828 +0530,
127,0,128,o,3.3590053000007174,None,128,0,127,427.4481223999992,,,,,,,,,,,,,,,,,,,,,,,,,,,,,,,,,,,,,,,,,,,,,,,,,,427.43515579999985,427.4481223999992,427.94825859999946,427.9326846999993,427.9413093999992,427.94825859999946,427.94825859999946,427.94825859999946,431.316546,Objects\026a.jpg,mid,o,3.3590053000007174,None,,,,,,,,00052,001,2026-01-18_18h26.03.402,MST_test,2024.2.0,59.62883435756326,2026-01-18 18h26.14.312828 +0530,
128,0,129,o,1.2740627999992284,None,129,0,128,431.3323660999995,,,,,,,,,,,,,,,,,,,,,,,,,,,,,,,,,,,,,,,,,,,,,,,,,,431.3169720999995,431.3323660999995,,431.8319032999989,431.87899109999853,431.8816311999999,431.8816311999999,431.8816311999999,433.16700909999963,Objects\081b.jpg,post,o,1.2740627999992284,None,,,,,,,,00052,001,2026-01-18_18h26.03.402,MST_test,2024.2.0,59.62883435756326,2026-01-18 18h26.14.312828 +0530,
129,0,130,o,0.8020242000002327,None,130,0,129,433.18230669999866,,,,,,,,,,,,,,,,,,,,,,,,,,,,,,,,,,,,,,,,,,,,,,,,,,433.1673574999986,433.18230669999866,433.6819788999983,433.6659394999988,433.6719319999993,433.6819788999983,433.6819788999983,433.6819788999983,434.50087279999934,Objects\291a.jpg,pre,o,0.8020242000002327,None,,,,,,,,00052,001,2026-01-18_18h26.03.402,MST_test,2024.2.0,59.62883435756326,2026-01-18 18h26.14.312828 +0530,
130,0,131,o,1.7410727000005863,None,131,0,130,434.5149167999989,,,,,,,,,,,,,,,,,,,,,,,,,,,,,,,,,,,,,,,,,,,,,,,,,,434.50117019999925,434.5149167999989,435.0152287000001,434.99942369999917,435.005817199999,435.0152287000001,435.0152287000001,435.0152287000001,436.7664900999989,Objects\255a.jpg,post,o,1.7410727000005863,None,,,,,,,,00052,001,2026-01-18_18h26.03.402,MST_test,2024.2.0,59.62883435756326,2026-01-18 18h26.14.312828 +0530,
131,0,132,o,0.9140483000010136,None,132,0,131,436.7817982999986,,,,,,,,,,,,,,,,,,,,,,,,,,,,,,,,,,,,,,,,,,,,,,,,,,436.76675609999984,436.7817982999986,437.28219609999906,437.26598939999894,437.27154699999846,437.28219609999906,437.28219609999906,437.28219609999906,438.19996549999996,Objects\373a.jpg,mid,o,0.9140483000010136,None,,,,,,,,00052,001,2026-01-18_18h26.03.402,MST_test,2024.2.0,59.62883435756326,2026-01-18 18h26.14.312828 +0530,
132,0,133,s,0.848839100000987,None,133,0,132,438.21480659999906,,,,,,,,,,,,,,,,,,,,,,,,,,,,,,,,,,,,,,,,,,,,,,,,,,438.2003995999985,438.21480659999906,438.7155125999998,438.6992295,438.70513389999905,438.7155125999998,438.7155125999998,438.7155125999998,439.5668102999989,Foils\113a.jpg,none,s,0.848839100000987,None,,,,,,,,00052,001,2026-01-18_18h26.03.402,MST_test,2024.2.0,59.62883435756326,2026-01-18 18h26.14.312828 +0530,
133,0,134,s,0.8461194000010437,None,134,0,133,439.5814172999999,,,,,,,,,,,,,,,,,,,,,,,,,,,,,,,,,,,,,,,,,,,,,,,,,,439.5670743999999,439.5814172999999,440.1092437999996,440.06575859999975,440.1065542999986,440.1092437999996,440.1092437999996,440.1092437999996,440.9671740999984,Objects\287b.jpg,mid,s,0.8461194000010437,None,,,,,,,,00052,001,2026-01-18_18h26.03.402,MST_test,2024.2.0,59.62883435756326,2026-01-18 18h26.14.312828 +0530,
134,0,135,s,0.6258937000002334,None,135,0,134,440.98140019999846,,,,,,,,,,,,,,,,,,,,,,,,,,,,,,,,,,,,,,,,,,,,,,,,,,440.96750359999896,440.98140019999846,441.4818159999995,441.46608339999875,441.47202839999954,441.4818159999995,441.4818159999995,441.4818159999995,442.117108299999,Objects\153a.jpg,mid,s,0.6258937000002334,None,,,,,,,,00052,001,2026-01-18_18h26.03.402,MST_test,2024.2.0,59.62883435756326,2026-01-18 18h26.14.312828 +0530,
135,0,136,s,0.8351787999999942,None,136,0,135,442.13133879999987,,,,,,,,,,,,,,,,,,,,,,,,,,,,,,,,,,,,,,,,,,,,,,,,,,442.1173771999984,442.13133879999987,442.6318745999997,442.6159424999987,442.6243695999983,442.6318745999997,442.6318745999997,442.6318745999997,443.4839046999987,Objects\205b.jpg,post,s,0.8351787999999942,None,,,,,,,,00052,001,2026-01-18_18h26.03.402,MST_test,2024.2.0,59.62883435756326,2026-01-18 18h26.14.312828 +0530,
136,0,137,s,0.8529166000007535,None,137,0,136,443.49844869999833,,,,,,,,,,,,,,,,,,,,,,,,,,,,,,,,,,,,,,,,,,,,,,,,,,443.48419159999867,443.49844869999833,444.0309921999997,443.9825691999995,444.02755199999956,444.0309921999997,444.0309921999997,444.0309921999997,444.90024769999945,Objects\154b.jpg,post,s,0.8529166000007535,None,,,,,,,,00052,001,2026-01-18_18h26.03.402,MST_test,2024.2.0,59.62883435756326,2026-01-18 18h26.14.312828 +0530,
137,0,138,s,1.5649979000008898,None,138,0,137,444.9147804999993,,,,,,,,,,,,,,,,,,,,,,,,,,,,,,,,,,,,,,,,,,,,,,,,,,444.9006741999983,444.9147804999993,445.4151932999994,445.39916429999903,445.40704509999887,445.4151932999994,445.4151932999994,445.4151932999994,446.98336689999996,Objects\002a.jpg,pre,s,1.5649979000008898,None,,,,,,,,00052,001,2026-01-18_18h26.03.402,MST_test,2024.2.0,59.62883435756326,2026-01-18 18h26.14.312828 +0530,
138,0,139,n,0.9938827999994828,None,139,0,138,446.99824850000005,,,,,,,,,,,,,,,,,,,,,,,,,,,,,,,,,,,,,,,,,,,,,,,,,,446.9836329999998,446.99824850000005,447.4982461999989,447.4824882999983,447.4909771999992,447.4982461999989,447.4982461999989,447.4982461999989,448.50091409999914,Foils\009a.jpg,none,n,0.9938827999994828,None,,,,,,,,00052,001,2026-01-18_18h26.03.402,MST_test,2024.2.0,59.62883435756326,2026-01-18 18h26.14.312828 +0530,
139,0,140,s,0.7896307999999408,None,140,0,139,448.5151354999998,,,,,,,,,,,,,,,,,,,,,,,,,,,,,,,,,,,,,,,,,,,,,,,,,,448.5013463999985,448.5151354999998,449.0150627999992,448.99942219999866,449.0077967999987,449.0150627999992,449.0150627999992,449.0150627999992,449.8158025999983,Objects\274a.jpg,pre,s,0.7896307999999408,None,,,,,,,,00052,001,2026-01-18_18h26.03.402,MST_test,2024.2.0,59.62883435756326,2026-01-18 18h26.14.312828 +0530,
140,0,141,o,1.3923821999997017,None,141,0,140,449.8314838999995,,,,,,,,,,,,,,,,,,,,,,,,,,,,,,,,,,,,,,,,,,,,,,,,,,449.8159754999997,449.8314838999995,450.3319189999984,450.3161336999983,450.3222853999996,450.3319189999984,450.3319189999984,450.3319189999984,451.7337674999999,Objects\215a.jpg,pre,o,1.3923821999997017,None,,,,,,,,00052,001,2026-01-18_18h26.03.402,MST_test,2024.2.0,59.62883435756326,2026-01-18 18h26.14.312828 +0530,
141,0,142,o,0.9390012999992905,None,142,0,141,451.74799189999976,,,,,,,,,,,,,,,,,,,,,,,,,,,,,,,,,,,,,,,,,,,,,,,,,,451.73413939999955,451.74799189999976,452.2487702999988,452.2325046999995,452.2391482999992,452.2487702999988,452.2487702999988,452.2487702999988,453.20024029999877,Objects\257b.jpg,pre,o,0.9390012999992905,None,,,,,,,,00052,001,2026-01-18_18h26.03.402,MST_test,2024.2.0,59.62883435756326,2026-01-18 18h26.14.312828 +0530,
142,0,143,o,0.65628900000047,None,143,0,142,453.2148374999997,,,,,,,,,,,,,,,,,,,,,,,,,,,,,,,,,,,,,,,,,,,,,,,,,,453.200590299999,453.2148374999997,453.71573779999926,453.69911949999914,453.70713709999836,453.71573779999926,453.71573779999926,453.71573779999926,454.38329259999955,Objects\245a.jpg,mid,o,0.65628900000047,None,,,,,,,,00052,001,2026-01-18_18h26.03.402,MST_test,2024.2.0,59.62883435756326,2026-01-18 18h26.14.312828 +0530,
143,0,144,o,0.8573172000014893,None,144,0,143,454.3981069999991,,,,,,,,,,,,,,,,,,,,,,,,,,,,,,,,,,,,,,,,,,,,,,,,,,454.3837126999988,454.3981069999991,454.89842580000004,454.8823137999989,454.8870180999984,454.89842580000004,454.89842580000004,454.89842580000004,455.76696249999986,Objects\364a.jpg,post,o,0.8573172000014893,None,,,,,,,,00052,001,2026-01-18_18h26.03.402,MST_test,2024.2.0,59.62883435756326,2026-01-18 18h26.14.312828 +0530,
144,0,145,o,0.8586008000002039,None,145,0,144,455.7817497999986,,,,,,,,,,,,,,,,,,,,,,,,,,,,,,,,,,,,,,,,,,,,,,,,,,455.7673591999992,455.7817497999986,456.28185309999935,456.26586979999956,456.2749610999999,456.28185309999935,456.28185309999935,456.28185309999935,457.1502755999991,Objects\282a.jpg,pre,o,0.8586008000002039,None,,,,,,,,00052,001,2026-01-18_18h26.03.402,MST_test,2024.2.0,59.62883435756326,2026-01-18 18h26.14.312828 +0530,
145,0,146,o,0.6025645000008808,None,146,0,145,457.1647742999994,,,,,,,,,,,,,,,,,,,,,,,,,,,,,,,,,,,,,,,,,,,,,,,,,,457.1505279999983,457.1647742999994,457.6651587999986,457.6491740999991,457.6548073999984,457.6651587999986,457.6651587999986,457.6651587999986,458.2839740999989,Objects\225a.jpg,mid,o,0.6025645000008808,None,,,,,,,,00052,001,2026-01-18_18h26.03.402,MST_test,2024.2.0,59.62883435756326,2026-01-18 18h26.14.312828 +0530,
146,0,147,n,1.43678490000093,None,147,0,146,458.2981500999995,,,,,,,,,,,,,,,,,,,,,,,,,,,,,,,,,,,,,,,,,,,,,,,,,,458.2843434999995,458.2981500999995,458.7982702999998,458.78255369999897,458.79023869999946,458.7982702999998,458.7982702999998,458.7982702999998,460.2512208999997,Foils\106a.jpg,none,n,1.43678490000093,None,,,,,,,,00052,001,2026-01-18_18h26.03.402,MST_test,2024.2.0,59.62883435756326,2026-01-18 18h26.14.312828 +0530,
147,0,148,o,1.3021594000001642,None,148,0,147,460.2660535999985,,,,,,,,,,,,,,,,,,,,,,,,,,,,,,,,,,,,,,,,,,,,,,,,,,460.2516231999998,460.2660535999985,,460.7652901999991,460.77426489999925,460.7816933999984,460.7816933999984,460.7816933999984,462.10018239999954,Objects\066a.jpg,post,o,1.3021594000001642,None,,,,,,,,00052,001,2026-01-18_18h26.03.402,MST_test,2024.2.0,59.62883435756326,2026-01-18 18h26.14.312828 +0530,
148,0,149,o,1.3969903999986855,None,149,0,148,462.1146835999989,,,,,,,,,,,,,,,,,,,,,,,,,,,,,,,,,,,,,,,,,,,,,,,,,,462.1005303999991,462.1146835999989,462.6150237999991,462.5991892999991,462.60674259999905,462.6150237999991,462.6150237999991,462.6150237999991,464.0164843999992,Objects\156a.jpg,pre,o,1.3969903999986855,None,,,,,,,,00052,001,2026-01-18_18h26.03.402,MST_test,2024.2.0,59.62883435756326,2026-01-18 18h26.14.312828 +0530,
149,0,150,o,2.1123535000006086,None,150,0,149,464.03148039999905,,,,,,,,,,,,,,,,,,,,,,,,,,,,,,,,,,,,,,,,,,,,,,,,,,464.01673739999933,464.03148039999905,464.5316694999983,464.51601219999975,464.52176899999904,464.5316694999983,464.5316694999983,464.5316694999983,466.6501197999987,Objects\122a.jpg,mid,o,2.1123535000006086,None,,,,,,,,00052,001,2026-01-18_18h26.03.402,MST_test,2024.2.0,59.62883435756326,2026-01-18 18h26.14.312828 +0530,
,,,,,,,,,,,,,,,,,,,,,,,,,,,,,,,,,,,,,,,,,,,,,,,,,,,,,,,,,,,,,,,,,,,,,,,,,466.65030039999874,466.6649043999987,466.6649043999987,468.81670099999974,space,2.1388366000010137,None,00052,001,2026-01-18_18h26.03.402,MST_test,2024.2.0,59.62883435756326,2026-01-18 18h26.14.312828 +0530,
