thisN,thisTrialN,thisRepN,key_resp_3.keys,key_resp_3.rt,key_resp_3.duration,trials.thisRepN,trials.thisTrialN,trials.thisN,thisRow.t,notes,intro_page.started,text.started,key_resp.started,intro_page.stopped,key_resp.keys,key_resp.rt,key_resp.duration,instructions.started,text_2.started,key_resp_2.started,instructions.stopped,key_resp_2.keys,key_resp_2.rt,key_resp_2.duration,demo1.started,image_1.started,image_2.started,text_7.started,key_resp_6.started,text_9.started,demo1.stopped,key_resp_6.keys,key_resp_6.rt,key_resp_6.duration,demo3.started,image_5.started,image_6.started,text_11.started,text_12.started,key_resp_8.started,demo3.stopped,key_resp_8.keys,key_resp_8.rt,key_resp_8.duration,demo_conclusion.started,text_13.started,key_resp_9.started,demo_conclusion.stopped,key_resp_9.keys,key_resp_9.rt,key_resp_9.duration,start_test.started,text_6.started,key_resp_5.started,start_test.stopped,key_resp_5.keys,key_resp_5.rt,key_resp_5.duration,ISI.started,text_4.started,text_4.stopped,ISI.stopped,routine_1.started,image.started,text_3.started,key_resp_3.started,routine_1.stopped,image_path,position_of_stimuli,trials.key_resp_3.keys,trials.key_resp_3.rt,trials.key_resp_3.duration,End_page.started,text_5.started,key_resp_4.started,End_page.stopped,key_resp_4.keys,key_resp_4.rt,key_resp_4.duration,participant,session,date,expName,psychopyVersion,frameRate,expStart,
,,,,,,,,,,,0.0011761999921873212,0.0025942999636754394,0.0025942999636754394,2.7356351999915205,space,2.7240595999755897,None,,,,,,,,,,,,,,,,,,,,,,,,,,,,,,,,,,,,,,,,,,,,,,,,,,,,,,,,,,,,,,,00059,001,2026-01-19_16h49.56.647,MST_test,2024.2.0,60.01543596889412,2026-01-19 16h50.04.991584 +0530,
,,,,,,,,,,,,,,,,,,2.7356701999669895,2.7502141000004485,2.7502141000004485,11.567622799950186,space,8.808352699968964,None,,,,,,,,,,,,,,,,,,,,,,,,,,,,,,,,,,,,,,,,,,,,,,,,,,,,,,,,00059,001,2026-01-19_16h49.56.647,MST_test,2024.2.0,60.01543596889412,2026-01-19 16h50.04.991584 +0530,
,,,,,,,,,,,,,,,,,,,,,,,,,11.567647999967448,11.584322899987455,11.584322899987455,11.584322899987455,11.584322899987455,11.584322899987455,15.78490959998453,space,4.19986599998083,None,,,,,,,,,,,,,,,,,,,,,,,,,,,,,,,,,,,,,,,,,,,,,,00059,001,2026-01-19_16h49.56.647,MST_test,2024.2.0,60.01543596889412,2026-01-19 16h50.04.991584 +0530,
,,,,,,,,,,,,,,,,,,,,,,,,,,,,,,,,,,,15.78493789996719,15.800803699996322,15.800803699996322,15.800803699996322,15.800803699996322,15.800803699996322,18.351089799951296,space,2.541710899968166,None,,,,,,,,,,,,,,,,,,,,,,,,,,,,,,,,,,,,00059,001,2026-01-19_16h49.56.647,MST_test,2024.2.0,60.01543596889412,2026-01-19 16h50.04.991584 +0530,
,,,,,,,,,,,,,,,,,,,,,,,,,,,,,,,,,,,,,,,,,,,,,18.35111649997998,18.367109899991192,18.367109899991192,40.13408219994744,space,21.751511899987236,None,,,,,,,,,,,,,,,,,,,,,,,,,,,,,00059,001,2026-01-19_16h49.56.647,MST_test,2024.2.0,60.01543596889412,2026-01-19 16h50.04.991584 +0530,
,,,,,,,,,,,,,,,,,,,,,,,,,,,,,,,,,,,,,,,,,,,,,,,,,,,,40.13411499996437,40.153381999989506,40.153381999989506,81.06748169998173,space,40.91039079998154,None,,,,,,,,,,,,,,,,,,,,,,00059,001,2026-01-19_16h49.56.647,MST_test,2024.2.0,60.01543596889412,2026-01-19 16h50.04.991584 +0530,
0,0,1,n,9.035811400040984,None,1,0,0,81.08371119998628,,,,,,,,,,,,,,,,,,,,,,,,,,,,,,,,,,,,,,,,,,,,,,,,,,81.07201029994758,81.08371119998628,81.58670990000246,81.56719799997518,81.58455939998385,81.58670990000246,81.58670990000246,81.58670990000246,90.6339909999515,Foils\026a.jpg,none,n,9.035811400040984,None,,,,,,,,00059,001,2026-01-19_16h49.56.647,MST_test,2024.2.0,60.01543596889412,2026-01-19 16h50.04.991584 +0530,
1,0,2,s,4.928848700015806,None,2,0,1,90.65032149996841,,,,,,,,,,,,,,,,,,,,,,,,,,,,,,,,,,,,,,,,,,,,,,,,,,90.63408109999727,90.65032149996841,91.15055029996438,91.13391059997957,91.14474269998027,91.15055029996438,91.15055029996438,91.15055029996438,96.08411769999657,Objects\278b.jpg,pre,s,4.928848700015806,None,,,,,,,,00059,001,2026-01-19_16h49.56.647,MST_test,2024.2.0,60.01543596889412,2026-01-19 16h50.04.991584 +0530,
2,0,3,s,6.7991583999828435,None,3,0,2,96.10032829997363,,,,,,,,,,,,,,,,,,,,,,,,,,,,,,,,,,,,,,,,,,,,,,,,,,96.0842078999849,96.10032829997363,96.6006540999515,96.58386269997573,96.58674669999164,96.6006540999515,96.6006540999515,96.6006540999515,103.40090149996104,Objects\183a.jpg,pre,s,6.7991583999828435,None,,,,,,,,00059,001,2026-01-19_16h49.56.647,MST_test,2024.2.0,60.01543596889412,2026-01-19 16h50.04.991584 +0530,
3,0,4,s,3.209570500010159,None,4,0,3,103.4169565999764,,,,,,,,,,,,,,,,,,,,,,,,,,,,,,,,,,,,,,,,,,,,,,,,,,103.40099199995166,103.4169565999764,103.91740199999185,103.90057709999382,103.91028569999617,103.91740199999185,103.91740199999185,103.91740199999185,107.13435239996761,Objects\356b.jpg,mid,s,3.209570500010159,None,,,,,,,,00059,001,2026-01-19_16h49.56.647,MST_test,2024.2.0,60.01543596889412,2026-01-19 16h50.04.991584 +0530,
4,0,5,o,1.9571470000082627,None,5,0,4,107.15033739997307,,,,,,,,,,,,,,,,,,,,,,,,,,,,,,,,,,,,,,,,,,,,,,,,,,107.13445509999292,107.15033739997307,107.65066709998064,107.63387789996341,107.63746779999929,107.65066709998064,107.65066709998064,107.65066709998064,109.61779379996005,Objects\358a.jpg,pre,o,1.9571470000082627,None,,,,,,,,00059,001,2026-01-19_16h49.56.647,MST_test,2024.2.0,60.01543596889412,2026-01-19 16h50.04.991584 +0530,
5,0,6,s,3.256805000011809,None,6,0,5,109.63362209999468,,,,,,,,,,,,,,,,,,,,,,,,,,,,,,,,,,,,,,,,,,,,,,,,,,109.61789239995414,109.63362209999468,110.13386139995418,110.11727269995026,110.12771969998721,110.13386139995418,110.13386139995418,110.13386139995418,113.4009240999585,Objects\216b.jpg,post,s,3.256805000011809,None,,,,,,,,00059,001,2026-01-19_16h49.56.647,MST_test,2024.2.0,60.01543596889412,2026-01-19 16h50.04.991584 +0530,
6,0,7,s,1.970696999982465,None,7,0,6,113.41720319999149,,,,,,,,,,,,,,,,,,,,,,,,,,,,,,,,,,,,,,,,,,,,,,,,,,113.40101409994531,113.41720319999149,113.917211699998,113.90058419998968,113.91023369994946,113.917211699998,113.917211699998,113.917211699998,115.90101809997577,Objects\117b.jpg,mid,s,1.970696999982465,None,,,,,,,,00059,001,2026-01-19_16h49.56.647,MST_test,2024.2.0,60.01543596889412,2026-01-19 16h50.04.991584 +0530,
7,0,8,o,2.061710700043477,None,8,0,7,115.91698079998605,,,,,,,,,,,,,,,,,,,,,,,,,,,,,,,,,,,,,,,,,,,,,,,,,,115.90110759995878,115.91698079998605,116.41734419995919,116.40066249994561,116.40306099998998,116.41734419995919,116.41734419995919,116.41734419995919,118.48444719996769,Objects\208a.jpg,mid,o,2.061710700043477,None,,,,,,,,00059,001,2026-01-19_16h49.56.647,MST_test,2024.2.0,60.01543596889412,2026-01-19 16h50.04.991584 +0530,
8,0,9,o,1.1184651000075974,None,9,0,8,118.50033519999124,,,,,,,,,,,,,,,,,,,,,,,,,,,,,,,,,,,,,,,,,,,,,,,,,,118.48454340000171,118.50033519999124,119.0006951999967,118.98388309997972,118.98782759997994,119.0006951999967,119.0006951999967,119.0006951999967,120.13424729998223,Objects\144a.jpg,post,o,1.1184651000075974,None,,,,,,,,00059,001,2026-01-19_16h49.56.647,MST_test,2024.2.0,60.01543596889412,2026-01-19 16h50.04.991584 +0530,
9,0,10,s,1.9719571000314318,None,10,0,9,120.15031239995733,,,,,,,,,,,,,,,,,,,,,,,,,,,,,,,,,,,,,,,,,,,,,,,,,,120.13434229994891,120.15031239995733,120.65082689997507,120.63409789995058,120.63688579999143,120.65082689997507,120.65082689997507,120.65082689997507,122.63421379995998,Objects\381a.jpg,post,s,1.9719571000314318,None,,,,,,,,00059,001,2026-01-19_16h49.56.647,MST_test,2024.2.0,60.01543596889412,2026-01-19 16h50.04.991584 +0530,
10,0,11,o,1.824198099959176,None,11,0,10,122.65039039996918,,,,,,,,,,,,,,,,,,,,,,,,,,,,,,,,,,,,,,,,,,,,,,,,,,122.63431009999476,122.65039039996918,123.15085229999386,123.13407499995083,123.13683059997857,123.15085229999386,123.15085229999386,123.15085229999386,124.98425069998484,Objects\195a.jpg,mid,o,1.824198099959176,None,,,,,,,,00059,001,2026-01-19_16h49.56.647,MST_test,2024.2.0,60.01543596889412,2026-01-19 16h50.04.991584 +0530,
11,0,12,o,0.8738562000216916,None,12,0,11,125.0003109999816,,,,,,,,,,,,,,,,,,,,,,,,,,,,,,,,,,,,,,,,,,,,,,,,,,124.98434439999983,125.0003109999816,125.50071259995457,125.48379339999519,125.48689819994615,125.50071259995457,125.50071259995457,125.50071259995457,126.38414449995616,Objects\064a.jpg,pre,o,0.8738562000216916,None,,,,,,,,00059,001,2026-01-19_16h49.56.647,MST_test,2024.2.0,60.01543596889412,2026-01-19 16h50.04.991584 +0530,
12,0,13,s,1.137779800046701,None,13,0,12,126.40034149994608,,,,,,,,,,,,,,,,,,,,,,,,,,,,,,,,,,,,,,,,,,,,,,,,,,126.38423409999814,126.40034149994608,126.90080059994943,126.88376849994529,126.89537859999109,126.90080059994943,126.90080059994943,126.90080059994943,128.0510815999587,Objects\229b.jpg,post,s,1.137779800046701,None,,,,,,,,00059,001,2026-01-19_16h49.56.647,MST_test,2024.2.0,60.01543596889412,2026-01-19 16h50.04.991584 +0530,
13,0,14,s,1.3674590000300668,None,14,0,13,128.0669836999732,,,,,,,,,,,,,,,,,,,,,,,,,,,,,,,,,,,,,,,,,,,,,,,,,,128.05117609997978,128.0669836999732,128.56739989999915,128.55060939997202,128.56164919998264,128.56739989999915,128.56739989999915,128.56739989999915,129.9509746999829,Objects\280b.jpg,mid,s,1.3674590000300668,None,,,,,,,,00059,001,2026-01-19_16h49.56.647,MST_test,2024.2.0,60.01543596889412,2026-01-19 16h50.04.991584 +0530,
14,0,15,o,1.3878468999755569,None,15,0,14,129.96698329999344,,,,,,,,,,,,,,,,,,,,,,,,,,,,,,,,,,,,,,,,,,,,,,,,,,129.95106729998952,129.96698329999344,130.46737399999984,130.45069679996232,130.4540607999661,130.46737399999984,130.46737399999984,130.46737399999984,131.8677237999509,Objects\079a.jpg,post,o,1.3878468999755569,None,,,,,,,,00059,001,2026-01-19_16h49.56.647,MST_test,2024.2.0,60.01543596889412,2026-01-19 16h50.04.991584 +0530,
15,0,16,s,1.4231405000318773,None,16,0,15,131.88375509995967,,,,,,,,,,,,,,,,,,,,,,,,,,,,,,,,,,,,,,,,,,,,,,,,,,131.8678174999659,131.88375509995967,132.38410480000312,132.3674174999469,132.37760269996943,132.38410480000312,132.38410480000312,132.38410480000312,133.81765919999452,Objects\230b.jpg,mid,s,1.4231405000318773,None,,,,,,,,00059,001,2026-01-19_16h49.56.647,MST_test,2024.2.0,60.01543596889412,2026-01-19 16h50.04.991584 +0530,
16,0,17,o,1.016768699977547,None,17,0,16,133.83378919999814,,,,,,,,,,,,,,,,,,,,,,,,,,,,,,,,,,,,,,,,,,,,,,,,,,133.81790249998448,133.83378919999814,134.33408429997507,134.31732259999262,134.32020619994728,134.33408429997507,134.33408429997507,134.33408429997507,135.367566299974,Objects\335a.jpg,mid,o,1.016768699977547,None,,,,,,,,00059,001,2026-01-19_16h49.56.647,MST_test,2024.2.0,60.01543596889412,2026-01-19 16h50.04.991584 +0530,
17,0,18,s,0.9946901999646798,None,18,0,17,135.38366719998885,,,,,,,,,,,,,,,,,,,,,,,,,,,,,,,,,,,,,,,,,,,,,,,,,,135.36765359999845,135.38366719998885,135.88428060000297,135.86728720000247,135.87734779994935,135.88428060000297,135.88428060000297,135.88428060000297,136.88440169999376,Objects\127b.jpg,post,s,0.9946901999646798,None,,,,,,,,00059,001,2026-01-19_16h49.56.647,MST_test,2024.2.0,60.01543596889412,2026-01-19 16h50.04.991584 +0530,
18,0,19,s,4.814105400000699,None,19,0,18,136.90044800000032,,,,,,,,,,,,,,,,,,,,,,,,,,,,,,,,,,,,,,,,,,,,,,,,,,136.88449079997372,136.90044800000032,137.40059489995474,137.38400719995843,137.39348359999713,137.40059489995474,137.40059489995474,137.40059489995474,142.21795629995177,Objects\049b.jpg,post,s,4.814105400000699,None,,,,,,,,00059,001,2026-01-19_16h49.56.647,MST_test,2024.2.0,60.01543596889412,2026-01-19 16h50.04.991584 +0530,
19,0,20,n,1.7212740000104532,None,20,0,19,142.23352029995294,,,,,,,,,,,,,,,,,,,,,,,,,,,,,,,,,,,,,,,,,,,,,,,,,,142.21805369999493,142.23352029995294,142.73394519998692,142.7175124999485,142.72709409997333,142.73394519998692,142.73394519998692,142.73394519998692,144.46764669998083,Foils\009a.jpg,none,n,1.7212740000104532,None,,,,,,,,00059,001,2026-01-19_16h49.56.647,MST_test,2024.2.0,60.01543596889412,2026-01-19 16h50.04.991584 +0530,
20,0,21,n,1.5756092999945395,None,21,0,20,144.48377219995018,,,,,,,,,,,,,,,,,,,,,,,,,,,,,,,,,,,,,,,,,,,,,,,,,,144.46773619996384,144.48377219995018,144.98403979995055,144.96742059994722,144.97788359998958,144.98403979995055,144.98403979995055,144.98403979995055,146.56770699995104,Foils\002a.jpg,none,n,1.5756092999945395,None,,,,,,,,00059,001,2026-01-19_16h49.56.647,MST_test,2024.2.0,60.01543596889412,2026-01-19 16h50.04.991584 +0530,
21,0,22,s,3.0268497999641113,None,22,0,21,146.58366289996775,,,,,,,,,,,,,,,,,,,,,,,,,,,,,,,,,,,,,,,,,,,,,,,,,,146.5677958999877,146.58366289996775,147.08389809995424,147.06735589995515,147.0767622999847,147.08389809995424,147.08389809995424,147.08389809995424,150.11758249998093,Objects\285b.jpg,mid,s,3.0268497999641113,None,,,,,,,,00059,001,2026-01-19_16h49.56.647,MST_test,2024.2.0,60.01543596889412,2026-01-19 16h50.04.991584 +0530,
22,0,23,n,4.397880800010171,None,23,0,22,150.13377759995637,,,,,,,,,,,,,,,,,,,,,,,,,,,,,,,,,,,,,,,,,,,,,,,,,,150.1176738999784,150.13377759995637,150.63397709996207,150.61746659997152,150.62683079997078,150.63397709996207,150.63397709996207,150.63397709996207,155.03441309998743,Foils\034a.jpg,none,n,4.397880800010171,None,,,,,,,,00059,001,2026-01-19_16h49.56.647,MST_test,2024.2.0,60.01543596889412,2026-01-19 16h50.04.991584 +0530,
23,0,24,s,1.624015400011558,None,24,0,23,155.05054129997734,,,,,,,,,,,,,,,,,,,,,,,,,,,,,,,,,,,,,,,,,,,,,,,,,,155.03450469998643,155.05054129997734,155.55074559996137,155.53402439999627,155.54441599996062,155.55074559996137,155.55074559996137,155.55074559996137,157.1843476999784,Objects\100b.jpg,mid,s,1.624015400011558,None,,,,,,,,00059,001,2026-01-19_16h49.56.647,MST_test,2024.2.0,60.01543596889412,2026-01-19 16h50.04.991584 +0530,
24,0,25,n,2.1948977999854833,None,25,0,24,157.20034079998732,,,,,,,,,,,,,,,,,,,,,,,,,,,,,,,,,,,,,,,,,,,,,,,,,,157.18444679997629,157.20034079998732,157.7006344999536,157.68404179997742,157.6934229999897,157.7006344999536,157.7006344999536,157.7006344999536,159.90099329996156,Foils\018a.jpg,none,n,2.1948977999854833,None,,,,,,,,00059,001,2026-01-19_16h49.56.647,MST_test,2024.2.0,60.01543596889412,2026-01-19 16h50.04.991584 +0530,
25,0,26,s,2.1095711999805644,None,26,0,25,159.91710989997955,,,,,,,,,,,,,,,,,,,,,,,,,,,,,,,,,,,,,,,,,,,,,,,,,,159.90108639997197,159.91710989997955,160.41749199997867,160.40072330000112,160.41143759997794,160.41749199997867,160.41749199997867,160.41749199997867,162.53446039999835,Objects\350b.jpg,post,s,2.1095711999805644,None,,,,,,,,00059,001,2026-01-19_16h49.56.647,MST_test,2024.2.0,60.01543596889412,2026-01-19 16h50.04.991584 +0530,
26,0,27,o,1.268459300044924,None,27,0,26,162.5504606999457,,,,,,,,,,,,,,,,,,,,,,,,,,,,,,,,,,,,,,,,,,,,,,,,,,162.5345538999536,162.5504606999457,163.050844399957,163.03390179999406,163.03696699999273,163.050844399957,163.050844399957,163.050844399957,164.3344355999725,Objects\276a.jpg,pre,o,1.268459300044924,None,,,,,,,,00059,001,2026-01-19_16h49.56.647,MST_test,2024.2.0,60.01543596889412,2026-01-19 16h50.04.991584 +0530,
27,0,28,o,1.6118868000339717,None,28,0,27,164.35065529996064,,,,,,,,,,,,,,,,,,,,,,,,,,,,,,,,,,,,,,,,,,,,,,,,,,164.3345237999456,164.35065529996064,164.8506576999789,164.83396479999647,164.84452059998875,164.8506576999789,164.8506576999789,164.8506576999789,166.467697999964,Foils\057a.jpg,none,o,1.6118868000339717,None,,,,,,,,00059,001,2026-01-19_16h49.56.647,MST_test,2024.2.0,60.01543596889412,2026-01-19 16h50.04.991584 +0530,
28,0,29,n,1.159368299995549,None,29,0,28,166.48363129998324,,,,,,,,,,,,,,,,,,,,,,,,,,,,,,,,,,,,,,,,,,,,,,,,,,166.46778759994777,166.48363129998324,166.983804199961,166.96767529996578,166.9777631999459,166.983804199961,166.983804199961,166.983804199961,168.15080099995248,Foils\058a.jpg,none,n,1.159368299995549,None,,,,,,,,00059,001,2026-01-19_16h49.56.647,MST_test,2024.2.0,60.01543596889412,2026-01-19 16h50.04.991584 +0530,
29,0,30,s,1.8752000000094995,None,30,0,29,168.16702269995585,,,,,,,,,,,,,,,,,,,,,,,,,,,,,,,,,,,,,,,,,,,,,,,,,,168.15089219994843,168.16702269995585,168.66737499996088,168.65071339998394,168.660273699963,168.66737499996088,168.66737499996088,168.66737499996088,170.5509796999977,Objects\053b.jpg,post,s,1.8752000000094995,None,,,,,,,,00059,001,2026-01-19_16h49.56.647,MST_test,2024.2.0,60.01543596889412,2026-01-19 16h50.04.991584 +0530,
30,0,31,s,1.1876238000113517,None,31,0,30,170.5671175000025,,,,,,,,,,,,,,,,,,,,,,,,,,,,,,,,,,,,,,,,,,,,,,,,,,170.5510769999819,170.5671175000025,171.06732229999034,171.05072309996467,171.0599685999914,171.06732229999034,171.06732229999034,171.06732229999034,172.26772439997876,Objects\075b.jpg,mid,s,1.1876238000113517,None,,,,,,,,00059,001,2026-01-19_16h49.56.647,MST_test,2024.2.0,60.01543596889412,2026-01-19 16h50.04.991584 +0530,
31,0,32,s,1.270808200002648,None,32,0,31,172.28353259997675,,,,,,,,,,,,,,,,,,,,,,,,,,,,,,,,,,,,,,,,,,,,,,,,,,172.2678515999578,172.28353259997675,172.78394159994787,172.76750809996156,172.77719609998167,172.78394159994787,172.78394159994787,172.78394159994787,174.06785969994962,Foils\042a.jpg,none,s,1.270808200002648,None,,,,,,,,00059,001,2026-01-19_16h49.56.647,MST_test,2024.2.0,60.01543596889412,2026-01-19 16h50.04.991584 +0530,
32,0,33,s,0.7987043000175618,None,33,0,32,174.08369859994855,,,,,,,,,,,,,,,,,,,,,,,,,,,,,,,,,,,,,,,,,,,,,,,,,,174.0679546999745,174.08369859994855,174.58374289999483,174.56741049996344,174.56987609999487,174.58374289999483,174.58374289999483,174.58374289999483,175.38421239994932,Objects\317a.jpg,post,s,0.7987043000175618,None,,,,,,,,00059,001,2026-01-19_16h49.56.647,MST_test,2024.2.0,60.01543596889412,2026-01-19 16h50.04.991584 +0530,
33,0,34,s,8.627063499996439,None,34,0,33,175.4003900999669,,,,,,,,,,,,,,,,,,,,,,,,,,,,,,,,,,,,,,,,,,,,,,,,,,175.384301699989,175.4003900999669,175.90054889995372,175.88378109998303,175.89371229999233,175.90054889995372,175.90054889995372,175.90054889995372,184.53428829996847,Foils\093b.jpg,none,s,8.627063499996439,None,,,,,,,,00059,001,2026-01-19_16h49.56.647,MST_test,2024.2.0,60.01543596889412,2026-01-19 16h50.04.991584 +0530,
34,0,35,s,2.9084779000259005,None,35,0,34,184.55034609994618,,,,,,,,,,,,,,,,,,,,,,,,,,,,,,,,,,,,,,,,,,,,,,,,,,184.5343906999915,184.55034609994618,185.05094149999786,185.03420189995086,185.04460729996208,185.05094149999786,185.05094149999786,185.05094149999786,187.96760479995282,Foils\105a.jpg,none,s,2.9084779000259005,None,,,,,,,,00059,001,2026-01-19_16h49.56.647,MST_test,2024.2.0,60.01543596889412,2026-01-19 16h50.04.991584 +0530,
35,0,36,n,2.2111618000199087,None,36,0,35,187.98390910000307,,,,,,,,,,,,,,,,,,,,,,,,,,,,,,,,,,,,,,,,,,,,,,,,,,187.96769679995487,187.98390910000307,188.48400769999716,188.46744749997742,188.47866379999323,188.48400769999716,188.48400769999716,188.48400769999716,190.70120179996593,Foils\049a.jpg,none,n,2.2111618000199087,None,,,,,,,,00059,001,2026-01-19_16h49.56.647,MST_test,2024.2.0,60.01543596889412,2026-01-19 16h50.04.991584 +0530,
36,0,37,o,1.7099041999899782,None,37,0,36,190.71713919995818,,,,,,,,,,,,,,,,,,,,,,,,,,,,,,,,,,,,,,,,,,,,,,,,,,190.70129469997482,190.71713919995818,191.2175042000017,191.20063429995207,191.2055485000019,191.2175042000017,191.2175042000017,191.2175042000017,192.93401430000085,Objects\330a.jpg,mid,o,1.7099041999899782,None,,,,,,,,00059,001,2026-01-19_16h49.56.647,MST_test,2024.2.0,60.01543596889412,2026-01-19 16h50.04.991584 +0530,
37,0,38,n,1.7802762999781407,None,38,0,37,192.9503529999638,,,,,,,,,,,,,,,,,,,,,,,,,,,,,,,,,,,,,,,,,,,,,,,,,,192.9341046999907,192.9503529999638,193.4507428999641,193.43386429996463,193.44471569999587,193.4507428999641,193.4507428999641,193.4507428999641,195.2342759000021,Foils\017a.jpg,none,n,1.7802762999781407,None,,,,,,,,00059,001,2026-01-19_16h49.56.647,MST_test,2024.2.0,60.01543596889412,2026-01-19 16h50.04.991584 +0530,
38,0,39,n,1.6401857999735512,None,39,0,38,195.2503525999491,,,,,,,,,,,,,,,,,,,,,,,,,,,,,,,,,,,,,,,,,,,,,,,,,,195.23436779994518,195.2503525999491,195.75056449999101,195.7338119999622,195.74345389998052,195.75056449999101,195.75056449999101,195.75056449999101,197.40091629995732,Foils\050a.jpg,none,n,1.6401857999735512,None,,,,,,,,00059,001,2026-01-19_16h49.56.647,MST_test,2024.2.0,60.01543596889412,2026-01-19 16h50.04.991584 +0530,
39,0,40,s,1.7538980999961495,None,40,0,39,197.41694319999078,,,,,,,,,,,,,,,,,,,,,,,,,,,,,,,,,,,,,,,,,,,,,,,,,,197.40100699994946,197.41694319999078,197.91721829999005,197.9006637999555,197.91040419996716,197.91721829999005,197.91721829999005,197.91721829999005,199.68449209997198,Foils\101b.jpg,none,s,1.7538980999961495,None,,,,,,,,00059,001,2026-01-19_16h49.56.647,MST_test,2024.2.0,60.01543596889412,2026-01-19 16h50.04.991584 +0530,
40,0,41,o,1.0872882999829017,None,41,0,40,199.70073449995834,,,,,,,,,,,,,,,,,,,,,,,,,,,,,,,,,,,,,,,,,,,,,,,,,,199.68458819994703,199.70073449995834,200.20050869998522,200.18375239998568,200.18614379997598,200.20050869998522,200.20050869998522,200.20050869998522,201.30097739998018,Objects\058a.jpg,post,o,1.0872882999829017,None,,,,,,,,00059,001,2026-01-19_16h49.56.647,MST_test,2024.2.0,60.01543596889412,2026-01-19 16h50.04.991584 +0530,
41,0,42,s,1.8063025000155903,None,42,0,41,201.31694779999088,,,,,,,,,,,,,,,,,,,,,,,,,,,,,,,,,,,,,,,,,,,,,,,,,,201.30106769996928,201.31694779999088,201.8171678999788,201.80056849995162,201.81026969995582,201.8171678999788,201.8171678999788,201.8171678999788,203.63412979996065,Objects\052b.jpg,mid,s,1.8063025000155903,None,,,,,,,,00059,001,2026-01-19_16h49.56.647,MST_test,2024.2.0,60.01543596889412,2026-01-19 16h50.04.991584 +0530,
42,0,43,o,1.2162267999956384,None,43,0,42,203.65036619995954,,,,,,,,,,,,,,,,,,,,,,,,,,,,,,,,,,,,,,,,,,,,,,,,,,203.63421989994822,203.65036619995954,204.1505416999571,204.1337772999541,204.13636229996337,204.1505416999571,204.1505416999571,204.1505416999571,205.36762409994844,Objects\133a.jpg,mid,o,1.2162267999956384,None,,,,,,,,00059,001,2026-01-19_16h49.56.647,MST_test,2024.2.0,60.01543596889412,2026-01-19 16h50.04.991584 +0530,
43,0,44,n,1.7237088999827392,None,44,0,43,205.38357429997995,,,,,,,,,,,,,,,,,,,,,,,,,,,,,,,,,,,,,,,,,,,,,,,,,,205.36771289998433,205.38357429997995,205.883868099947,205.86723759997403,205.87716859998181,205.883868099947,205.883868099947,205.883868099947,207.6175866999547,Foils\073a.jpg,none,n,1.7237088999827392,None,,,,,,,,00059,001,2026-01-19_16h49.56.647,MST_test,2024.2.0,60.01543596889412,2026-01-19 16h50.04.991584 +0530,
44,0,45,s,1.7534578000195324,None,45,0,44,207.63354489998892,,,,,,,,,,,,,,,,,,,,,,,,,,,,,,,,,,,,,,,,,,,,,,,,,,207.6176761999959,207.63354489998892,208.133839099959,208.11746409995249,208.12701659998856,208.133839099959,208.133839099959,208.133839099959,209.90091989998473,Objects\166b.jpg,pre,s,1.7534578000195324,None,,,,,,,,00059,001,2026-01-19_16h49.56.647,MST_test,2024.2.0,60.01543596889412,2026-01-19 16h50.04.991584 +0530,
45,0,46,o,1.0696307999896817,None,46,0,45,209.9170313999639,,,,,,,,,,,,,,,,,,,,,,,,,,,,,,,,,,,,,,,,,,,,,,,,,,209.90101279999362,209.9170313999639,210.4174551999895,210.40060110000195,210.404352499987,210.4174551999895,210.4174551999895,210.4174551999895,211.50085969996871,Objects\322a.jpg,mid,o,1.0696307999896817,None,,,,,,,,00059,001,2026-01-19_16h49.56.647,MST_test,2024.2.0,60.01543596889412,2026-01-19 16h50.04.991584 +0530,
46,0,47,s,1.5729868999915197,None,47,0,46,211.51702559995465,,,,,,,,,,,,,,,,,,,,,,,,,,,,,,,,,,,,,,,,,,,,,,,,,,211.50095049996162,211.51702559995465,212.01762800000142,212.00083269999595,212.0113749000011,212.01762800000142,212.01762800000142,212.01762800000142,213.60092509997776,Objects\143b.jpg,post,s,1.5729868999915197,None,,,,,,,,00059,001,2026-01-19_16h49.56.647,MST_test,2024.2.0,60.01543596889412,2026-01-19 16h50.04.991584 +0530,
47,0,48,o,1.113748100004159,None,48,0,47,213.61697749997256,,,,,,,,,,,,,,,,,,,,,,,,,,,,,,,,,,,,,,,,,,,,,,,,,,213.60101569996914,213.61697749997256,214.11721759999637,214.1006413999712,214.10306059999857,214.11721759999637,214.11721759999637,214.11721759999637,215.23422739998205,Objects\111a.jpg,mid,o,1.113748100004159,None,,,,,,,,00059,001,2026-01-19_16h49.56.647,MST_test,2024.2.0,60.01543596889412,2026-01-19 16h50.04.991584 +0530,
48,0,49,s,2.024612600042019,None,49,0,48,215.25030509999488,,,,,,,,,,,,,,,,,,,,,,,,,,,,,,,,,,,,,,,,,,,,,,,,,,215.23431759997038,215.25030509999488,215.75062649999745,215.734087299963,215.74341239995556,215.75062649999745,215.75062649999745,215.75062649999745,217.78441929997643,Objects\050b.jpg,post,s,2.024612600042019,None,,,,,,,,00059,001,2026-01-19_16h49.56.647,MST_test,2024.2.0,60.01543596889412,2026-01-19 16h50.04.991584 +0530,
49,0,50,o,1.0671994999866001,None,50,0,49,217.80036199995084,,,,,,,,,,,,,,,,,,,,,,,,,,,,,,,,,,,,,,,,,,,,,,,,,,217.78451339999447,217.80036199995084,218.30057869997108,218.28382239997154,218.29402749997098,218.30057869997108,218.30057869997108,218.30057869997108,219.3842716999934,Objects\027b.jpg,mid,o,1.0671994999866001,None,,,,,,,,00059,001,2026-01-19_16h49.56.647,MST_test,2024.2.0,60.01543596889412,2026-01-19 16h50.04.991584 +0530,
50,0,51,n,1.2103343999478966,None,51,0,50,219.40033299999777,,,,,,,,,,,,,,,,,,,,,,,,,,,,,,,,,,,,,,,,,,,,,,,,,,219.38436599995475,219.40033299999777,219.90074939996703,219.8837966999854,219.8928420000011,219.90074939996703,219.90074939996703,219.90074939996703,221.11757979996037,Foils\f6.jpg,none,n,1.2103343999478966,None,,,,,,,,00059,001,2026-01-19_16h49.56.647,MST_test,2024.2.0,60.01543596889412,2026-01-19 16h50.04.991584 +0530,
51,0,52,o,1.0059322000015527,None,52,0,51,221.1336592999869,,,,,,,,,,,,,,,,,,,,,,,,,,,,,,,,,,,,,,,,,,,,,,,,,,221.11766779999016,221.1336592999869,221.6338137999992,221.61741739994613,221.62005249998765,221.6338137999992,221.6338137999992,221.6338137999992,222.65093259996502,Objects\179a.jpg,mid,o,1.0059322000015527,None,,,,,,,,00059,001,2026-01-19_16h49.56.647,MST_test,2024.2.0,60.01543596889412,2026-01-19 16h50.04.991584 +0530,
52,0,53,o,1.3834780999459326,None,53,0,52,222.66698270000052,,,,,,,,,,,,,,,,,,,,,,,,,,,,,,,,,,,,,,,,,,,,,,,,,,222.65102249995107,222.66698270000052,223.16724409995368,223.15059729997301,223.1532073999988,223.16724409995368,223.16724409995368,223.16724409995368,224.5513558999519,Objects\145a.jpg,pre,o,1.3834780999459326,None,,,,,,,,00059,001,2026-01-19_16h49.56.647,MST_test,2024.2.0,60.01543596889412,2026-01-19 16h50.04.991584 +0530,
53,0,54,o,0.8836526999948546,None,54,0,53,224.56702809996204,,,,,,,,,,,,,,,,,,,,,,,,,,,,,,,,,,,,,,,,,,,,,,,,,,224.5514520999859,224.56702809996204,225.06743739999365,225.05058349994943,225.05333729996346,225.06743739999365,225.06743739999365,225.06743739999365,225.96769689995563,Objects\247a.jpg,post,o,0.8836526999948546,None,,,,,,,,00059,001,2026-01-19_16h49.56.647,MST_test,2024.2.0,60.01543596889412,2026-01-19 16h50.04.991584 +0530,
54,0,55,o,1.1875647999695502,None,55,0,54,225.98362610000186,,,,,,,,,,,,,,,,,,,,,,,,,,,,,,,,,,,,,,,,,,,,,,,,,,225.9677882999531,225.98362610000186,226.48392179998336,226.46733669994865,226.47015259996988,226.48392179998336,226.48392179998336,226.48392179998336,227.68408549996093,Objects\155a.jpg,post,o,1.1875647999695502,None,,,,,,,,00059,001,2026-01-19_16h49.56.647,MST_test,2024.2.0,60.01543596889412,2026-01-19 16h50.04.991584 +0530,
55,0,56,s,1.5904959999606945,None,56,0,55,227.7003579000011,,,,,,,,,,,,,,,,,,,,,,,,,,,,,,,,,,,,,,,,,,,,,,,,,,227.6841751000029,227.7003579000011,228.20066819997737,228.18395099998452,228.19380919996183,228.20066819997737,228.20066819997737,228.20066819997737,229.8009506999515,Objects\345b.jpg,post,s,1.5904959999606945,None,,,,,,,,00059,001,2026-01-19_16h49.56.647,MST_test,2024.2.0,60.01543596889412,2026-01-19 16h50.04.991584 +0530,
56,0,57,s,1.3706558999838307,None,57,0,56,229.81701699999394,,,,,,,,,,,,,,,,,,,,,,,,,,,,,,,,,,,,,,,,,,,,,,,,,,229.80104159994517,229.81701699999394,230.31728829996428,230.30072529998142,230.31036119995406,230.31728829996428,230.31728829996428,230.31728829996428,231.70119529997464,Objects\164b.jpg,mid,s,1.3706558999838307,None,,,,,,,,00059,001,2026-01-19_16h49.56.647,MST_test,2024.2.0,60.01543596889412,2026-01-19 16h50.04.991584 +0530,
57,0,58,s,1.3337886999943294,None,58,0,57,231.7170216999948,,,,,,,,,,,,,,,,,,,,,,,,,,,,,,,,,,,,,,,,,,,,,,,,,,231.7012926999596,231.7170216999948,232.21742409997387,232.2009146999917,232.21024059999036,232.21742409997387,232.21742409997387,232.21742409997387,233.5676113999798,Objects\329b.jpg,post,s,1.3337886999943294,None,,,,,,,,00059,001,2026-01-19_16h49.56.647,MST_test,2024.2.0,60.01543596889412,2026-01-19 16h50.04.991584 +0530,
58,0,59,s,3.866554299951531,None,59,0,58,233.58345769997686,,,,,,,,,,,,,,,,,,,,,,,,,,,,,,,,,,,,,,,,,,,,,,,,,,233.56770019995747,233.58345769997686,234.08411719999276,234.06744729995262,234.0774398999638,234.08411719999276,234.08411719999276,234.08411719999276,237.95126589998836,Objects\121b.jpg,post,s,3.866554299951531,None,,,,,,,,00059,001,2026-01-19_16h49.56.647,MST_test,2024.2.0,60.01543596889412,2026-01-19 16h50.04.991584 +0530,
59,0,60,o,4.091826299962122,None,60,0,59,237.96695089997957,,,,,,,,,,,,,,,,,,,,,,,,,,,,,,,,,,,,,,,,,,,,,,,,,,237.9513640999794,237.96695089997957,238.46724819997326,238.45070079999277,238.46087739994982,238.46724819997326,238.46724819997326,238.46724819997326,242.5676742999931,Objects\017b.jpg,pre,o,4.091826299962122,None,,,,,,,,00059,001,2026-01-19_16h49.56.647,MST_test,2024.2.0,60.01543596889412,2026-01-19 16h50.04.991584 +0530,
60,0,61,o,0.8912848999607377,None,61,0,60,242.5836161999614,,,,,,,,,,,,,,,,,,,,,,,,,,,,,,,,,,,,,,,,,,,,,,,,,,242.56776489998447,242.5836161999614,243.08386669994798,243.0674571999698,243.0700881999801,243.08386669994798,243.08386669994798,243.08386669994798,243.98431689996505,Objects\201a.jpg,pre,o,0.8912848999607377,None,,,,,,,,00059,001,2026-01-19_16h49.56.647,MST_test,2024.2.0,60.01543596889412,2026-01-19 16h50.04.991584 +0530,
61,0,62,o,1.2184878999833018,None,62,0,61,244.0003417999833,,,,,,,,,,,,,,,,,,,,,,,,,,,,,,,,,,,,,,,,,,,,,,,,,,243.9844160999637,244.0003417999833,244.50067129998934,244.48383359995205,244.48726879997412,244.50067129998934,244.50067129998934,244.50067129998934,245.73426359996665,Objects\048a.jpg,pre,o,1.2184878999833018,None,,,,,,,,00059,001,2026-01-19_16h49.56.647,MST_test,2024.2.0,60.01543596889412,2026-01-19 16h50.04.991584 +0530,
62,0,63,o,1.3806460000341758,None,63,0,62,245.75029869994614,,,,,,,,,,,,,,,,,,,,,,,,,,,,,,,,,,,,,,,,,,,,,,,,,,245.7343547999626,245.75029869994614,246.2506966999499,246.23372369998833,246.23656789999222,246.2506966999499,246.2506966999499,246.2506966999499,247.63428609998664,Objects\340a.jpg,post,o,1.3806460000341758,None,,,,,,,,00059,001,2026-01-19_16h49.56.647,MST_test,2024.2.0,60.01543596889412,2026-01-19 16h50.04.991584 +0530,
63,0,64,s,1.1445854000048712,None,64,0,63,247.65039849997265,,,,,,,,,,,,,,,,,,,,,,,,,,,,,,,,,,,,,,,,,,,,,,,,,,247.63438379997388,247.65039849997265,248.1507833999931,248.1337935999618,248.14629099995364,248.1507833999931,248.1507833999931,248.1507833999931,249.30089189996943,Objects\333b.jpg,post,s,1.1445854000048712,None,,,,,,,,00059,001,2026-01-19_16h49.56.647,MST_test,2024.2.0,60.01543596889412,2026-01-19 16h50.04.991584 +0530,
64,0,65,n,0.7977961999713443,None,65,0,64,249.31703619996551,,,,,,,,,,,,,,,,,,,,,,,,,,,,,,,,,,,,,,,,,,,,,,,,,,249.30099540000083,249.31703619996551,249.81766349996906,249.80063649994554,249.8122681999812,249.81766349996906,249.81766349996906,249.81766349996906,250.61774149996927,Foils\074a.jpg,none,n,0.7977961999713443,None,,,,,,,,00059,001,2026-01-19_16h49.56.647,MST_test,2024.2.0,60.01543596889412,2026-01-19 16h50.04.991584 +0530,
65,0,66,o,1.3205593000166118,None,66,0,65,250.63373499998124,,,,,,,,,,,,,,,,,,,,,,,,,,,,,,,,,,,,,,,,,,,,,,,,,,250.6178394999588,250.63373499998124,251.13404509995598,251.11732299998403,251.1210292999749,251.13404509995598,251.13404509995598,251.13404509995598,252.4677548999898,Objects\295a.jpg,pre,o,1.3205593000166118,None,,,,,,,,00059,001,2026-01-19_16h49.56.647,MST_test,2024.2.0,60.01543596889412,2026-01-19 16h50.04.991584 +0530,
66,0,67,o,0.8876509999972768,None,67,0,66,252.48372530000051,,,,,,,,,,,,,,,,,,,,,,,,,,,,,,,,,,,,,,,,,,,,,,,,,,252.46784459997434,252.48372530000051,252.98416469997028,252.96759859996382,252.97054819995537,252.98416469997028,252.98416469997028,252.98416469997028,253.884428499965,Objects\148a.jpg,pre,o,0.8876509999972768,None,,,,,,,,00059,001,2026-01-19_16h49.56.647,MST_test,2024.2.0,60.01543596889412,2026-01-19 16h50.04.991584 +0530,
67,0,68,s,1.3976681999629363,None,68,0,67,253.9004516999703,,,,,,,,,,,,,,,,,,,,,,,,,,,,,,,,,,,,,,,,,,,,,,,,,,253.88453369995113,253.9004516999703,254.40079739998328,254.38410269998712,254.3935728999786,254.40079739998328,254.40079739998328,254.40079739998328,255.8010013999883,Objects\337b.jpg,mid,s,1.3976681999629363,None,,,,,,,,00059,001,2026-01-19_16h49.56.647,MST_test,2024.2.0,60.01543596889412,2026-01-19 16h50.04.991584 +0530,
68,0,69,s,1.2097447999985889,None,69,0,68,255.8171497999574,,,,,,,,,,,,,,,,,,,,,,,,,,,,,,,,,,,,,,,,,,,,,,,,,,255.8010921999812,255.8171497999574,256.31721019995166,256.3007385999663,256.3106619999744,256.31721019995166,256.31721019995166,256.31721019995166,257.5345456999494,Objects\219b.jpg,pre,s,1.2097447999985889,None,,,,,,,,00059,001,2026-01-19_16h49.56.647,MST_test,2024.2.0,60.01543596889412,2026-01-19 16h50.04.991584 +0530,
69,0,70,n,1.283838800038211,None,70,0,69,257.5504624999594,,,,,,,,,,,,,,,,,,,,,,,,,,,,,,,,,,,,,,,,,,,,,,,,,,257.53465389995836,257.5504624999594,258.0507330999826,258.0340045999619,258.043789999967,258.0507330999826,258.0507330999826,258.0507330999826,259.3510204999475,Objects\141b.jpg,pre,n,1.283838800038211,None,,,,,,,,00059,001,2026-01-19_16h49.56.647,MST_test,2024.2.0,60.01543596889412,2026-01-19 16h50.04.991584 +0530,
70,0,71,s,1.9636964999954216,None,71,0,70,259.3671449999674,,,,,,,,,,,,,,,,,,,,,,,,,,,,,,,,,,,,,,,,,,,,,,,,,,259.35110979998717,259.3671449999674,259.8673744999687,259.85062709997874,259.85304249997716,259.8673744999687,259.8673744999687,259.8673744999687,261.83444889995735,Objects\136a.jpg,post,s,1.9636964999954216,None,,,,,,,,00059,001,2026-01-19_16h49.56.647,MST_test,2024.2.0,60.01543596889412,2026-01-19 16h50.04.991584 +0530,
71,0,72,o,1.6158104999922216,None,72,0,71,261.8505094999564,,,,,,,,,,,,,,,,,,,,,,,,,,,,,,,,,,,,,,,,,,,,,,,,,,261.83454259997234,261.8505094999564,262.3508173999726,262.33394879999105,262.3367273999611,262.3508173999726,262.3508173999726,262.3508173999726,263.9678953999537,Objects\206a.jpg,mid,o,1.6158104999922216,None,,,,,,,,00059,001,2026-01-19_16h49.56.647,MST_test,2024.2.0,60.01543596889412,2026-01-19 16h50.04.991584 +0530,
72,0,73,s,1.2267266999697313,None,73,0,72,263.9838422999601,,,,,,,,,,,,,,,,,,,,,,,,,,,,,,,,,,,,,,,,,,,,,,,,,,263.96798889996717,263.9838422999601,264.4841451999964,264.4673192999908,264.4781091999612,264.4841451999964,264.4841451999964,264.4841451999964,265.7175781999831,Objects\273b.jpg,mid,s,1.2267266999697313,None,,,,,,,,00059,001,2026-01-19_16h49.56.647,MST_test,2024.2.0,60.01543596889412,2026-01-19 16h50.04.991584 +0530,
73,0,74,o,1.1247759999823757,None,74,0,73,265.73378989996854,,,,,,,,,,,,,,,,,,,,,,,,,,,,,,,,,,,,,,,,,,,,,,,,,,265.71766919997754,265.73378989996854,266.2337671999703,266.21736259997124,266.21987789997365,266.2337671999703,266.2337671999703,266.2337671999703,267.3677517999895,Objects\204a.jpg,mid,o,1.1247759999823757,None,,,,,,,,00059,001,2026-01-19_16h49.56.647,MST_test,2024.2.0,60.01543596889412,2026-01-19 16h50.04.991584 +0530,
74,0,75,n,1.5391559000127017,None,75,0,74,267.38368009997066,,,,,,,,,,,,,,,,,,,,,,,,,,,,,,,,,,,,,,,,,,,,,,,,,,267.3678425999824,267.38368009997066,267.88414819998434,267.8674063999788,267.87644510000246,267.88414819998434,267.88414819998434,267.88414819998434,269.43439279997256,Foils\f7.jpg,none,n,1.5391559000127017,None,,,,,,,,00059,001,2026-01-19_16h49.56.647,MST_test,2024.2.0,60.01543596889412,2026-01-19 16h50.04.991584 +0530,
75,0,76,o,0.9436985999927856,None,76,0,75,269.4504227999714,,,,,,,,,,,,,,,,,,,,,,,,,,,,,,,,,,,,,,,,,,,,,,,,,,269.4344839999685,269.4504227999714,269.9508152999915,269.9340159999556,269.93736889999127,269.9508152999915,269.9508152999915,269.9508152999915,270.90097389998846,Objects\228a.jpg,mid,o,0.9436985999927856,None,,,,,,,,00059,001,2026-01-19_16h49.56.647,MST_test,2024.2.0,60.01543596889412,2026-01-19 16h50.04.991584 +0530,
76,0,77,n,1.3499131999560632,None,77,0,76,270.9171563999844,,,,,,,,,,,,,,,,,,,,,,,,,,,,,,,,,,,,,,,,,,,,,,,,,,270.9010643999791,270.9171563999844,271.41735409997636,271.40079409995815,271.4107253999682,271.41735409997636,271.41735409997636,271.41735409997636,272.7679483999964,Objects\131b.jpg,post,n,1.3499131999560632,None,,,,,,,,00059,001,2026-01-19_16h49.56.647,MST_test,2024.2.0,60.01543596889412,2026-01-19 16h50.04.991584 +0530,
77,0,78,s,1.9865098999580368,None,78,0,77,272.7838123999536,,,,,,,,,,,,,,,,,,,,,,,,,,,,,,,,,,,,,,,,,,,,,,,,,,272.7680398999946,272.7838123999536,273.2839909999748,273.267424199963,273.2765439999639,273.2839909999748,273.2839909999748,273.2839909999748,275.2843562999624,Objects\114b.jpg,post,s,1.9865098999580368,None,,,,,,,,00059,001,2026-01-19_16h49.56.647,MST_test,2024.2.0,60.01543596889412,2026-01-19 16h50.04.991584 +0530,
78,0,79,o,0.7903093000059016,None,79,0,78,275.30045379995136,,,,,,,,,,,,,,,,,,,,,,,,,,,,,,,,,,,,,,,,,,,,,,,,,,275.2844462999492,275.30045379995136,275.8005993999541,275.78408009995474,275.7864236999885,275.8005993999541,275.8005993999541,275.8005993999541,276.60115199995926,Objects\029a.jpg,post,o,0.7903093000059016,None,,,,,,,,00059,001,2026-01-19_16h49.56.647,MST_test,2024.2.0,60.01543596889412,2026-01-19 16h50.04.991584 +0530,
79,0,80,s,1.4096690000151284,None,80,0,79,276.617099999974,,,,,,,,,,,,,,,,,,,,,,,,,,,,,,,,,,,,,,,,,,,,,,,,,,276.60124539997196,276.617099999974,277.11751959996764,277.1008154999581,277.1035109999939,277.11751959996764,277.11751959996764,277.11751959996764,278.5344165999559,Objects\367a.jpg,post,s,1.4096690000151284,None,,,,,,,,00059,001,2026-01-19_16h49.56.647,MST_test,2024.2.0,60.01543596889412,2026-01-19 16h50.04.991584 +0530,
80,0,81,o,0.9243501999881119,None,81,0,80,278.5505684999516,,,,,,,,,,,,,,,,,,,,,,,,,,,,,,,,,,,,,,,,,,,,,,,,,,278.5345050999895,278.5505684999516,279.05084889999125,279.03412969998317,279.03680709999753,279.05084889999125,279.05084889999125,279.05084889999125,279.9844147999538,Objects\209a.jpg,post,o,0.9243501999881119,None,,,,,,,,00059,001,2026-01-19_16h49.56.647,MST_test,2024.2.0,60.01543596889412,2026-01-19 16h50.04.991584 +0530,
81,0,82,s,1.066309200017713,None,82,0,81,280.0004055999452,,,,,,,,,,,,,,,,,,,,,,,,,,,,,,,,,,,,,,,,,,,,,,,,,,279.9845073999604,280.0004055999452,280.5009466999909,280.4841940999613,280.49387499998556,280.5009466999909,280.5009466999909,280.5009466999909,281.5676820999943,Objects\065b.jpg,pre,s,1.066309200017713,None,,,,,,,,00059,001,2026-01-19_16h49.56.647,MST_test,2024.2.0,60.01543596889412,2026-01-19 16h50.04.991584 +0530,
82,0,83,o,1.443236400024034,None,83,0,82,281.5836003999575,,,,,,,,,,,,,,,,,,,,,,,,,,,,,,,,,,,,,,,,,,,,,,,,,,281.56777379999403,281.5836003999575,282.0837256999803,282.06730569998035,282.0701688999543,282.0837256999803,282.0837256999803,282.0837256999803,283.5342812999734,Objects\036a.jpg,post,o,1.443236400024034,None,,,,,,,,00059,001,2026-01-19_16h49.56.647,MST_test,2024.2.0,60.01543596889412,2026-01-19 16h50.04.991584 +0530,
83,0,84,s,1.2360982000245713,None,84,0,83,283.5504374000011,,,,,,,,,,,,,,,,,,,,,,,,,,,,,,,,,,,,,,,,,,,,,,,,,,283.53437789995223,283.5504374000011,284.05055339995306,284.0341245000018,284.0434626999777,284.05055339995306,284.05055339995306,284.05055339995306,285.30114259995753,Objects\026b.jpg,post,s,1.2360982000245713,None,,,,,,,,00059,001,2026-01-19_16h49.56.647,MST_test,2024.2.0,60.01543596889412,2026-01-19 16h50.04.991584 +0530,
84,0,85,s,2.389669900003355,None,85,0,84,285.3171708000009,,,,,,,,,,,,,,,,,,,,,,,,,,,,,,,,,,,,,,,,,,,,,,,,,,285.3012314999942,285.3171708000009,285.81721149996156,285.80063389998395,285.8101017999579,285.81721149996156,285.81721149996156,285.81721149996156,288.21761949994834,Objects\168b.jpg,pre,s,2.389669900003355,None,,,,,,,,00059,001,2026-01-19_16h49.56.647,MST_test,2024.2.0,60.01543596889412,2026-01-19 16h50.04.991584 +0530,
85,0,86,n,0.9851306999917142,None,86,0,85,288.23378319997573,,,,,,,,,,,,,,,,,,,,,,,,,,,,,,,,,,,,,,,,,,,,,,,,,,288.2177104000002,288.23378319997573,288.7339464999968,288.71751569997286,288.7273538999725,288.7339464999968,288.7339464999968,288.7339464999968,289.7343718999764,Foils\065a.jpg,none,n,0.9851306999917142,None,,,,,,,,00059,001,2026-01-19_16h49.56.647,MST_test,2024.2.0,60.01543596889412,2026-01-19 16h50.04.991584 +0530,
86,0,87,o,1.1255101000424474,None,87,0,86,289.75056209997274,,,,,,,,,,,,,,,,,,,,,,,,,,,,,,,,,,,,,,,,,,,,,,,,,,289.7344603999518,289.75056209997274,290.2508964999579,290.23385299998336,290.24299820000306,290.2508964999579,290.2508964999579,290.2508964999579,291.38412129995413,Objects\343b.jpg,pre,o,1.1255101000424474,None,,,,,,,,00059,001,2026-01-19_16h49.56.647,MST_test,2024.2.0,60.01543596889412,2026-01-19 16h50.04.991584 +0530,
87,0,88,o,1.0577437999891117,None,88,0,87,291.4003202999593,,,,,,,,,,,,,,,,,,,,,,,,,,,,,,,,,,,,,,,,,,,,,,,,,,291.3842139999615,291.4003202999593,291.9008275999804,291.8840698999702,291.88712899998063,291.9008275999804,291.9008275999804,291.9008275999804,292.9678012999939,Objects\151a.jpg,mid,o,1.0577437999891117,None,,,,,,,,00059,001,2026-01-19_16h49.56.647,MST_test,2024.2.0,60.01543596889412,2026-01-19 16h50.04.991584 +0530,
88,0,89,o,0.8185551000060514,None,89,0,88,292.98386589996517,,,,,,,,,,,,,,,,,,,,,,,,,,,,,,,,,,,,,,,,,,,,,,,,,,292.96789059997536,292.98386589996517,293.48400249995757,293.4673711999785,293.47014879999915,293.48400249995757,293.48400249995757,293.48400249995757,294.31784049997805,Objects\291a.jpg,post,o,0.8185551000060514,None,,,,,,,,00059,001,2026-01-19_16h49.56.647,MST_test,2024.2.0,60.01543596889412,2026-01-19 16h50.04.991584 +0530,
89,0,90,o,0.9884676999645308,None,90,0,89,294.3337296999525,,,,,,,,,,,,,,,,,,,,,,,,,,,,,,,,,,,,,,,,,,,,,,,,,,294.3179278000025,294.3337296999525,294.834252599976,294.81736549997004,294.8205575000029,294.834252599976,294.834252599976,294.834252599976,295.83430019998923,Objects\372a.jpg,mid,o,0.9884676999645308,None,,,,,,,,00059,001,2026-01-19_16h49.56.647,MST_test,2024.2.0,60.01543596889412,2026-01-19 16h50.04.991584 +0530,
90,0,91,s,1.080203999998048,None,91,0,90,295.8504201999749,,,,,,,,,,,,,,,,,,,,,,,,,,,,,,,,,,,,,,,,,,,,,,,,,,295.83439099998213,295.8504201999749,296.35082729998976,296.3339604999637,296.337047399953,296.35082729998976,296.35082729998976,296.35082729998976,297.43436739995377,Objects\203a.jpg,post,s,1.080203999998048,None,,,,,,,,00059,001,2026-01-19_16h49.56.647,MST_test,2024.2.0,60.01543596889412,2026-01-19 16h50.04.991584 +0530,
91,0,92,o,1.424285199958831,None,92,0,91,297.45051100000273,,,,,,,,,,,,,,,,,,,,,,,,,,,,,,,,,,,,,,,,,,,,,,,,,,297.4344541999744,297.45051100000273,297.9509143999894,297.933967399993,297.94451649999246,297.9509143999894,297.9509143999894,297.9509143999894,299.3845454999828,Objects\063b.jpg,mid,o,1.424285199958831,None,,,,,,,,00059,001,2026-01-19_16h49.56.647,MST_test,2024.2.0,60.01543596889412,2026-01-19 16h50.04.991584 +0530,
92,0,93,s,1.1218019999796525,None,93,0,92,299.40054309996776,,,,,,,,,,,,,,,,,,,,,,,,,,,,,,,,,,,,,,,,,,,,,,,,,,299.38464409997687,299.40054309996776,299.9007168999524,299.88396449998254,299.8939700999763,299.9007168999524,299.9007168999524,299.9007168999524,301.0342063999851,Objects\275b.jpg,pre,s,1.1218019999796525,None,,,,,,,,00059,001,2026-01-19_16h49.56.647,MST_test,2024.2.0,60.01543596889412,2026-01-19 16h50.04.991584 +0530,
93,0,94,o,1.08037169999443,None,94,0,93,301.05036839999957,,,,,,,,,,,,,,,,,,,,,,,,,,,,,,,,,,,,,,,,,,,,,,,,,,301.03430229995865,301.05036839999957,301.5507460999652,301.534053499985,301.53673409996554,301.5507460999652,301.5507460999652,301.5507460999652,302.6343986999709,Objects\039a.jpg,pre,o,1.08037169999443,None,,,,,,,,00059,001,2026-01-19_16h49.56.647,MST_test,2024.2.0,60.01543596889412,2026-01-19 16h50.04.991584 +0530,
94,0,95,o,1.0964528999757022,None,95,0,94,302.65046419994906,,,,,,,,,,,,,,,,,,,,,,,,,,,,,,,,,,,,,,,,,,,,,,,,,,302.63448659999995,302.65046419994906,303.1508371999953,303.13400510000065,303.1368206999614,303.1508371999953,303.1508371999953,303.1508371999953,304.2510672999779,Objects\066a.jpg,pre,o,1.0964528999757022,None,,,,,,,,00059,001,2026-01-19_16h49.56.647,MST_test,2024.2.0,60.01543596889412,2026-01-19 16h50.04.991584 +0530,
95,0,96,o,0.8884775000042282,None,96,0,95,304.26715909998165,,,,,,,,,,,,,,,,,,,,,,,,,,,,,,,,,,,,,,,,,,,,,,,,,,304.25115609995555,304.26715909998165,304.7672719999682,304.7506729000015,304.75316589995055,304.7672719999682,304.7672719999682,304.7672719999682,305.6680085999542,Objects\093a.jpg,pre,o,0.8884775000042282,None,,,,,,,,00059,001,2026-01-19_16h49.56.647,MST_test,2024.2.0,60.01543596889412,2026-01-19 16h50.04.991584 +0530,
96,0,97,s,1.4791706000105478,None,97,0,96,305.68365719995927,,,,,,,,,,,,,,,,,,,,,,,,,,,,,,,,,,,,,,,,,,,,,,,,,,305.668106899946,305.68365719995927,306.18380679999245,306.16737250000006,306.17004879994784,306.18380679999245,306.18380679999245,306.18380679999245,307.6676414999529,Objects\062a.jpg,pre,s,1.4791706000105478,None,,,,,,,,00059,001,2026-01-19_16h49.56.647,MST_test,2024.2.0,60.01543596889412,2026-01-19 16h50.04.991584 +0530,
97,0,98,n,1.2156518999836408,None,98,0,97,307.6838053999818,,,,,,,,,,,,,,,,,,,,,,,,,,,,,,,,,,,,,,,,,,,,,,,,,,307.66773109999485,307.6838053999818,308.1840782999643,308.1674473999883,308.1786356999655,308.1840782999643,308.1840782999643,308.1840782999643,309.40110969997477,Foils\f5.jpg,none,n,1.2156518999836408,None,,,,,,,,00059,001,2026-01-19_16h49.56.647,MST_test,2024.2.0,60.01543596889412,2026-01-19 16h50.04.991584 +0530,
98,0,99,o,1.0258287999895401,None,99,0,98,309.4171858999762,,,,,,,,,,,,,,,,,,,,,,,,,,,,,,,,,,,,,,,,,,,,,,,,,,309.40119869995397,309.4171858999762,309.91740069998195,309.90064479998546,309.9040396999917,309.91740069998195,309.91740069998195,309.91740069998195,310.95105169998715,Objects\296a.jpg,pre,o,1.0258287999895401,None,,,,,,,,00059,001,2026-01-19_16h49.56.647,MST_test,2024.2.0,60.01543596889412,2026-01-19 16h50.04.991584 +0530,
99,0,100,s,1.8518963000387885,None,100,0,99,310.96702229999937,,,,,,,,,,,,,,,,,,,,,,,,,,,,,,,,,,,,,,,,,,,,,,,,,,310.95114619995,310.96702229999937,311.46742699999595,311.4508158999961,311.4630178999505,311.46742699999595,311.46742699999595,311.46742699999595,313.3341040999512,Objects\245b.jpg,mid,s,1.8518963000387885,None,,,,,,,,00059,001,2026-01-19_16h49.56.647,MST_test,2024.2.0,60.01543596889412,2026-01-19 16h50.04.991584 +0530,
100,0,101,o,1.3324671000009403,None,101,0,100,313.35039219999453,,,,,,,,,,,,,,,,,,,,,,,,,,,,,,,,,,,,,,,,,,,,,,,,,,313.3342045999598,313.35039219999453,313.8506129999878,313.83389909996185,313.8433455999475,313.8506129999878,313.8506129999878,313.8506129999878,315.18406709999545,Objects\176b.jpg,post,o,1.3324671000009403,None,,,,,,,,00059,001,2026-01-19_16h49.56.647,MST_test,2024.2.0,60.01543596889412,2026-01-19 16h50.04.991584 +0530,
101,0,102,s,1.1634118999936618,None,102,0,101,315.20032259996515,,,,,,,,,,,,,,,,,,,,,,,,,,,,,,,,,,,,,,,,,,,,,,,,,,315.1841596000013,315.20032259996515,315.7005844999803,315.6839170999592,315.6863271999755,315.7005844999803,315.7005844999803,315.7005844999803,316.8677594999899,Objects\154a.jpg,post,s,1.1634118999936618,None,,,,,,,,00059,001,2026-01-19_16h49.56.647,MST_test,2024.2.0,60.01543596889412,2026-01-19 16h50.04.991584 +0530,
102,0,103,o,0.9189127000281587,None,103,0,102,316.88360999996075,,,,,,,,,,,,,,,,,,,,,,,,,,,,,,,,,,,,,,,,,,,,,,,,,,316.86786129995016,316.88360999996075,317.38383039995097,317.3675519999815,317.37015829997836,317.38383039995097,317.38383039995097,317.38383039995097,318.3176428999868,Objects\047a.jpg,mid,o,0.9189127000281587,None,,,,,,,,00059,001,2026-01-19_16h49.56.647,MST_test,2024.2.0,60.01543596889412,2026-01-19 16h50.04.991584 +0530,
103,0,104,s,1.2208310999558307,None,104,0,103,318.33356409997214,,,,,,,,,,,,,,,,,,,,,,,,,,,,,,,,,,,,,,,,,,,,,,,,,,318.31774759996915,318.33356409997214,318.8340635999921,318.81735279998975,318.8202035999857,318.8340635999921,318.8340635999921,318.8340635999921,320.0675329999649,Objects\352a.jpg,mid,s,1.2208310999558307,None,,,,,,,,00059,001,2026-01-19_16h49.56.647,MST_test,2024.2.0,60.01543596889412,2026-01-19 16h50.04.991584 +0530,
104,0,105,s,1.3030401000287384,None,105,0,104,320.0836093999678,,,,,,,,,,,,,,,,,,,,,,,,,,,,,,,,,,,,,,,,,,,,,,,,,,320.06762729998445,320.0836093999678,320.58394229999976,320.5672415999579,320.57814139995025,320.58394229999976,320.58394229999976,320.58394229999976,321.9009317999589,Objects\217b.jpg,pre,s,1.3030401000287384,None,,,,,,,,00059,001,2026-01-19_16h49.56.647,MST_test,2024.2.0,60.01543596889412,2026-01-19 16h50.04.991584 +0530,
105,0,106,s,1.0705707999877632,None,106,0,105,321.9175130999647,,,,,,,,,,,,,,,,,,,,,,,,,,,,,,,,,,,,,,,,,,,,,,,,,,321.90103389997967,321.9175130999647,322.4174559999956,322.40065589995356,322.41082930000266,322.4174559999956,322.4174559999956,322.4174559999956,323.50110589998076,Objects\336b.jpg,pre,s,1.0705707999877632,None,,,,,,,,00059,001,2026-01-19_16h49.56.647,MST_test,2024.2.0,60.01543596889412,2026-01-19 16h50.04.991584 +0530,
106,0,107,s,0.9820881999912672,None,107,0,106,323.5170719999587,,,,,,,,,,,,,,,,,,,,,,,,,,,,,,,,,,,,,,,,,,,,,,,,,,323.50120449997485,323.5170719999587,324.0173524999991,324.0009507999639,324.0112702999613,324.0173524999991,324.0173524999991,324.0173524999991,325.00118849996943,Objects\018b.jpg,pre,s,0.9820881999912672,None,,,,,,,,00059,001,2026-01-19_16h49.56.647,MST_test,2024.2.0,60.01543596889412,2026-01-19 16h50.04.991584 +0530,
107,0,108,s,2.7466421000426635,None,108,0,107,325.01705149997724,,,,,,,,,,,,,,,,,,,,,,,,,,,,,,,,,,,,,,,,,,,,,,,,,,325.0012780999532,325.01705149997724,325.51725589996204,325.50056259997655,325.5105829999666,325.51725589996204,325.51725589996204,325.51725589996204,328.2676919999649,Foils\010a.jpg,none,s,2.7466421000426635,None,,,,,,,,00059,001,2026-01-19_16h49.56.647,MST_test,2024.2.0,60.01543596889412,2026-01-19 16h50.04.991584 +0530,
108,0,109,o,0.9193610000074841,None,109,0,108,328.2836226999643,,,,,,,,,,,,,,,,,,,,,,,,,,,,,,,,,,,,,,,,,,,,,,,,,,328.26778909994755,328.2836226999643,328.78378099994734,328.76733189995866,328.77722099999664,328.78378099994734,328.78378099994734,328.78378099994734,329.71760709997034,Objects\099b.jpg,pre,o,0.9193610000074841,None,,,,,,,,00059,001,2026-01-19_16h49.56.647,MST_test,2024.2.0,60.01543596889412,2026-01-19 16h50.04.991584 +0530,
109,0,110,n,0.9889616000000387,None,110,0,109,329.73365479998756,,,,,,,,,,,,,,,,,,,,,,,,,,,,,,,,,,,,,,,,,,,,,,,,,,329.7176976999617,329.73365479998756,330.23390239995206,330.217362699972,330.22673699998995,330.23390239995206,330.23390239995206,330.23390239995206,331.2342429999844,Foils\020b.jpg,none,n,0.9889616000000387,None,,,,,,,,00059,001,2026-01-19_16h49.56.647,MST_test,2024.2.0,60.01543596889412,2026-01-19 16h50.04.991584 +0530,
110,0,111,s,1.296563400013838,None,111,0,110,331.2503939999733,,,,,,,,,,,,,,,,,,,,,,,,,,,,,,,,,,,,,,,,,,,,,,,,,,331.234335599991,331.2503939999733,331.75060739996843,331.73380229994655,331.7429048999911,331.75060739996843,331.75060739996843,331.75060739996843,333.0508968999493,Objects\198b.jpg,pre,s,1.296563400013838,None,,,,,,,,00059,001,2026-01-19_16h49.56.647,MST_test,2024.2.0,60.01543596889412,2026-01-19 16h50.04.991584 +0530,
111,0,112,o,0.8878125000046566,None,112,0,111,333.0670460999827,,,,,,,,,,,,,,,,,,,,,,,,,,,,,,,,,,,,,,,,,,,,,,,,,,333.0509873999981,333.0670460999827,333.56722699996317,333.5506148999557,333.5532152999658,333.56722699996317,333.56722699996317,333.56722699996317,334.46776229998795,Objects\241a.jpg,pre,o,0.8878125000046566,None,,,,,,,,00059,001,2026-01-19_16h49.56.647,MST_test,2024.2.0,60.01543596889412,2026-01-19 16h50.04.991584 +0530,
112,0,113,o,1.031325599993579,None,113,0,112,334.48367059999146,,,,,,,,,,,,,,,,,,,,,,,,,,,,,,,,,,,,,,,,,,,,,,,,,,334.4678619999904,334.48367059999146,334.9838776999968,334.96731629996793,334.9770014999667,334.9838776999968,334.9838776999968,334.9838776999968,336.0177936999826,Objects\095b.jpg,mid,o,1.031325599993579,None,,,,,,,,00059,001,2026-01-19_16h49.56.647,MST_test,2024.2.0,60.01543596889412,2026-01-19 16h50.04.991584 +0530,
113,0,114,s,0.9704021999496035,None,114,0,113,336.0336216999567,,,,,,,,,,,,,,,,,,,,,,,,,,,,,,,,,,,,,,,,,,,,,,,,,,336.0178856999846,336.0336216999567,336.53384769998956,336.5175884999917,336.5278054999653,336.53384769998956,336.53384769998956,336.53384769998956,337.5176101999823,Objects\319b.jpg,pre,s,0.9704021999496035,None,,,,,,,,00059,001,2026-01-19_16h49.56.647,MST_test,2024.2.0,60.01543596889412,2026-01-19 16h50.04.991584 +0530,
114,0,115,o,1.4928442999953404,None,115,0,114,337.53357579995645,,,,,,,,,,,,,,,,,,,,,,,,,,,,,,,,,,,,,,,,,,,,,,,,,,337.51769799995236,337.53357579995645,338.03380949998973,338.01757819997147,338.02021799999056,338.03380949998973,338.03380949998973,338.03380949998973,339.53417969995644,Objects\089a.jpg,mid,o,1.4928442999953404,None,,,,,,,,00059,001,2026-01-19_16h49.56.647,MST_test,2024.2.0,60.01543596889412,2026-01-19 16h50.04.991584 +0530,
115,0,116,o,1.028227099974174,None,116,0,115,339.55039019999094,,,,,,,,,,,,,,,,,,,,,,,,,,,,,,,,,,,,,,,,,,,,,,,,,,339.53427049994934,339.55039019999094,340.05078599997796,340.03391399997054,340.03675219998695,340.05078599997796,340.05078599997796,340.05078599997796,341.0843195999623,Objects\353a.jpg,pre,o,1.028227099974174,None,,,,,,,,00059,001,2026-01-19_16h49.56.647,MST_test,2024.2.0,60.01543596889412,2026-01-19 16h50.04.991584 +0530,
116,0,117,o,1.2698103000293486,None,117,0,116,341.1004106999608,,,,,,,,,,,,,,,,,,,,,,,,,,,,,,,,,,,,,,,,,,,,,,,,,,341.08441349997884,341.1004106999608,341.60096630000044,341.58385899994755,341.5876431999495,341.60096630000044,341.60096630000044,341.60096630000044,342.8841668999521,Objects\238a.jpg,mid,o,1.2698103000293486,None,,,,,,,,00059,001,2026-01-19_16h49.56.647,MST_test,2024.2.0,60.01543596889412,2026-01-19 16h50.04.991584 +0530,
117,0,118,o,0.8380609999876469,None,118,0,117,342.90038509998703,,,,,,,,,,,,,,,,,,,,,,,,,,,,,,,,,,,,,,,,,,,,,,,,,,342.8842563999933,342.90038509998703,343.4007856999524,343.38377429998945,343.38676719996147,343.4007856999524,343.4007856999524,343.4007856999524,344.25102209998295,Objects\161a.jpg,mid,o,0.8380609999876469,None,,,,,,,,00059,001,2026-01-19_16h49.56.647,MST_test,2024.2.0,60.01543596889412,2026-01-19 16h50.04.991584 +0530,
118,0,119,n,1.1995131999719888,None,119,0,118,344.2673860999639,,,,,,,,,,,,,,,,,,,,,,,,,,,,,,,,,,,,,,,,,,,,,,,,,,344.2511096999515,344.2673860999639,344.76727709994884,344.750645299966,344.7608227999881,344.76727709994884,344.76727709994884,344.76727709994884,345.96757629996864,Foils\090a.jpg,none,n,1.1995131999719888,None,,,,,,,,00059,001,2026-01-19_16h49.56.647,MST_test,2024.2.0,60.01543596889412,2026-01-19 16h50.04.991584 +0530,
119,0,120,o,1.6832350000040606,None,120,0,119,345.9836469999864,,,,,,,,,,,,,,,,,,,,,,,,,,,,,,,,,,,,,,,,,,,,,,,,,,345.9676669999608,345.9836469999864,346.4839591999771,346.4674011999741,346.47766189998947,346.4839591999771,346.4839591999771,346.4839591999771,348.1685034999973,Objects\138b.jpg,pre,o,1.6832350000040606,None,,,,,,,,00059,001,2026-01-19_16h49.56.647,MST_test,2024.2.0,60.01543596889412,2026-01-19 16h50.04.991584 +0530,
120,0,121,n,0.8270871000131592,None,121,0,120,348.1836628000019,,,,,,,,,,,,,,,,,,,,,,,,,,,,,,,,,,,,,,,,,,,,,,,,,,348.16860249999445,348.1836628000019,348.6837657999713,348.6673063999624,348.6765234999475,348.6837657999713,348.6837657999713,348.6837657999713,349.517545199953,Foils\121a.jpg,none,n,0.8270871000131592,None,,,,,,,,00059,001,2026-01-19_16h49.56.647,MST_test,2024.2.0,60.01543596889412,2026-01-19 16h50.04.991584 +0530,
121,0,122,o,0.917224700038787,None,122,0,121,349.5336891999468,,,,,,,,,,,,,,,,,,,,,,,,,,,,,,,,,,,,,,,,,,,,,,,,,,349.5176334999851,349.5336891999468,350.0340410999488,350.01735749997897,350.0195940999547,350.0340410999488,350.0340410999488,350.0340410999488,350.967708399985,Objects\270a.jpg,pre,o,0.917224700038787,None,,,,,,,,00059,001,2026-01-19_16h49.56.647,MST_test,2024.2.0,60.01543596889412,2026-01-19 16h50.04.991584 +0530,
122,0,123,n,1.219890900014434,None,123,0,122,350.9836176999961,,,,,,,,,,,,,,,,,,,,,,,,,,,,,,,,,,,,,,,,,,,,,,,,,,350.96780399995623,350.9836176999961,351.4840295999893,351.4672744999989,351.47742779995315,351.4840295999893,351.4840295999893,351.4840295999893,352.71760419994825,Foils\097a.jpg,none,n,1.219890900014434,None,,,,,,,,00059,001,2026-01-19_16h49.56.647,MST_test,2024.2.0,60.01543596889412,2026-01-19 16h50.04.991584 +0530,
123,0,124,s,1.2527945999754593,None,124,0,123,352.7336637999979,,,,,,,,,,,,,,,,,,,,,,,,,,,,,,,,,,,,,,,,,,,,,,,,,,352.71769169997424,352.7336637999979,353.2340670999838,353.2173412999837,353.2273603999638,353.2340670999838,353.2340670999838,353.2340670999838,354.50110100000165,Foils\086a.jpg,none,s,1.2527945999754593,None,,,,,,,,00059,001,2026-01-19_16h49.56.647,MST_test,2024.2.0,60.01543596889412,2026-01-19 16h50.04.991584 +0530,
124,0,125,o,0.9496579000260681,None,125,0,124,354.5170253999531,,,,,,,,,,,,,,,,,,,,,,,,,,,,,,,,,,,,,,,,,,,,,,,,,,354.50119359995006,354.5170253999531,355.01753759995336,355.00077499996405,355.00367299997015,355.01753759995336,355.01753759995336,355.01753759995336,355.9678819999681,Objects\222a.jpg,mid,o,0.9496579000260681,None,,,,,,,,00059,001,2026-01-19_16h49.56.647,MST_test,2024.2.0,60.01543596889412,2026-01-19 16h50.04.991584 +0530,
125,0,126,o,1.195814699982293,None,126,0,125,355.9836055999622,,,,,,,,,,,,,,,,,,,,,,,,,,,,,,,,,,,,,,,,,,,,,,,,,,355.9679761999869,355.9836055999622,356.4838877999573,356.46730049996404,356.4702758999774,356.4838877999573,356.4838877999573,356.4838877999573,357.68412449996686,Objects\177a.jpg,post,o,1.195814699982293,None,,,,,,,,00059,001,2026-01-19_16h49.56.647,MST_test,2024.2.0,60.01543596889412,2026-01-19 16h50.04.991584 +0530,
126,0,127,o,0.9580513000255451,None,127,0,126,357.70041469996795,,,,,,,,,,,,,,,,,,,,,,,,,,,,,,,,,,,,,,,,,,,,,,,,,,357.68421199999284,357.70041469996795,358.2006295999745,358.18405260000145,358.18659949995345,358.2006295999745,358.2006295999745,358.2006295999745,359.16763329994865,Objects\185a.jpg,pre,o,0.9580513000255451,None,,,,,,,,00059,001,2026-01-19_16h49.56.647,MST_test,2024.2.0,60.01543596889412,2026-01-19 16h50.04.991584 +0530,
127,0,128,o,0.8193420000025071,None,128,0,127,359.18359149998287,,,,,,,,,,,,,,,,,,,,,,,,,,,,,,,,,,,,,,,,,,,,,,,,,,359.1677565999562,359.18359149998287,359.68388229998527,359.667305299954,359.6699339999468,359.68388229998527,359.68388229998527,359.68388229998527,360.51773319998756,Objects\008a.jpg,post,o,0.8193420000025071,None,,,,,,,,00059,001,2026-01-19_16h49.56.647,MST_test,2024.2.0,60.01543596889412,2026-01-19 16h50.04.991584 +0530,
128,0,129,o,1.9569334000116214,None,129,0,128,360.53358180000214,,,,,,,,,,,,,,,,,,,,,,,,,,,,,,,,,,,,,,,,,,,,,,,,,,360.51782459998503,360.53358180000214,361.0337792999926,361.0173873999738,361.01977379998425,361.0337792999926,361.0337792999926,361.0337792999926,363.00135529995896,Objects\187a.jpg,post,o,1.9569334000116214,None,,,,,,,,00059,001,2026-01-19_16h49.56.647,MST_test,2024.2.0,60.01543596889412,2026-01-19 16h50.04.991584 +0530,
129,0,130,s,0.9454680999624543,None,130,0,129,363.0171806999715,,,,,,,,,,,,,,,,,,,,,,,,,,,,,,,,,,,,,,,,,,,,,,,,,,363.0014544999576,363.0171806999715,363.5172981999931,363.500649900001,363.5101236999617,363.5172981999931,363.5172981999931,363.5172981999931,364.4675892999512,Objects\024b.jpg,pre,s,0.9454680999624543,None,,,,,,,,00059,001,2026-01-19_16h49.56.647,MST_test,2024.2.0,60.01543596889412,2026-01-19 16h50.04.991584 +0530,
130,0,131,s,1.2874352000071667,None,131,0,130,364.4835679999669,,,,,,,,,,,,,,,,,,,,,,,,,,,,,,,,,,,,,,,,,,,,,,,,,,364.4676777999848,364.4835679999669,364.9838549999986,364.96731829998316,364.9779321999522,364.9838549999986,364.9838549999986,364.9838549999986,366.28436489996966,Objects\311b.jpg,post,s,1.2874352000071667,None,,,,,,,,00059,001,2026-01-19_16h49.56.647,MST_test,2024.2.0,60.01543596889412,2026-01-19 16h50.04.991584 +0530,
131,0,132,o,2.414066899975296,None,132,0,131,366.30033529998036,,,,,,,,,,,,,,,,,,,,,,,,,,,,,,,,,,,,,,,,,,,,,,,,,,366.2844553999603,366.30033529998036,366.800601099967,366.78391939995345,366.79343999997946,366.800601099967,366.800601099967,366.800601099967,369.2176154999761,Objects\150b.jpg,mid,o,2.414066899975296,None,,,,,,,,00059,001,2026-01-19_16h49.56.647,MST_test,2024.2.0,60.01543596889412,2026-01-19 16h50.04.991584 +0530,
132,0,133,s,2.6083873999887146,None,133,0,132,369.2338766999892,,,,,,,,,,,,,,,,,,,,,,,,,,,,,,,,,,,,,,,,,,,,,,,,,,369.21774449996883,369.2338766999892,369.73419379995903,369.7175833999645,369.72973510000156,369.73419379995903,369.73419379995903,369.73419379995903,372.35103399999207,Objects\263b.jpg,post,s,2.6083873999887146,None,,,,,,,,00059,001,2026-01-19_16h49.56.647,MST_test,2024.2.0,60.01543596889412,2026-01-19 16h50.04.991584 +0530,
133,0,134,s,2.6123063000268303,None,134,0,133,372.36718839994865,,,,,,,,,,,,,,,,,,,,,,,,,,,,,,,,,,,,,,,,,,,,,,,,,,372.3511246999842,372.36718839994865,372.867472599959,372.85070359997917,372.8616498999763,372.867472599959,372.867472599959,372.867472599959,375.4842604000005,Objects\221b.jpg,pre,s,2.6123063000268303,None,,,,,,,,00059,001,2026-01-19_16h49.56.647,MST_test,2024.2.0,60.01543596889412,2026-01-19 16h50.04.991584 +0530,
134,0,135,s,1.574111099995207,None,135,0,134,375.500393699971,,,,,,,,,,,,,,,,,,,,,,,,,,,,,,,,,,,,,,,,,,,,,,,,,,375.48435339995194,375.500393699971,376.00093099998776,375.98397699999623,375.99476969998796,376.00093099998776,376.00093099998776,376.00093099998776,377.5843900999753,Objects\022b.jpg,post,s,1.574111099995207,None,,,,,,,,00059,001,2026-01-19_16h49.56.647,MST_test,2024.2.0,60.01543596889412,2026-01-19 16h50.04.991584 +0530,
135,0,136,s,1.2258497000439093,None,136,0,135,377.60054739995394,,,,,,,,,,,,,,,,,,,,,,,,,,,,,,,,,,,,,,,,,,,,,,,,,,377.58448019996285,377.60054739995394,378.10101929999655,378.0839452999644,378.0931638999609,378.10101929999655,378.10101929999655,378.10101929999655,379.33440959994914,Objects\202b.jpg,pre,s,1.2258497000439093,None,,,,,,,,00059,001,2026-01-19_16h49.56.647,MST_test,2024.2.0,60.01543596889412,2026-01-19 16h50.04.991584 +0530,
136,0,137,n,1.044093900010921,None,137,0,136,379.3505177999614,,,,,,,,,,,,,,,,,,,,,,,,,,,,,,,,,,,,,,,,,,,,,,,,,,379.334510799963,379.3505177999614,379.850922899961,379.83407939999597,379.84409109997796,379.850922899961,379.850922899961,379.850922899961,380.90108519996284,Foils\033a.jpg,none,n,1.044093900010921,None,,,,,,,,00059,001,2026-01-19_16h49.56.647,MST_test,2024.2.0,60.01543596889412,2026-01-19 16h50.04.991584 +0530,
137,0,138,n,1.0136511000455357,None,138,0,137,380.9171311999671,,,,,,,,,,,,,,,,,,,,,,,,,,,,,,,,,,,,,,,,,,,,,,,,,,380.9011735999957,380.9171311999671,381.4172957999981,381.4009440999944,381.4102666999679,381.4172957999981,381.4172957999981,381.4172957999981,382.4343986999593,Objects\122b.jpg,mid,n,1.0136511000455357,None,,,,,,,,00059,001,2026-01-19_16h49.56.647,MST_test,2024.2.0,60.01543596889412,2026-01-19 16h50.04.991584 +0530,
138,0,139,n,1.48870430001989,None,139,0,138,382.4505188999465,,,,,,,,,,,,,,,,,,,,,,,,,,,,,,,,,,,,,,,,,,,,,,,,,,382.4344911999651,382.4505188999465,382.9508729999652,382.9339290999924,382.9436847999459,382.9508729999652,382.9508729999652,382.9508729999652,384.451118899975,Foils\106a.jpg,none,n,1.48870430001989,None,,,,,,,,00059,001,2026-01-19_16h49.56.647,MST_test,2024.2.0,60.01543596889412,2026-01-19 16h50.04.991584 +0530,
139,0,140,n,1.1036474999855272,None,140,0,139,384.4671843999531,,,,,,,,,,,,,,,,,,,,,,,,,,,,,,,,,,,,,,,,,,,,,,,,,,384.4512077999534,384.4671843999531,384.9672438999987,384.95078879996436,384.96030449995305,384.9672438999987,384.9672438999987,384.9672438999987,386.08429059997434,Foils\098a.jpg,none,n,1.1036474999855272,None,,,,,,,,00059,001,2026-01-19_16h49.56.647,MST_test,2024.2.0,60.01543596889412,2026-01-19 16h50.04.991584 +0530,
140,0,141,n,2.5266380000393838,None,141,0,140,386.10039059998235,,,,,,,,,,,,,,,,,,,,,,,,,,,,,,,,,,,,,,,,,,,,,,,,,,386.0843806999619,386.10039059998235,386.6008222999517,386.58387499995297,386.59407099999953,386.6008222999517,386.6008222999517,386.6008222999517,389.13427549996413,Objects\242b.jpg,mid,n,2.5266380000393838,None,,,,,,,,00059,001,2026-01-19_16h49.56.647,MST_test,2024.2.0,60.01543596889412,2026-01-19 16h50.04.991584 +0530,
141,0,142,o,0.9884293000213802,None,142,0,141,389.1504736999632,,,,,,,,,,,,,,,,,,,,,,,,,,,,,,,,,,,,,,,,,,,,,,,,,,389.1343754999689,389.1504736999632,389.65073229995323,389.6340286999475,389.6370610999875,389.65073229995323,389.65073229995323,389.65073229995323,390.6510860999697,Objects\001a.jpg,pre,o,0.9884293000213802,None,,,,,,,,00059,001,2026-01-19_16h49.56.647,MST_test,2024.2.0,60.01543596889412,2026-01-19 16h50.04.991584 +0530,
142,0,143,s,4.7510064000380225,None,143,0,142,390.6670879999874,,,,,,,,,,,,,,,,,,,,,,,,,,,,,,,,,,,,,,,,,,,,,,,,,,390.6511791999801,390.6670879999874,391.16758279997157,391.150851399987,391.16128669999307,391.16758279997157,391.16758279997157,391.16758279997157,395.934234299988,Objects\316b.jpg,pre,s,4.7510064000380225,None,,,,,,,,00059,001,2026-01-19_16h49.56.647,MST_test,2024.2.0,60.01543596889412,2026-01-19 16h50.04.991584 +0530,
143,0,144,s,1.0602177000255324,None,144,0,143,395.9505143999704,,,,,,,,,,,,,,,,,,,,,,,,,,,,,,,,,,,,,,,,,,,,,,,,,,395.9343235999695,395.9505143999704,396.45086509996327,396.43422359996475,396.43740799999796,396.45086509996327,396.45086509996327,396.45086509996327,397.51764369994635,Objects\015a.jpg,mid,s,1.0602177000255324,None,,,,,,,,00059,001,2026-01-19_16h49.56.647,MST_test,2024.2.0,60.01543596889412,2026-01-19 16h50.04.991584 +0530,
144,0,145,s,1.9661573000485078,None,145,0,144,397.53419209999265,,,,,,,,,,,,,,,,,,,,,,,,,,,,,,,,,,,,,,,,,,,,,,,,,,397.5177335999906,397.53419209999265,398.03403299994534,398.0175046999939,398.0269745999831,398.03403299994534,398.03403299994534,398.03403299994534,400.00144069996895,Objects\301b.jpg,mid,s,1.9661573000485078,None,,,,,,,,00059,001,2026-01-19_16h49.56.647,MST_test,2024.2.0,60.01543596889412,2026-01-19 16h50.04.991584 +0530,
145,0,146,s,1.211088199983351,None,146,0,145,400.01721549994545,,,,,,,,,,,,,,,,,,,,,,,,,,,,,,,,,,,,,,,,,,,,,,,,,,400.00152920000255,400.01721549994545,400.5172548999544,400.50081099994713,400.51009509997675,400.5172548999544,400.5172548999544,400.5172548999544,401.7344153999584,Foils\066a.jpg,none,s,1.211088199983351,None,,,,,,,,00059,001,2026-01-19_16h49.56.647,MST_test,2024.2.0,60.01543596889412,2026-01-19 16h50.04.991584 +0530,
146,0,147,o,1.0207069999887608,None,147,0,146,401.750360099948,,,,,,,,,,,,,,,,,,,,,,,,,,,,,,,,,,,,,,,,,,,,,,,,,,401.7345076999627,401.750360099948,402.25054419995286,402.2339602999855,402.23625419999007,402.25054419995286,402.25054419995286,402.25054419995286,403.28428059996804,Objects\087a.jpg,post,o,1.0207069999887608,None,,,,,,,,00059,001,2026-01-19_16h49.56.647,MST_test,2024.2.0,60.01543596889412,2026-01-19 16h50.04.991584 +0530,
147,0,148,o,0.8380134999752045,None,148,0,147,403.3007152999635,,,,,,,,,,,,,,,,,,,,,,,,,,,,,,,,,,,,,,,,,,,,,,,,,,403.28437059995485,403.3007152999635,403.80059539998183,403.7840481000021,403.7864063999732,403.80059539998183,403.80059539998183,403.80059539998183,404.6509936999646,Objects\253a.jpg,pre,o,0.8380134999752045,None,,,,,,,,00059,001,2026-01-19_16h49.56.647,MST_test,2024.2.0,60.01543596889412,2026-01-19 16h50.04.991584 +0530,
148,0,149,s,2.3751121999812312,None,149,0,148,404.6670744000003,,,,,,,,,,,,,,,,,,,,,,,,,,,,,,,,,,,,,,,,,,,,,,,,,,404.6510836999514,404.6670744000003,405.1674194999505,405.1506907999865,405.1601469999878,405.1674194999505,405.1674194999505,405.1674194999505,407.5509596999618,Objects\299b.jpg,post,s,2.3751121999812312,None,,,,,,,,00059,001,2026-01-19_16h49.56.647,MST_test,2024.2.0,60.01543596889412,2026-01-19 16h50.04.991584 +0530,
149,0,150,s,1.0594311999739148,None,150,0,149,407.5670599999721,,,,,,,,,,,,,,,,,,,,,,,,,,,,,,,,,,,,,,,,,,,,,,,,,,407.5510526999715,407.5670599999721,408.0673901999835,408.050561299955,408.0597768999869,408.0673901999835,408.0673901999835,408.0673901999835,409.1342318999814,Objects\210b.jpg,mid,s,1.0594311999739148,None,,,,,,,,00059,001,2026-01-19_16h49.56.647,MST_test,2024.2.0,60.01543596889412,2026-01-19 16h50.04.991584 +0530,
,,,,,,,,,,,,,,,,,,,,,,,,,,,,,,,,,,,,,,,,,,,,,,,,,,,,,,,,,,,,,,,,,,,,,,,,,409.1342944999924,409.1504433999653,409.1504433999653,420.7342505999841,space,11.576667300018016,None,00059,001,2026-01-19_16h49.56.647,MST_test,2024.2.0,60.01543596889412,2026-01-19 16h50.04.991584 +0530,
