Sl_no,image_path,thisN,thisTrialN,thisRepN,key_resp_5.keys,key_resp_5.rt,key_resp_5.duration,key_resp_7.keys,key_resp_7.rt,key_resp_7.duration,key_resp_9.keys,key_resp_9.rt,key_resp_9.duration,key_resp_8.keys,key_resp_8.rt,key_resp_8.duration,practice.thisRepN,practice.thisTrialN,practice.thisN,trials.thisRepN,trials.thisTrialN,trials.thisN,thisRow.t,notes,welcome_page.started,text.started,key_resp.started,welcome_page.stopped,key_resp.keys,key_resp.rt,key_resp.duration,instructions.started,ins.started,key_resp_2.started,instructions.stopped,key_resp_2.keys,key_resp_2.rt,key_resp_2.duration,objects_only_instruction.started,text_3.started,key_resp_3.started,objects_only_instruction.stopped,key_resp_3.keys,key_resp_3.rt,key_resp_3.duration,ISI.started,text_4.started,ISI.stopped,practice_block.started,image.started,key_resp_5.started,text_5.started,practice_block.stopped,practice.key_resp_5.keys,practice.key_resp_5.rt,practice.key_resp_5.duration,indoor_outdoor.started,indoor_outdoor.stopped,practice.key_resp_7.keys,text_7.started,key_resp_7.started,practice.key_resp_7.rt,practice.key_resp_7.duration,practice_to_main.started,text_2.started,key_resp_4.started,practice_to_main.stopped,key_resp_4.keys,key_resp_4.rt,key_resp_4.duration,objects.started,image_2.started,text_9.started,key_resp_9.started,objects.stopped,category,trials.key_resp_9.keys,trials.key_resp_9.rt,trials.key_resp_9.duration,encoding_task.started,encoding_task.stopped,trials.key_resp_8.keys,text_8.started,key_resp_8.started,trials.key_resp_8.rt,trials.key_resp_8.duration,text_4.stopped,end_experiment.started,text_6.started,key_resp_6.started,end_experiment.stopped,key_resp_6.keys,key_resp_6.rt,key_resp_6.duration,list_of_stimuli,encoding_task_accuracy,participant,session,date,expName,psychopyVersion,frameRate,expStart,
,,,,,,,,,,,,,,,,,,,,,,,,,0.0037047999794594944,0.02036879997467622,0.02036879997467622,447.80951799999457,space,447.78636490000645,None,,,,,,,,,,,,,,,,,,,,,,,,,,,,,,,,,,,,,,,,,,,,,,,,,,,,,,,,,,,,,,,,,,00057,001,2026-01-19_11h17.15.155,MST_task,2024.2.0,59.955057688548415,2026-01-19 11h17.30.962254 +0530,
,,,,,,,,,,,,,,,,,,,,,,,,,,,,,,,,447.80956869997317,447.8409331999719,447.8409331999719,507.38298160000704,space,59.5254834999796,None,,,,,,,,,,,,,,,,,,,,,,,,,,,,,,,,,,,,,,,,,,,,,,,,,,,,,,,,,,,00057,001,2026-01-19_11h17.15.155,MST_task,2024.2.0,59.955057688548415,2026-01-19 11h17.30.962254 +0530,
,,,,,,,,,,,,,,,,,,,,,,,,,,,,,,,,,,,,,,,507.3830176999909,507.39919829997234,507.39919829997234,539.5287332999869,space,32.11943029996473,None,,,,,,,,,,,,,,,,,,,,,,,,,,,,,,,,,,,,,,,,,,,,,,,,,,,,00057,001,2026-01-19_11h17.15.155,MST_task,2024.2.0,59.955057688548415,2026-01-19 11h17.30.962254 +0530,
7,practice_images/166a.jpg,0,0,1,f,2.3763198000378907,0.07194139994680882,None,,,,,,,,,1,0,0,,,,539.5448742000153,,,,,,,,,,,,,,,,,,,,,,,539.5328958000173,539.5448742000153,540.0298331999802,540.0402758999844,540.0468448000029,540.0468448000029,540.0468448000029,543.0403792000143,f,2.3763198000378907,0.07194139994680882,543.0416832999908,543.0417040999746,None,,,,,,,,,,,,,,,,,,,,,,,,,,,,,,,,,,,,,,00057,001,2026-01-19_11h17.15.155,MST_task,2024.2.0,59.955057688548415,2026-01-19 11h17.30.962254 +0530,
10,practice_images/182a.jpg,1,1,1,f,1.8952506000059657,0.12094990001060069,None,,,,,,,,,1,1,1,,,,543.0571543999831,,,,,,,,,,,,,,,,,,,,,,,543.0417717000237,543.0571543999831,543.5421653999947,543.5437190000084,543.5591391000198,543.5591391000198,543.5591391000198,546.5526724000229,f,1.8952506000059657,0.12094990001060069,546.5527260000235,546.5527394000092,None,,,,,,,,,,,,,,,,,,,,,,,,,,,,,,,,,,,,,,00057,001,2026-01-19_11h17.15.155,MST_task,2024.2.0,59.955057688548415,2026-01-19 11h17.30.962254 +0530,
6,practice_images/158a.jpg,2,2,1,j,1.679983500041999,0.1275538999470882,None,,,,,,,,,1,2,2,,,,546.569464900007,,,,,,,,,,,,,,,,,,,,,,,546.5528111999738,546.569464900007,547.0544716999866,547.0560953000095,547.0712153000059,547.0712153000059,547.0712153000059,550.0651187999756,j,1.679983500041999,0.1275538999470882,550.065165899985,550.0651789999683,None,,,,,,,,,,,,,,,,,,,,,,,,,,,,,,,,,,,,,,00057,001,2026-01-19_11h17.15.155,MST_task,2024.2.0,59.955057688548415,2026-01-19 11h17.30.962254 +0530,
9,practice_images/180a.jpg,3,3,1,f,1.8072888999595307,0.09648270002799109,None,,,,,,,,,1,3,3,,,,550.0817612999817,,,,,,,,,,,,,,,,,,,,,,,550.0652465000167,550.0817612999817,550.5667143000173,550.5682327999966,550.5835032999748,550.5835032999748,550.5835032999748,553.5774046999868,f,1.8072888999595307,0.09648270002799109,553.577441499976,553.5774541000137,None,,,,,,,,,,,,,,,,,,,,,,,,,,,,,,,,,,,,,,00057,001,2026-01-19_11h17.15.155,MST_task,2024.2.0,59.955057688548415,2026-01-19 11h17.30.962254 +0530,
1,practice_images/013a.jpg,4,4,1,j,2.4319835000205785,0.17538620001869276,None,,,,,,,,,1,4,4,,,,553.5939520999673,,,,,,,,,,,,,,,,,,,,,,,553.5775220000069,553.5939520999673,554.079705399985,554.0815935999854,554.0957071000012,554.0957071000012,554.0957071000012,557.0896952999756,j,2.4319835000205785,0.17538620001869276,557.0898938999744,557.0899108999874,None,,,,,,,,,,,,,,,,,,,,,,,,,,,,,,,,,,,,,,00057,001,2026-01-19_11h17.15.155,MST_task,2024.2.0,59.955057688548415,2026-01-19 11h17.30.962254 +0530,
3,practice_images/037a.jpg,5,5,1,None,,,j,1.6196349000092596,None,,,,,,,1,5,5,,,,557.1062387999846,,,,,,,,,,,,,,,,,,,,,,,557.089980299992,557.1062387999846,557.5914412999991,557.5954336000141,557.6083567999885,557.6083567999885,557.6083567999885,560.6020488999784,None,,,560.603561899974,562.2416035999777,j,560.61934689997,560.61934689997,1.6196349000092596,None,,,,,,,,,,,,,,,,,,,,,,,,,,,,,,,,,,00057,001,2026-01-19_11h17.15.155,MST_task,2024.2.0,59.955057688548415,2026-01-19 11h17.30.962254 +0530,
4,practice_images/002b.jpg,6,6,1,j,1.7108775000087917,0.16860869998345152,None,,,,,,,,,1,6,6,,,,562.2577301000129,,,,,,,,,,,,,,,,,,,,,,,562.2416925000143,562.2577301000129,562.7427067999961,562.7449604999856,562.759476199979,562.759476199979,562.759476199979,565.7532398999901,j,1.7108775000087917,0.16860869998345152,565.7532907999703,565.7533036000095,None,,,,,,,,,,,,,,,,,,,,,,,,,,,,,,,,,,,,,,00057,001,2026-01-19_11h17.15.155,MST_task,2024.2.0,59.955057688548415,2026-01-19 11h17.30.962254 +0530,
2,practice_images/031a.jpg,7,7,1,j,1.9749506000080146,0.1762014999985695,None,,,,,,,,,1,7,7,,,,565.7700264999876,,,,,,,,,,,,,,,,,,,,,,,565.7533714000019,565.7700264999876,566.2550087000127,566.2564449000056,566.2717890000204,566.2717890000204,566.2717890000204,569.2655511000194,j,1.9749506000080146,0.1762014999985695,569.2655904999701,569.2656090999953,None,,,,,,,,,,,,,,,,,,,,,,,,,,,,,,,,,,,,,,00057,001,2026-01-19_11h17.15.155,MST_task,2024.2.0,59.955057688548415,2026-01-19 11h17.30.962254 +0530,
5,practice_images/139a.jpg,8,8,1,f,1.518402400019113,0.1441806000075303,None,,,,,,,,,1,8,8,,,,569.282411799999,,,,,,,,,,,,,,,,,,,,,,,569.2656798000098,569.282411799999,569.7675806999905,569.7690978000173,569.7846830000053,569.7846830000053,569.7846830000053,572.7780909999856,f,1.518402400019113,0.1441806000075303,572.7781316000037,572.7781448999885,None,,,,,,,,,,,,,,,,,,,,,,,,,,,,,,,,,,,,,,00057,001,2026-01-19_11h17.15.155,MST_task,2024.2.0,59.955057688548415,2026-01-19 11h17.30.962254 +0530,
8,practice_images/178a.jpg,9,9,1,f,1.230135599966161,0.15191459999186918,None,,,,,,,,,1,9,9,,,,572.7948151999735,,,,,,,,,,,,,,,,,,,,,,,572.7782120999764,572.7948151999735,573.2801707999897,573.281687300012,573.29657950002,573.29657950002,573.29657950002,576.2903023000108,f,1.230135599966161,0.15191459999186918,576.2903397000046,576.290351899981,None,,,,,,,,,,,,,,,,,,,,,,,,,,,,,,,,,,,,,,00057,001,2026-01-19_11h17.15.155,MST_task,2024.2.0,59.955057688548415,2026-01-19 11h17.30.962254 +0530,
,,,,,,,,,,,,,,,,,,,,,,,,,,,,,,,,,,,,,,,,,,,,,,,,,,,,,,,,,,,,,,,,576.2903964999714,576.3069999999716,576.3069999999716,585.0715463000233,space,8.763519599975552,None,,,,,,,,,,,,,,,,,,,,,,,,,,,00057,001,2026-01-19_11h17.15.155,MST_task,2024.2.0,59.955057688548415,2026-01-19 11h17.30.962254 +0530,
,Objects\134a.jpg,0,0,1,,,,,,,j,1.6090324000106193,0.16654229996493086,None,,,,,,1,0,0,585.0876708999858,,,,,,,,,,,,,,,,,,,,,,,585.0721740999725,585.0876708999858,585.5727848000242,,,,,,,,,,,,,,,,,,,,,,,585.5839382999693,585.6069456000114,585.6069456000114,585.6069456000114,588.5832038000226,shoe,j,1.6090324000106193,0.16654229996493086,588.5846594999894,588.5846798999701,None,,,,,,,,,,,,,,,00057,001,2026-01-19_11h17.15.155,MST_task,2024.2.0,59.955057688548415,2026-01-19 11h17.30.962254 +0530,
,Objects\337a.jpg,1,0,2,,,,,,,j,2.447446000005584,0.1521006000111811,None,,,,,,2,0,1,588.5999726000009,,,,,,,,,,,,,,,,,,,,,,,588.5847856000182,588.5999726000009,589.0850675000111,,,,,,,,,,,,,,,,,,,,,,,589.0939070999739,589.1194808,589.1194808,589.1194808,592.0954972999752,shoe,j,2.447446000005584,0.1521006000111811,592.0955396000063,592.0955518999835,None,,,,,,,,,,,,,,,00057,001,2026-01-19_11h17.15.155,MST_task,2024.2.0,59.955057688548415,2026-01-19 11h17.30.962254 +0530,
,Objects\018a.jpg,2,0,3,,,,,,,f,1.191990099963732,0.15212710003834218,None,,,,,,3,0,2,592.1122675000224,,,,,,,,,,,,,,,,,,,,,,,592.0956197999767,592.1122675000224,592.5972778999712,,,,,,,,,,,,,,,,,,,,,,,592.6069599000039,592.6309421000187,592.6309421000187,592.6309421000187,595.6080988000031,shoe,f,1.191990099963732,0.15212710003834218,595.608143599995,595.6081587999943,None,,,,,,,,,,,,,,,00057,001,2026-01-19_11h17.15.155,MST_task,2024.2.0,59.955057688548415,2026-01-19 11h17.30.962254 +0530,
,Objects\219a.jpg,3,0,4,,,,,,,f,1.2568821999593638,0.14395990001503378,None,,,,,,4,0,3,595.6244532999699,,,,,,,,,,,,,,,,,,,,,,,595.6082265999867,595.6244532999699,596.1096696999739,,,,,,,,,,,,,,,,,,,,,,,596.1132822000072,596.1262024000171,596.1262024000171,596.1262024000171,599.119993100001,shoe,f,1.2568821999593638,0.14395990001503378,599.1201232000021,599.1201663999818,None,,,,,,,,,,,,,,,00057,001,2026-01-19_11h17.15.155,MST_task,2024.2.0,59.955057688548415,2026-01-19 11h17.30.962254 +0530,
,Objects\011a.jpg,4,0,5,,,,,,,f,2.1042036000289954,0.1683315999689512,None,,,,,,5,0,4,599.1364480999764,,,,,,,,,,,,,,,,,,,,,,,599.1202870999696,599.1364480999764,599.6219522000174,,,,,,,,,,,,,,,,,,,,,,,599.6250594999874,599.6381668999675,599.6381668999675,599.6381668999675,602.6321557000047,shoe,f,2.1042036000289954,0.1683315999689512,602.632198199979,602.632211100019,None,,,,,,,,,,,,,,,00057,001,2026-01-19_11h17.15.155,MST_task,2024.2.0,59.955057688548415,2026-01-19 11h17.30.962254 +0530,
,Objects\050a.jpg,5,0,6,,,,,,,f,1.7042075000354089,0.1519616000005044,None,,,,,,6,0,5,602.6487511000014,,,,,,,,,,,,,,,,,,,,,,,602.6322800000198,602.6487511000014,603.1339669000008,,,,,,,,,,,,,,,,,,,,,,,603.1373299999977,603.1504606999806,603.1504606999806,603.1504606999806,606.1444627000019,shoe,f,1.7042075000354089,0.1519616000005044,606.1445071999915,606.1445199999725,None,,,,,,,,,,,,,,,00057,001,2026-01-19_11h17.15.155,MST_task,2024.2.0,59.955057688548415,2026-01-19 11h17.30.962254 +0530,
,Objects\339a.jpg,6,0,7,,,,,,,None,,,f,0.11726700002327561,None,,,,7,0,6,606.1610246999771,,,,,,,,,,,,,,,,,,,,,,,606.1445888999733,606.1610246999771,606.6465571000008,,,,,,,,,,,,,,,,,,,,,,,606.6544584999792,606.6794890000019,606.6794890000019,606.6794890000019,609.6570525999996,shoe,None,,,609.6570927000139,609.7916490000207,f,609.6733525000163,609.6733525000163,0.11726700002327561,None,,,,,,,,,,,00057,001,2026-01-19_11h17.15.155,MST_task,2024.2.0,59.955057688548415,2026-01-19 11h17.30.962254 +0530,
,Objects\194a.jpg,7,0,8,,,,,,,f,1.8983632000163198,0.1510368000017479,None,,,,,,8,0,7,609.8071449999698,,,,,,,,,,,,,,,,,,,,,,,609.7917440999881,609.8071449999698,610.2923632999882,,,,,,,,,,,,,,,,,,,,,,,610.3010986999725,610.3088846000028,610.3088846000028,610.3088846000028,613.302811099973,indoor,f,1.8983632000163198,0.1510368000017479,613.3041810999857,613.3042007000186,None,,,,,,,,,,,,,,,00057,001,2026-01-19_11h17.15.155,MST_task,2024.2.0,59.955057688548415,2026-01-19 11h17.30.962254 +0530,
,Objects\023a.jpg,8,0,9,,,,,,,f,1.000800799985882,0.1522481000283733,None,,,,,,9,0,8,613.3195687999832,,,,,,,,,,,,,,,,,,,,,,,613.3042715999763,613.3195687999832,613.8047463999828,,,,,,,,,,,,,,,,,,,,,,,613.8220868000062,613.8380158999935,613.8380158999935,613.8380158999935,616.8151470000157,indoor,f,1.000800799985882,0.1522481000283733,616.815470099973,616.8154838000191,None,,,,,,,,,,,,,,,00057,001,2026-01-19_11h17.15.155,MST_task,2024.2.0,59.955057688548415,2026-01-19 11h17.30.962254 +0530,
,Objects\173a.jpg,9,0,10,,,,,,,f,1.52878650004277,0.15248749998863786,None,,,,,,10,0,9,616.8317435000208,,,,,,,,,,,,,,,,,,,,,,,616.8155537999701,616.8317435000208,617.3170028000022,,,,,,,,,,,,,,,,,,,,,,,617.3200991000049,617.3335813999875,617.3335813999875,617.3335813999875,620.3276631999761,indoor,f,1.52878650004277,0.15248749998863786,620.3277078999672,620.3277204000042,None,,,,,,,,,,,,,,,00057,001,2026-01-19_11h17.15.155,MST_task,2024.2.0,59.955057688548415,2026-01-19 11h17.30.962254 +0530,
,Objects\338a.jpg,10,0,11,,,,,,,f,0.8413423000019975,0.14370519999647513,None,,,,,,11,0,10,620.344074899971,,,,,,,,,,,,,,,,,,,,,,,620.3277930999757,620.344074899971,620.8292882000096,,,,,,,,,,,,,,,,,,,,,,,620.8436521000112,620.8625251000049,620.8625251000049,620.8625251000049,623.8396571999765,indoor,f,0.8413423000019975,0.14370519999647513,623.8397187999799,623.8397331999731,None,,,,,,,,,,,,,,,00057,001,2026-01-19_11h17.15.155,MST_task,2024.2.0,59.955057688548415,2026-01-19 11h17.30.962254 +0530,
,Objects\227a.jpg,11,0,12,,,,,,,f,1.1999612000072375,0.15365970000857487,None,,,,,,12,0,11,623.8564595999778,,,,,,,,,,,,,,,,,,,,,,,623.8398025999777,623.8564595999778,624.341523799987,,,,,,,,,,,,,,,,,,,,,,,624.3532550999662,624.3749210999813,624.3749210999813,624.3749210999813,627.3525860999944,indoor,f,1.1999612000072375,0.15365970000857487,627.352641800011,627.3526538999868,None,,,,,,,,,,,,,,,00057,001,2026-01-19_11h17.15.155,MST_task,2024.2.0,59.955057688548415,2026-01-19 11h17.30.962254 +0530,
,Objects\059a.jpg,12,0,13,,,,,,,f,1.608129900007043,0.16044499998679385,None,,,,,,13,0,12,627.368761699996,,,,,,,,,,,,,,,,,,,,,,,627.352725100005,627.368761699996,627.8539983999799,,,,,,,,,,,,,,,,,,,,,,,627.8572057000129,627.8705361000029,627.8705361000029,627.8705361000029,630.864258799993,indoor,f,1.608129900007043,0.16044499998679385,630.864303099981,630.8643155000173,None,,,,,,,,,,,,,,,00057,001,2026-01-19_11h17.15.155,MST_task,2024.2.0,59.955057688548415,2026-01-19 11h17.30.962254 +0530,
,Objects\015a.jpg,13,0,14,,,,,,,f,1.4961503999656998,0.1677804000210017,None,,,,,,14,0,13,630.881066699978,,,,,,,,,,,,,,,,,,,,,,,630.8643849000218,630.881066699978,631.366204699967,,,,,,,,,,,,,,,,,,,,,,,631.3696341000032,631.3828192999936,631.3828192999936,631.3828192999936,634.3766990000149,indoor,f,1.4961503999656998,0.1677804000210017,634.3767558999825,634.3767685000203,None,,,,,,,,,,,,,,,00057,001,2026-01-19_11h17.15.155,MST_task,2024.2.0,59.955057688548415,2026-01-19 11h17.30.962254 +0530,
,Objects\046a.jpg,14,0,15,,,,,,,j,1.8323719999752939,0.15154659998370335,None,,,,,,15,0,14,634.3935331999674,,,,,,,,,,,,,,,,,,,,,,,634.3768394999788,634.3935331999674,634.8785109000164,,,,,,,,,,,,,,,,,,,,,,,634.8828546999721,634.895242700004,634.895242700004,634.895242700004,637.889077299973,shoe,j,1.8323719999752939,0.15154659998370335,637.8910528999986,637.8910722999717,None,,,,,,,,,,,,,,,00057,001,2026-01-19_11h17.15.155,MST_task,2024.2.0,59.955057688548415,2026-01-19 11h17.30.962254 +0530,
,Objects\091a.jpg,15,0,16,,,,,,,j,1.5348150000208989,0.1759271000046283,None,,,,,,16,0,15,637.9056648999685,,,,,,,,,,,,,,,,,,,,,,,637.8911439999938,637.9056648999685,638.3912334999768,,,,,,,,,,,,,,,,,,,,,,,638.4012942999834,638.4240971999825,638.4240971999825,638.4240971999825,641.4015746000223,shoe,j,1.5348150000208989,0.1759271000046283,641.4016197000165,641.4016319999937,None,,,,,,,,,,,,,,,00057,001,2026-01-19_11h17.15.155,MST_task,2024.2.0,59.955057688548415,2026-01-19 11h17.30.962254 +0530,
,Objects\218a.jpg,16,0,17,,,,,,,j,1.6482988999923691,0.17493639996973798,None,,,,,,17,0,16,641.4178388,,,,,,,,,,,,,,,,,,,,,,,641.4017542999936,641.4178388,641.9030366999796,,,,,,,,,,,,,,,,,,,,,,,641.911119700002,641.9189864000073,641.9189864000073,641.9189864000073,644.9135626999778,shoe,j,1.6482988999923691,0.17493639996973798,644.9136317999801,644.913643900014,None,,,,,,,,,,,,,,,00057,001,2026-01-19_11h17.15.155,MST_task,2024.2.0,59.955057688548415,2026-01-19 11h17.30.962254 +0530,
,Objects\376a.jpg,17,0,18,,,,,,,j,2.301822000008542,0.11252799996873364,None,,,,,,18,0,17,644.9302583999815,,,,,,,,,,,,,,,,,,,,,,,644.9137528999709,644.9302583999815,645.4152270000195,,,,,,,,,,,,,,,,,,,,,,,645.4303654999821,645.4487938000239,645.4487938000239,645.4487938000239,648.425877599977,shoe,j,2.301822000008542,0.11252799996873364,648.4259343000012,648.4259465999785,None,,,,,,,,,,,,,,,00057,001,2026-01-19_11h17.15.155,MST_task,2024.2.0,59.955057688548415,2026-01-19 11h17.30.962254 +0530,
,Objects\103a.jpg,18,0,19,,,,,,,j,2.406169299967587,0.13680430001113564,None,,,,,,19,0,18,648.44236549997,,,,,,,,,,,,,,,,,,,,,,,648.4260164999869,648.44236549997,648.9276563000167,,,,,,,,,,,,,,,,,,,,,,,648.9304974999977,648.9442760999664,648.9442760999664,648.9442760999664,651.9384381999844,shoe,j,2.406169299967587,0.13680430001113564,651.9384845999884,651.9384974999703,None,,,,,,,,,,,,,,,00057,001,2026-01-19_11h17.15.155,MST_task,2024.2.0,59.955057688548415,2026-01-19 11h17.30.962254 +0530,
,Objects\135a.jpg,19,0,20,,,,,,,f,1.0622010999941267,0.15158549998886883,None,,,,,,20,0,19,651.9547489999677,,,,,,,,,,,,,,,,,,,,,,,651.9386175000109,651.9547489999677,652.440168400004,,,,,,,,,,,,,,,,,,,,,,,652.4499207999907,652.4731867000228,652.4731867000228,652.4731867000228,655.4502715999843,shoe,f,1.0622010999941267,0.15158549998886883,655.4503444000147,655.4503578000003,None,,,,,,,,,,,,,,,00057,001,2026-01-19_11h17.15.155,MST_task,2024.2.0,59.955057688548415,2026-01-19 11h17.30.962254 +0530,
,Objects\325a.jpg,20,0,21,,,,,,,f,1.8225122999865562,0.15175530000124127,None,,,,,,21,0,20,655.467164599977,,,,,,,,,,,,,,,,,,,,,,,655.4507306999876,655.467164599977,655.9521880999673,,,,,,,,,,,,,,,,,,,,,,,655.9593182000099,655.9687480999855,655.9687480999855,655.9687480999855,658.9628010999877,shoe,f,1.8225122999865562,0.15175530000124127,658.9628558999975,658.9628682999755,None,,,,,,,,,,,,,,,00057,001,2026-01-19_11h17.15.155,MST_task,2024.2.0,59.955057688548415,2026-01-19 11h17.30.962254 +0530,
,Objects\166a.jpg,21,0,22,,,,,,,f,1.5487960999598727,0.15988700004527345,None,,,,,,22,0,21,658.9794569999794,,,,,,,,,,,,,,,,,,,,,,,658.962937299977,658.9794569999794,659.4644605999929,,,,,,,,,,,,,,,,,,,,,,,659.4738338000025,659.4979527000105,659.4979527000105,659.4979527000105,662.4750873000012,indoor,f,1.5487960999598727,0.15988700004527345,662.476452199975,662.4764719000086,None,,,,,,,,,,,,,,,00057,001,2026-01-19_11h17.15.155,MST_task,2024.2.0,59.955057688548415,2026-01-19 11h17.30.962254 +0530,
,Objects\239a.jpg,22,0,23,,,,,,,f,2.1181835000170395,0.15967839997028932,None,,,,,,23,0,22,662.491847599973,,,,,,,,,,,,,,,,,,,,,,,662.4765443999786,662.491847599973,662.9767305999994,,,,,,,,,,,,,,,,,,,,,,,662.9845401999773,662.9930656999932,662.9930656999932,662.9930656999932,665.9872390999808,indoor,f,2.1181835000170395,0.15967839997028932,665.9872816000134,665.9872937999899,None,,,,,,,,,,,,,,,00057,001,2026-01-19_11h17.15.155,MST_task,2024.2.0,59.955057688548415,2026-01-19 11h17.30.962254 +0530,
,Objects\217a.jpg,23,0,24,,,,,,,f,1.8684512000181712,0.1596490999800153,None,,,,,,24,0,23,666.0040533000138,,,,,,,,,,,,,,,,,,,,,,,665.9873889000155,666.0040533000138,666.4890714000212,,,,,,,,,,,,,,,,,,,,,,,666.4975738999783,666.5224851999665,666.5224851999665,666.5224851999665,669.4998199999682,indoor,f,1.8684512000181712,0.1596490999800153,669.499864500016,669.4998771999963,None,,,,,,,,,,,,,,,00057,001,2026-01-19_11h17.15.155,MST_task,2024.2.0,59.955057688548415,2026-01-19 11h17.30.962254 +0530,
,Objects\153a.jpg,24,0,25,,,,,,,f,0.9254622000153176,0.15944659995147958,None,,,,,,25,0,24,669.5162373000057,,,,,,,,,,,,,,,,,,,,,,,669.4999452999909,669.5162373000057,670.0016167999711,,,,,,,,,,,,,,,,,,,,,,,670.0089500999893,670.0179958000081,670.0179958000081,670.0179958000081,673.0123266999726,indoor,f,0.9254622000153176,0.15944659995147958,673.0123785000178,673.012392100005,None,,,,,,,,,,,,,,,00057,001,2026-01-19_11h17.15.155,MST_task,2024.2.0,59.955057688548415,2026-01-19 11h17.30.962254 +0530,
,Objects\006a.jpg,25,0,26,,,,,,,j,1.5005009999731556,0.16886580002028495,None,,,,,,26,0,25,673.0285220000078,,,,,,,,,,,,,,,,,,,,,,,673.0124607000034,673.0285220000078,673.5137330999714,,,,,,,,,,,,,,,,,,,,,,,673.5169424000196,673.5302783999941,673.5302783999941,673.5302783999941,676.5244258000166,indoor,j,1.5005009999731556,0.16886580002028495,676.5244741999777,676.5244868000154,None,,,,,,,,,,,,,,,00057,001,2026-01-19_11h17.15.155,MST_task,2024.2.0,59.955057688548415,2026-01-19 11h17.30.962254 +0530,
,Objects\365a.jpg,26,0,27,,,,,,,j,1.5319241000106558,0.176422199991066,None,,,,,,27,0,26,676.540831100021,,,,,,,,,,,,,,,,,,,,,,,676.5245567000238,676.540831100021,677.0260319000226,,,,,,,,,,,,,,,,,,,,,,,677.0324677000172,677.0425835999777,677.0425835999777,677.0425835999777,680.0366080999956,indoor,j,1.5319241000106558,0.176422199991066,680.0366601999849,680.0367006000015,None,,,,,,,,,,,,,,,00057,001,2026-01-19_11h17.15.155,MST_task,2024.2.0,59.955057688548415,2026-01-19 11h17.30.962254 +0530,
,Objects\184a.jpg,27,0,28,,,,,,,f,1.7811271999962628,0.15155090001644567,None,,,,,,28,0,27,680.0539313000045,,,,,,,,,,,,,,,,,,,,,,,680.0367978999857,680.0539313000045,680.5382143000024,,,,,,,,,,,,,,,,,,,,,,,680.5463538999902,680.5543113999884,680.5543113999884,680.5543113999884,683.5488501000218,indoor,f,1.7811271999962628,0.15155090001644567,683.5489001999958,683.5489126999746,None,,,,,,,,,,,,,,,00057,001,2026-01-19_11h17.15.155,MST_task,2024.2.0,59.955057688548415,2026-01-19 11h17.30.962254 +0530,
,Objects\265a.jpg,28,0,29,,,,,,,j,1.7315028999582864,0.17571520002093166,None,,,,,,29,0,28,683.5655528000207,,,,,,,,,,,,,,,,,,,,,,,683.549001300009,683.5655528000207,684.0505458000116,,,,,,,,,,,,,,,,,,,,,,,684.0596544999862,684.0839897000114,684.0839897000114,684.0839897000114,687.0611283999751,shoe,j,1.7315028999582864,0.17571520002093166,687.0631342999986,687.0631540999748,None,,,,,,,,,,,,,,,00057,001,2026-01-19_11h17.15.155,MST_task,2024.2.0,59.955057688548415,2026-01-19 11h17.30.962254 +0530,
,Objects\236a.jpg,29,0,30,,,,,,,f,1.6747279000119306,0.17549299995880574,None,,,,,,30,0,29,687.0777302000206,,,,,,,,,,,,,,,,,,,,,,,687.0632251999923,687.0777302000206,687.5634186000098,,,,,,,,,,,,,,,,,,,,,,,687.573313299974,687.5961659000022,687.5961659000022,687.5961659000022,690.5735378999962,shoe,f,1.6747279000119306,0.17549299995880574,690.5735812999774,690.5735951999668,None,,,,,687.5961659000022,,,,,,,,,,00057,001,2026-01-19_11h17.15.155,MST_task,2024.2.0,59.955057688548415,2026-01-19 11h17.30.962254 +0530,
,Objects\169a.jpg,30,0,31,,,,,,,f,1.8676105999620631,0.1597747000050731,None,,,,,,31,0,30,690.5903715000022,,,,,,,,,,,,,,,,,,,,,,,690.5736639999668,690.5903715000022,691.0753755000187,,,,,,,,,,,,,,,,,,,,,,,691.0828210000182,691.0910437999992,691.0910437999992,691.0910437999992,694.0857825999847,shoe,f,1.8676105999620631,0.1597747000050731,694.08583180001,694.0858447999926,None,,,,,,,,,,,,,,,00057,001,2026-01-19_11h17.15.155,MST_task,2024.2.0,59.955057688548415,2026-01-19 11h17.30.962254 +0530,
,Objects\364a.jpg,31,0,32,,,,,,,f,1.1059743000078015,0.15991530002793297,None,,,,,,32,0,31,694.1031796999741,,,,,,,,,,,,,,,,,,,,,,,694.0859218999976,694.1031796999741,694.5875959999976,,,,,,,,,,,,,,,,,,,,,,,694.5933170000208,694.6043564999709,694.6043564999709,694.6043564999709,697.5980402000132,shoe,f,1.1059743000078015,0.15991530002793297,697.5980826999876,697.5980949000223,None,,,,,,,,,,,,,,,00057,001,2026-01-19_11h17.15.155,MST_task,2024.2.0,59.955057688548415,2026-01-19 11h17.30.962254 +0530,
,Objects\096a.jpg,32,0,33,,,,,,,f,1.2434075999772176,0.1509405000251718,None,,,,,,33,0,32,697.6146208000137,,,,,,,,,,,,,,,,,,,,,,,697.5981954999734,697.6146208000137,698.0999844999751,,,,,,,,,,,,,,,,,,,,,,,698.1146061000181,698.133064499998,698.133064499998,698.133064499998,701.1102173000108,shoe,f,1.2434075999772176,0.1509405000251718,701.110259899986,701.1102723000222,None,,,,,,,,,,,,,,,00057,001,2026-01-19_11h17.15.155,MST_task,2024.2.0,59.955057688548415,2026-01-19 11h17.30.962254 +0530,
,Objects\114a.jpg,33,0,34,,,,,,,f,0.801608000008855,0.1449768000165932,None,,,,,,34,0,33,701.1270348000107,,,,,,,,,,,,,,,,,,,,,,,701.1103671999881,701.1270348000107,701.6120098999818,,,,,,,,,,,,,,,,,,,,,,,701.6219216000172,701.6456113000168,701.6456113000168,701.6456113000168,704.6225328000146,shoe,f,0.801608000008855,0.1449768000165932,704.6226257000235,704.6226410999661,None,,,,,,,,,,,,,,,00057,001,2026-01-19_11h17.15.155,MST_task,2024.2.0,59.955057688548415,2026-01-19 11h17.30.962254 +0530,
,Objects\235a.jpg,34,0,35,,,,,,,f,0.8099889000295661,0.14457349997246638,None,,,,,,35,0,34,704.6393480999977,,,,,,,,,,,,,,,,,,,,,,,704.6227121999837,704.6393480999977,705.1243184999912,,,,,,,,,,,,,,,,,,,,,,,705.1320089999936,705.1406370999757,705.1406370999757,705.1406370999757,708.135099200008,shoe,f,0.8099889000295661,0.14457349997246638,708.135145200009,708.1351581999916,None,,,,,,,,,,,,,,,00057,001,2026-01-19_11h17.15.155,MST_task,2024.2.0,59.955057688548415,2026-01-19 11h17.30.962254 +0530,
,Objects\014a.jpg,35,0,36,,,,,,,f,0.9206750000012107,0.16067750001093373,None,,,,,,36,0,35,708.1516405000002,,,,,,,,,,,,,,,,,,,,,,,708.1354918999714,708.1516405000002,708.6366055000108,,,,,,,,,,,,,,,,,,,,,,,708.6459289999912,708.6700915999827,708.6700915999827,708.6700915999827,711.6472186999745,indoor,f,0.9206750000012107,0.16067750001093373,711.6485604000045,711.6485793999746,None,,,,,,,,,,,,,,,00057,001,2026-01-19_11h17.15.155,MST_task,2024.2.0,59.955057688548415,2026-01-19 11h17.30.962254 +0530,
,Objects\167a.jpg,36,0,37,,,,,,,f,0.9767208999837749,0.17585399997187778,None,,,,,,37,0,36,711.6638168999925,,,,,,,,,,,,,,,,,,,,,,,711.6486487999791,711.6638168999925,712.149185199989,,,,,,,,,,,,,,,,,,,,,,,712.1518870000145,712.1661285000155,712.1661285000155,712.1661285000155,715.1595134999952,indoor,f,0.9767208999837749,0.17585399997187778,715.1595568999765,715.1595690000104,None,,,,,,,,,,,,,,,00057,001,2026-01-19_11h17.15.155,MST_task,2024.2.0,59.955057688548415,2026-01-19 11h17.30.962254 +0530,
,Objects\211a.jpg,37,0,38,,,,,,,f,1.7689830999588594,0.13555569999152794,None,,,,,,38,0,37,715.1762293999782,,,,,,,,,,,,,,,,,,,,,,,715.159638800018,715.1762293999782,715.6611943999887,,,,,,,,,,,,,,,,,,,,,,,715.6685515000136,715.6781471999711,715.6781471999711,715.6781471999711,718.6718575999839,indoor,f,1.7689830999588594,0.13555569999152794,718.6719017999712,718.6719168999698,None,,,,,,,,,,,,,,,00057,001,2026-01-19_11h17.15.155,MST_task,2024.2.0,59.955057688548415,2026-01-19 11h17.30.962254 +0530,
,Objects\132a.jpg,38,0,39,,,,,,,f,1.0637552000116557,0.17546699999365956,None,,,,,,39,0,38,718.6885315999971,,,,,,,,,,,,,,,,,,,,,,,718.6719869999797,718.6885315999971,719.1737158999895,,,,,,,,,,,,,,,,,,,,,,,719.1907136000227,719.2069941000082,719.2069941000082,719.2069941000082,722.1842264999868,indoor,f,1.0637552000116557,0.17546699999365956,722.1842759000137,722.1842898000032,None,,,,,,,,,,,,,,,00057,001,2026-01-19_11h17.15.155,MST_task,2024.2.0,59.955057688548415,2026-01-19 11h17.30.962254 +0530,
,Objects\381a.jpg,39,0,40,,,,,,,f,1.167779499955941,0.1525815000059083,None,,,,,,40,0,39,722.2007249000017,,,,,,,,,,,,,,,,,,,,,,,722.1843634999823,722.2007249000017,722.6860704999999,,,,,,,,,,,,,,,,,,,,,,,722.7003481999855,722.7191630000016,722.7191630000016,722.7191630000016,725.6962923000101,indoor,f,1.167779499955941,0.1525815000059083,725.6963510999922,725.6963635999709,None,,,,,,,,,,,,,,,00057,001,2026-01-19_11h17.15.155,MST_task,2024.2.0,59.955057688548415,2026-01-19 11h17.30.962254 +0530,
,Objects\237a.jpg,40,0,41,,,,,,,j,1.6465897999587469,0.11211720004212111,None,,,,,,41,0,40,725.7131388999987,,,,,,,,,,,,,,,,,,,,,,,725.696580399992,725.7131388999987,726.19812060002,,,,,,,,,,,,,,,,,,,,,,,726.2068716000067,726.2315783000086,726.2315783000086,726.2315783000086,729.2087288000039,indoor,j,1.6465897999587469,0.11211720004212111,729.2087755000102,729.208788399992,None,,,,,,,,,,,,,,,00057,001,2026-01-19_11h17.15.155,MST_task,2024.2.0,59.955057688548415,2026-01-19 11h17.30.962254 +0530,
,Objects\251a.jpg,41,0,42,,,,,,,f,1.0801938999793492,0.13494239997817203,None,,,,,,42,0,41,729.225317400007,,,,,,,,,,,,,,,,,,,,,,,729.2088594000088,729.225317400007,729.7103977000224,,,,,,,,,,,,,,,,,,,,,,,729.7161099999794,729.7271391999675,729.7271391999675,729.7271391999675,732.721069799969,indoor,f,1.0801938999793492,0.13494239997817203,732.7211140000145,732.7211259999895,None,,,,,,,,,,,,,,,00057,001,2026-01-19_11h17.15.155,MST_task,2024.2.0,59.955057688548415,2026-01-19 11h17.30.962254 +0530,
,Objects\234a.jpg,42,0,43,,,,,,,j,1.8625276000238955,0.14422059996286407,None,,,,,,43,0,42,732.7377183000208,,,,,,,,,,,,,,,,,,,,,,,732.7214587000199,732.7377183000208,733.2227022000006,,,,,,,,,,,,,,,,,,,,,,,733.2324533999781,733.256204299978,733.256204299978,733.256204299978,736.2333035999909,shoe,j,1.8625276000238955,0.14422059996286407,736.2351945000119,736.2352149999933,None,,,,,,,,,,,,,,,00057,001,2026-01-19_11h17.15.155,MST_task,2024.2.0,59.955057688548415,2026-01-19 11h17.30.962254 +0530,
,Objects\361a.jpg,43,0,44,,,,,,,j,1.1355537999770604,0.14370479999342933,None,,,,,,44,0,43,736.2500187999685,,,,,,,,,,,,,,,,,,,,,,,736.2352874000208,736.2500187999685,736.7353438999853,,,,,,,,,,,,,,,,,,,,,,,736.7388188000186,736.751605700003,736.751605700003,736.751605700003,739.7458952000015,shoe,j,1.1355537999770604,0.14370479999342933,739.7459517999669,739.745965900016,None,,,,,736.751605700003,,,,,,,,,,00057,001,2026-01-19_11h17.15.155,MST_task,2024.2.0,59.955057688548415,2026-01-19 11h17.30.962254 +0530,
,Objects\187a.jpg,44,0,45,,,,,,,f,0.7667948000016622,0.15211640001507476,None,,,,,,45,0,44,739.7622115999693,,,,,,,,,,,,,,,,,,,,,,,739.7460703999968,739.7622115999693,740.2474419000209,,,,,,,,,,,,,,,,,,,,,,,740.2505471999757,740.2639480999787,740.2639480999787,740.2639480999787,743.258021000016,shoe,f,0.7667948000016622,0.15211640001507476,743.2584234999958,743.258439600002,None,,,,,,,,,,,,,,,00057,001,2026-01-19_11h17.15.155,MST_task,2024.2.0,59.955057688548415,2026-01-19 11h17.30.962254 +0530,
,Objects\125a.jpg,45,0,46,,,,,,,j,1.1268217000178993,0.14421679999213666,None,,,,,,46,0,45,743.2745120999753,,,,,,,,,,,,,,,,,,,,,,,743.2586142999935,743.2745120999753,743.7597080999985,,,,,,,,,,,,,,,,,,,,,,,743.7626538000186,743.7762176999822,743.7762176999822,743.7762176999822,746.7702714999905,shoe,j,1.1268217000178993,0.14421679999213666,746.7703208000166,746.7703348000068,None,,,,,,,,,,,,,,,00057,001,2026-01-19_11h17.15.155,MST_task,2024.2.0,59.955057688548415,2026-01-19 11h17.30.962254 +0530,
,Objects\076a.jpg,46,0,47,,,,,,,f,1.053496400010772,0.144937300006859,None,,,,,,47,0,46,746.7869296999997,,,,,,,,,,,,,,,,,,,,,,,746.7705740999663,746.7869296999997,747.2722058999934,,,,,,,,,,,,,,,,,,,,,,,747.2754667999689,747.288796000008,747.288796000008,747.288796000008,750.2825285000145,shoe,f,1.053496400010772,0.144937300006859,750.2825716999942,750.2825842999737,None,,,,,,,,,,,,,,,00057,001,2026-01-19_11h17.15.155,MST_task,2024.2.0,59.955057688548415,2026-01-19 11h17.30.962254 +0530,
,Objects\129a.jpg,47,0,48,,,,,,,f,1.3733185000019148,0.1363376000081189,None,,,,,,48,0,47,750.2992291999981,,,,,,,,,,,,,,,,,,,,,,,750.2828715000069,750.2992291999981,750.7841782000032,,,,,,,,,,,,,,,,,,,,,,,750.7869122999837,750.8009285000153,750.8009285000153,750.8009285000153,753.7947691999725,shoe,f,1.3733185000019148,0.1363376000081189,753.7948121000081,753.7948249999899,None,,,,,,,,,,,,,,,00057,001,2026-01-19_11h17.15.155,MST_task,2024.2.0,59.955057688548415,2026-01-19 11h17.30.962254 +0530,
,Objects\054a.jpg,48,0,49,,,,,,,j,1.8135023000068031,0.14446760003920645,None,,,,,,49,0,48,753.8115151000093,,,,,,,,,,,,,,,,,,,,,,,753.7951498000184,753.8115151000093,754.2966018000152,,,,,,,,,,,,,,,,,,,,,,,754.2999727000133,754.3132373999688,754.3132373999688,754.3132373999688,757.3072176999995,shoe,j,1.8135023000068031,0.14446760003920645,757.3072629999951,757.30727629998,None,,,,,,,,,,,,,,,00057,001,2026-01-19_11h17.15.155,MST_task,2024.2.0,59.955057688548415,2026-01-19 11h17.30.962254 +0530,
,Objects\220a.jpg,49,0,50,,,,,,,f,0.8283003000542521,0.15244689997052774,None,,,,,,50,0,49,757.3238081000163,,,,,,,,,,,,,,,,,,,,,,,757.307386600005,757.3238081000163,757.8089074000018,,,,,,,,,,,,,,,,,,,,,,,757.8172747999779,757.8422629999695,757.8422629999695,757.8422629999695,760.8194179999991,indoor,f,0.8283003000542521,0.15244689997052774,760.8207503000158,760.8207692999858,None,,,,,,,,,,,,,,,00057,001,2026-01-19_11h17.15.155,MST_task,2024.2.0,59.955057688548415,2026-01-19 11h17.30.962254 +0530,
,Objects\225a.jpg,50,0,51,,,,,,,f,1.2374227999825962,0.1273528999881819,None,,,,,,51,0,50,760.8359894999885,,,,,,,,,,,,,,,,,,,,,,,760.8208381999866,760.8359894999885,761.3212167000165,,,,,,,,,,,,,,,,,,,,,,,761.3278439000132,761.3377637999947,761.3377637999947,761.3377637999947,764.3316683999728,indoor,f,1.2374227999825962,0.1273528999881819,764.3317152999807,764.3317284000223,None,,,,,,,,,,,,,,,00057,001,2026-01-19_11h17.15.155,MST_task,2024.2.0,59.955057688548415,2026-01-19 11h17.30.962254 +0530,
,Objects\288a.jpg,51,0,52,,,,,,,f,0.9652965000132099,0.13462089997483417,None,,,,,,52,0,51,764.3484165999689,,,,,,,,,,,,,,,,,,,,,,,764.3318002999877,764.3484165999689,764.8334267999744,,,,,,,,,,,,,,,,,,,,,,,764.8483346999856,764.8668487999821,764.8668487999821,764.8668487999821,767.8441986999824,indoor,f,0.9652965000132099,0.13462089997483417,767.8442441999796,767.8442569000181,None,,,,,,,,,,,,,,,00057,001,2026-01-19_11h17.15.155,MST_task,2024.2.0,59.955057688548415,2026-01-19 11h17.30.962254 +0530,
,Objects\344a.jpg,52,0,53,,,,,,,f,2.02043659996707,0.1286604999913834,None,,,,,,53,0,52,767.8605992000084,,,,,,,,,,,,,,,,,,,,,,,767.8443314000033,767.8605992000084,768.3459641999798,,,,,,,,,,,,,,,,,,,,,,,768.3532389000175,768.3623205000185,768.3623205000185,768.3623205000185,771.356644799991,indoor,f,2.02043659996707,0.1286604999913834,771.3567159000086,771.3567282999866,None,,,,,,,,,,,,,,,00057,001,2026-01-19_11h17.15.155,MST_task,2024.2.0,59.955057688548415,2026-01-19 11h17.30.962254 +0530,
,Objects\157a.jpg,53,0,54,,,,,,,f,1.4115804000175558,0.13566349999746308,None,,,,,,54,0,53,771.3728919000132,,,,,,,,,,,,,,,,,,,,,,,771.3567970999866,771.3728919000132,771.8581440999988,,,,,,,,,,,,,,,,,,,,,,,771.8728917000117,771.8918278000201,771.8918278000201,771.8918278000201,774.8684879000066,indoor,f,1.4115804000175558,0.13566349999746308,774.8685298999771,774.8685421000118,None,,,,,,,,,,,,,,,00057,001,2026-01-19_11h17.15.155,MST_task,2024.2.0,59.955057688548415,2026-01-19 11h17.30.962254 +0530,
,Objects\140a.jpg,54,0,55,,,,,,,f,1.4515373000176623,0.15298779995646328,None,,,,,,55,0,54,774.8853150000214,,,,,,,,,,,,,,,,,,,,,,,774.868610400008,774.8853150000214,775.3702698000125,,,,,,,,,,,,,,,,,,,,,,,775.3731866999879,775.3870230999892,775.3870230999892,775.3870230999892,778.381043899979,indoor,f,1.4515373000176623,0.15298779995646328,778.3810874000192,778.3810994999949,None,,,,,,,,,,,,,,,00057,001,2026-01-19_11h17.15.155,MST_task,2024.2.0,59.955057688548415,2026-01-19 11h17.30.962254 +0530,
,Objects\005a.jpg,55,0,56,,,,,,,f,1.8831598000251688,0.13613319996511564,None,,,,,,56,0,55,778.3978190000053,,,,,,,,,,,,,,,,,,,,,,,778.3811678999919,778.3978190000053,778.8827201999957,,,,,,,,,,,,,,,,,,,,,,,778.885507399973,778.8994906999869,778.8994906999869,778.8994906999869,781.8933260000194,indoor,f,1.8831598000251688,0.13613319996511564,781.8933744999813,781.8933873000205,None,,,,,,,,,,,,,,,00057,001,2026-01-19_11h17.15.155,MST_task,2024.2.0,59.955057688548415,2026-01-19 11h17.30.962254 +0530,
,Objects\328a.jpg,56,0,57,,,,,,,f,2.5397231000242755,0.11141279997536913,None,,,,,,57,0,56,781.9098006999702,,,,,,,,,,,,,,,,,,,,,,,781.8934604999959,781.9098006999702,782.394996899995,,,,,,,,,,,,,,,,,,,,,,,782.3993931000005,782.4116423000232,782.4116423000232,782.4116423000232,785.4055674999836,shoe,f,2.5397231000242755,0.11141279997536913,785.4074457000243,785.4074645999935,None,,,,,,,,,,,,,,,00057,001,2026-01-19_11h17.15.155,MST_task,2024.2.0,59.955057688548415,2026-01-19 11h17.30.962254 +0530,
,Objects\035a.jpg,57,0,58,,,,,,,j,1.818878800026141,0.12023790000239387,None,,,,,,58,0,57,785.4222100999905,,,,,,,,,,,,,,,,,,,,,,,785.4075365000172,785.4222100999905,785.9075085999793,,,,,,,,,,,,,,,,,,,,,,,785.9107574999798,785.9238186000148,785.9238186000148,785.9238186000148,788.9179791000206,shoe,j,1.818878800026141,0.12023790000239387,788.9180250000209,788.9180391000118,None,,,,,,,,,,,,,,,00057,001,2026-01-19_11h17.15.155,MST_task,2024.2.0,59.955057688548415,2026-01-19 11h17.30.962254 +0530,
,Objects\083a.jpg,58,0,59,,,,,,,f,0.8271731999702752,0.15928969997912645,None,,,,,,59,0,58,788.9343957999954,,,,,,,,,,,,,,,,,,,,,,,788.9181093000225,788.9343957999954,789.4196083999705,,,,,,,,,,,,,,,,,,,,,,,789.4224766999832,789.4360964000225,789.4360964000225,789.4360964000225,792.4301883999724,shoe,f,0.8271731999702752,0.15928969997912645,792.4302311000065,792.4302434999845,None,,,,,,,,,,,,,,,00057,001,2026-01-19_11h17.15.155,MST_task,2024.2.0,59.955057688548415,2026-01-19 11h17.30.962254 +0530,
,Objects\291a.jpg,59,0,60,,,,,,,f,1.7241009999997914,0.13478160003433004,None,,,,,,60,0,59,792.4466948999907,,,,,,,,,,,,,,,,,,,,,,,792.4303119999822,792.4466948999907,792.9319131000084,,,,,,,,,,,,,,,,,,,,,,,792.9396478999988,792.9479531999677,792.9479531999677,792.9479531999677,795.9424426999758,shoe,f,1.7241009999997914,0.13478160003433004,795.9424886999768,795.9425012000138,None,,,,,,,,,,,,,,,00057,001,2026-01-19_11h17.15.155,MST_task,2024.2.0,59.955057688548415,2026-01-19 11h17.30.962254 +0530,
,Objects\174a.jpg,60,0,61,,,,,,,f,1.0328706000000238,0.14465349999954924,None,,,,,,61,0,60,795.9589803999988,,,,,,,,,,,,,,,,,,,,,,,795.942587699974,795.9589803999988,796.4441943999846,,,,,,,,,,,,,,,,,,,,,,,796.4606547000003,796.4774243999855,796.4774243999855,796.4774243999855,799.4546962999739,shoe,f,1.0328706000000238,0.14465349999954924,799.4547417999711,799.4547547000111,None,,,,,,,,,,,,,,,00057,001,2026-01-19_11h17.15.155,MST_task,2024.2.0,59.955057688548415,2026-01-19 11h17.30.962254 +0530,
,Objects\031a.jpg,61,0,62,,,,,,,j,0.856574899982661,0.1517512000282295,None,,,,,,62,0,61,799.4712876999984,,,,,,,,,,,,,,,,,,,,,,,799.4548713999684,799.4712876999984,799.9567703999928,,,,,,,,,,,,,,,,,,,,,,,799.9685185999842,799.9902323000133,799.9902323000133,799.9902323000133,802.9674696999718,shoe,j,0.856574899982661,0.1517512000282295,802.9675220000208,802.9675350000034,None,,,,,,,,,,,,,,,00057,001,2026-01-19_11h17.15.155,MST_task,2024.2.0,59.955057688548415,2026-01-19 11h17.30.962254 +0530,
,Objects\358a.jpg,62,0,63,,,,,,,f,1.3600088999955915,0.12905710004270077,None,,,,,,63,0,62,802.984108100005,,,,,,,,,,,,,,,,,,,,,,,802.9679353999672,802.984108100005,803.4686722999904,,,,,,,,,,,,,,,,,,,,,,,803.4778422999661,803.5022898999741,803.5022898999741,803.5022898999741,806.4794653999852,shoe,f,1.3600088999955915,0.12905710004270077,806.4795075000147,806.4795196999912,None,,,,,,,,,,,,,,,00057,001,2026-01-19_11h17.15.155,MST_task,2024.2.0,59.955057688548415,2026-01-19 11h17.30.962254 +0530,
,Objects\259a.jpg,63,0,64,,,,,,,f,2.5536312999902293,0.11999520001700148,None,,,,,,64,0,63,806.4963892999804,,,,,,,,,,,,,,,,,,,,,,,806.4795894999988,806.4963892999804,806.9809163999744,,,,,,,,,,,,,,,,,,,,,,,806.9933549999841,807.0137942999718,807.0137942999718,807.0137942999718,809.9917172999703,indoor,f,2.5536312999902293,0.11999520001700148,809.9932835000218,809.9933028999949,None,,,,,,,,,,,,,,,00057,001,2026-01-19_11h17.15.155,MST_task,2024.2.0,59.955057688548415,2026-01-19 11h17.30.962254 +0530,
,Objects\110a.jpg,64,0,65,,,,,,,j,1.5282729000318795,0.14502850000280887,None,,,,,,65,0,64,810.0083909999812,,,,,,,,,,,,,,,,,,,,,,,809.9933755000238,810.0083909999812,810.4937883999664,,,,,,,,,,,,,,,,,,,,,,,810.5087406000239,810.5266564000049,810.5266564000049,810.5266564000049,813.5043958000024,indoor,j,1.5282729000318795,0.14502850000280887,813.5044492000015,813.5044647000032,None,,,,,810.5266564000049,,,,,,,,,,00057,001,2026-01-19_11h17.15.155,MST_task,2024.2.0,59.955057688548415,2026-01-19 11h17.30.962254 +0530,
,Objects\286a.jpg,65,0,66,,,,,,,f,1.6325743000488728,0.14417319995118305,None,,,,,,66,0,65,813.5209803999751,,,,,,,,,,,,,,,,,,,,,,,813.5045411000028,813.5209803999751,814.005700299982,,,,,,,,,,,,,,,,,,,,,,,814.0115881999955,814.0221882999758,814.0221882999758,814.0221882999758,817.0160630000173,indoor,f,1.6325743000488728,0.14417319995118305,817.0161093000206,817.0161217999994,None,,,,,,,,,,,,,,,00057,001,2026-01-19_11h17.15.155,MST_task,2024.2.0,59.955057688548415,2026-01-19 11h17.30.962254 +0530,
,Objects\327a.jpg,66,0,67,,,,,,,f,2.0632233999785967,0.14429720002226532,None,,,,,,67,0,66,817.0328989999834,,,,,,,,,,,,,,,,,,,,,,,817.0162173999706,817.0328989999834,817.5180007999879,,,,,,,,,,,,,,,,,,,,,,,817.5263274000026,817.5515929000103,817.5515929000103,817.5515929000103,820.528761100024,indoor,f,2.0632233999785967,0.14429720002226532,820.5289389999816,820.5289559999947,None,,,,,,,,,,,,,,,00057,001,2026-01-19_11h17.15.155,MST_task,2024.2.0,59.955057688548415,2026-01-19 11h17.30.962254 +0530,
,Objects\150a.jpg,67,0,68,,,,,,,f,1.8947667000466026,0.15223189996322617,None,,,,,,68,0,67,820.5453024000162,,,,,,,,,,,,,,,,,,,,,,,820.5290307999821,820.5453024000162,821.0304663999705,,,,,,,,,,,,,,,,,,,,,,,821.039383700001,821.0635111000156,821.0635111000156,821.0635111000156,824.0407188999816,indoor,f,1.8947667000466026,0.15223189996322617,824.0407625000225,824.0407749000005,None,,,,,,,,,,,,,,,00057,001,2026-01-19_11h17.15.155,MST_task,2024.2.0,59.955057688548415,2026-01-19 11h17.30.962254 +0530,
,Objects\028a.jpg,68,0,69,,,,,,,f,1.0072707999497652,0.14423400000669062,None,,,,,,69,0,68,824.0574921999942,,,,,,,,,,,,,,,,,,,,,,,824.0411065000226,824.0574921999942,824.5425363999675,,,,,,,,,,,,,,,,,,,,,,,824.552242500009,824.5759389000013,824.5759389000013,824.5759389000013,827.5530909000081,indoor,f,1.0072707999497652,0.14423400000669062,827.5532974000089,827.5533134000143,None,,,,,,,,,,,,,,,00057,001,2026-01-19_11h17.15.155,MST_task,2024.2.0,59.955057688548415,2026-01-19 11h17.30.962254 +0530,
,Objects\346a.jpg,69,0,70,,,,,,,f,1.6228059999994002,0.15131190000101924,None,,,,,,70,0,69,827.5696649000165,,,,,,,,,,,,,,,,,,,,,,,827.5533835999668,827.5696649000165,828.0550013000029,,,,,,,,,,,,,,,,,,,,,,,828.0699489999679,828.088228699984,828.088228699984,828.088228699984,831.0653751000063,indoor,f,1.6228059999994002,0.15131190000101924,831.0654209000058,831.0654333999846,None,,,,,,,,,,,,,,,00057,001,2026-01-19_11h17.15.155,MST_task,2024.2.0,59.955057688548415,2026-01-19 11h17.30.962254 +0530,
,Objects\126a.jpg,70,0,71,,,,,,,j,2.1915859999717213,0.10343529999954626,None,,,,,,71,0,70,831.0821101000183,,,,,,,,,,,,,,,,,,,,,,,831.0655000999686,831.0821101000183,831.5672333000111,,,,,,,,,,,,,,,,,,,,,,,831.5848774000187,831.6005337999668,831.6005337999668,831.6005337999668,834.5776960999938,shoe,j,2.1915859999717213,0.10343529999954626,834.5791939999908,834.5792165999883,None,,,,,,,,,,,,,,,00057,001,2026-01-19_11h17.15.155,MST_task,2024.2.0,59.955057688548415,2026-01-19 11h17.30.962254 +0530,
,Objects\341a.jpg,71,0,72,,,,,,,f,1.3814457999542356,0.1287309000035748,None,,,,,,72,0,71,834.5942738999729,,,,,,,,,,,,,,,,,,,,,,,834.5792944999994,834.5942738999729,835.0800705999718,,,,,,,,,,,,,,,,,,,,,,,835.0901665000129,835.112734299968,835.112734299968,835.112734299968,838.0898456000141,shoe,f,1.3814457999542356,0.1287309000035748,838.0899013999733,838.0899141000118,None,,,,,,,,,,,,,,,00057,001,2026-01-19_11h17.15.155,MST_task,2024.2.0,59.955057688548415,2026-01-19 11h17.30.962254 +0530,
,Objects\145a.jpg,72,0,73,,,,,,,f,1.4629120000172406,0.12671889999182895,None,,,,,,73,0,72,838.106683799997,,,,,,,,,,,,,,,,,,,,,,,838.0899845999666,838.106683799997,838.5924750000122,,,,,,,,,,,,,,,,,,,,,,,838.604553400015,838.6251370999962,838.6251370999962,838.6251370999962,841.6022865999839,shoe,f,1.4629120000172406,0.12671889999182895,841.6023316999781,841.6023443000158,None,,,,,,,,,,,,,,,00057,001,2026-01-19_11h17.15.155,MST_task,2024.2.0,59.955057688548415,2026-01-19 11h17.30.962254 +0530,
,Objects\243a.jpg,73,0,74,,,,,,,f,1.5009801000123844,0.15198829997098073,None,,,,,,74,0,73,841.6188734999741,,,,,,,,,,,,,,,,,,,,,,,841.6024536999757,841.6188734999741,842.1042613000027,,,,,,,,,,,,,,,,,,,,,,,842.1181127000018,842.1373120999779,842.1373120999779,842.1373120999779,845.114494599984,shoe,f,1.5009801000123844,0.15198829997098073,845.1145491999923,845.1145619999734,None,,,,,,,,,,,,,,,00057,001,2026-01-19_11h17.15.155,MST_task,2024.2.0,59.955057688548415,2026-01-19 11h17.30.962254 +0530,
,Objects\198a.jpg,74,0,75,,,,,,,f,1.9573635999695398,0.15159140003379434,None,,,,,,75,0,74,845.1312907999963,,,,,,,,,,,,,,,,,,,,,,,845.114636000013,845.1312907999963,845.6162599999807,,,,,,,,,,,,,,,,,,,,,,,845.6248743999749,845.6498721999815,845.6498721999815,845.6498721999815,848.6270772999851,shoe,f,1.9573635999695398,0.15159140003379434,848.6271223999793,848.6271345000132,None,,,,,,,,,,,,,,,00057,001,2026-01-19_11h17.15.155,MST_task,2024.2.0,59.955057688548415,2026-01-19 11h17.30.962254 +0530,
,Objects\293a.jpg,75,0,76,,,,,,,f,1.0766504000057466,0.13599109998904169,None,,,,,,76,0,75,848.6434622000088,,,,,,,,,,,,,,,,,,,,,,,848.6272036000155,848.6434622000088,849.1293126000091,,,,,,,,,,,,,,,,,,,,,,,849.1434104000218,849.1619078000076,849.1619078000076,849.1619078000076,852.1393653000123,shoe,f,1.0766504000057466,0.13599109998904169,852.1394120000186,852.1394243999966,None,,,,,,,,,,,,,,,00057,001,2026-01-19_11h17.15.155,MST_task,2024.2.0,59.955057688548415,2026-01-19 11h17.30.962254 +0530,
,Objects\144a.jpg,76,0,77,,,,,,,j,1.8841657000011764,0.10471899999538437,None,,,,,,77,0,76,852.1557787000202,,,,,,,,,,,,,,,,,,,,,,,852.1394968000241,852.1557787000202,852.6410232000053,,,,,,,,,,,,,,,,,,,,,,,852.6572345999884,852.6742048999877,852.6742048999877,852.6742048999877,855.6514752000221,shoe,j,1.8841657000011764,0.10471899999538437,855.6515180999995,855.6515559999971,None,,,,,,,,,,,,,,,00057,001,2026-01-19_11h17.15.155,MST_task,2024.2.0,59.955057688548415,2026-01-19 11h17.30.962254 +0530,
,Objects\268a.jpg,77,0,78,,,,,,,f,2.0278198000160046,0.12024299998302013,None,,,,,,78,0,77,855.6682140000048,,,,,,,,,,,,,,,,,,,,,,,855.651673800021,855.6682140000048,856.1531360999797,,,,,,,,,,,,,,,,,,,,,,,856.1681869999738,856.1867512000026,856.1867512000026,856.1867512000026,859.1639242999954,indoor,f,2.0278198000160046,0.12024299998302013,859.1651531999814,859.1651734000188,None,,,,,,,,,,,,,,,00057,001,2026-01-19_11h17.15.155,MST_task,2024.2.0,59.955057688548415,2026-01-19 11h17.30.962254 +0530,
,Objects\345a.jpg,78,0,79,,,,,,,f,1.1156067999545485,0.11991310003213584,None,,,,,,79,0,78,859.1803733999841,,,,,,,,,,,,,,,,,,,,,,,859.165243299969,859.1803733999841,859.6655563999666,,,,,,,,,,,,,,,,,,,,,,,859.6802213999908,859.6987926000147,859.6987926000147,859.6987926000147,862.6759649000014,indoor,f,1.1156067999545485,0.11991310003213584,862.6760098999948,862.6760221999721,None,,,,,,,,,,,,,,,00057,001,2026-01-19_11h17.15.155,MST_task,2024.2.0,59.955057688548415,2026-01-19 11h17.30.962254 +0530,
,Objects\232a.jpg,79,0,80,,,,,,,f,1.4433711000019684,0.12832849996630102,None,,,,,,80,0,79,862.6927862999728,,,,,,,,,,,,,,,,,,,,,,,862.6760923999827,862.6927862999728,863.1777452999959,,,,,,,,,,,,,,,,,,,,,,,863.1924303999986,863.2112268999917,863.2112268999917,863.2112268999917,866.1884007999906,indoor,f,1.4433711000019684,0.12832849996630102,866.1884498000145,866.1884629999986,None,,,,,,,,,,,,,,,00057,001,2026-01-19_11h17.15.155,MST_task,2024.2.0,59.955057688548415,2026-01-19 11h17.30.962254 +0530,
,Objects\171a.jpg,80,0,81,,,,,,,f,1.9154023000155576,0.11991479998687282,None,,,,,,81,0,80,866.2050967999967,,,,,,,,,,,,,,,,,,,,,,,866.1885388999945,866.2050967999967,866.6902015000232,,,,,,,,,,,,,,,,,,,,,,,866.7045447999844,866.7234159000218,866.7234159000218,866.7234159000218,869.7006749999709,indoor,f,1.9154023000155576,0.11991479998687282,869.7007319999975,869.7007625999977,None,,,,,,,,,,,,,,,00057,001,2026-01-19_11h17.15.155,MST_task,2024.2.0,59.955057688548415,2026-01-19 11h17.30.962254 +0530,
,Objects\253a.jpg,81,0,82,,,,,,,f,0.6989777999697253,0.11960269999690354,None,,,,,,82,0,81,869.7172537000151,,,,,,,,,,,,,,,,,,,,,,,869.7008458999917,869.7172537000151,870.2030642000027,,,,,,,,,,,,,,,,,,,,,,,870.212185100012,870.2358272999991,870.2358272999991,870.2358272999991,873.2128583000158,indoor,f,0.6989777999697253,0.11960269999690354,873.2129027000046,873.2129145999788,None,,,,,,,,,,,,,,,00057,001,2026-01-19_11h17.15.155,MST_task,2024.2.0,59.955057688548415,2026-01-19 11h17.30.962254 +0530,
,Objects\315a.jpg,82,0,83,,,,,,,f,2.826913900033105,0.12706379999872297,None,,,,,,83,0,82,873.2296705999761,,,,,,,,,,,,,,,,,,,,,,,873.2132480000146,873.2296705999761,873.7143976999796,,,,,,,,,,,,,,,,,,,,,,,873.7337894000229,873.7482569999993,873.7482569999993,873.7482569999993,876.7253043000237,indoor,f,2.826913900033105,0.12706379999872297,876.7253479000065,876.7253603999852,None,,,,,,,,,,,,,,,00057,001,2026-01-19_11h17.15.155,MST_task,2024.2.0,59.955057688548415,2026-01-19 11h17.30.962254 +0530,
,Objects\375a.jpg,83,0,84,,,,,,,f,1.530354000045918,0.11219349998282269,None,,,,,,84,0,83,876.7418437000015,,,,,,,,,,,,,,,,,,,,,,,876.7254500999697,876.7418437000015,877.2271058000042,,,,,,,,,,,,,,,,,,,,,,,877.2417446000036,877.2602982000099,877.2602982000099,877.2602982000099,880.2383088999777,indoor,f,1.530354000045918,0.11219349998282269,880.238351100008,880.2383633999852,None,,,,,,,,,,,,,,,00057,001,2026-01-19_11h17.15.155,MST_task,2024.2.0,59.955057688548415,2026-01-19 11h17.30.962254 +0530,
,Objects\313a.jpg,84,0,85,,,,,,,None,,,j,2.759788400027901,None,,,,85,0,84,880.2544705999899,,,,,,,,,,,,,,,,,,,,,,,880.2384396999842,880.2544705999899,880.739546399971,,,,,,,,,,,,,,,,,,,,,,,880.7558202000218,880.7728827999672,880.7728827999672,880.7728827999672,883.750053900003,shoe,None,,,883.7516315999674,886.5272756000049,j,883.7666318999836,883.7666318999836,2.759788400027901,None,,,,,,,,,,,00057,001,2026-01-19_11h17.15.155,MST_task,2024.2.0,59.955057688548415,2026-01-19 11h17.30.962254 +0530,
,Objects\022a.jpg,85,0,86,,,,,,,f,1.4729482000111602,0.1282214999664575,None,,,,,,86,0,85,886.5431473000208,,,,,,,,,,,,,,,,,,,,,,,886.5273813999956,886.5431473000208,887.0285117999883,,,,,,,,,,,,,,,,,,,,,,,887.0381835000007,887.061623400019,887.061623400019,887.061623400019,890.0389245999977,shoe,f,1.4729482000111602,0.1282214999664575,890.0389722000109,890.0389850999927,None,,,,,,,,,,,,,,,00057,001,2026-01-19_11h17.15.155,MST_task,2024.2.0,59.955057688548415,2026-01-19 11h17.30.962254 +0530,
,Objects\317a.jpg,86,0,87,,,,,,,j,1.2732673000427894,0.12000519997673109,None,,,,,,87,0,86,890.0555629999726,,,,,,,,,,,,,,,,,,,,,,,890.0390543999965,890.0555629999726,890.5407760000089,,,,,,,,,,,,,,,,,,,,,,,890.5508139000158,890.5740436000051,890.5740436000051,890.5740436000051,893.5513054999756,shoe,j,1.2732673000427894,0.12000519997673109,893.5517671999987,893.5517803999828,None,,,,,,,,,,,,,,,00057,001,2026-01-19_11h17.15.155,MST_task,2024.2.0,59.955057688548415,2026-01-19 11h17.30.962254 +0530,
,Objects\154a.jpg,87,0,88,,,,,,,j,1.2095575999701396,0.11088059999747202,None,,,,,,88,0,87,893.567744,,,,,,,,,,,,,,,,,,,,,,,893.5518911000108,893.567744,894.0529502999852,,,,,,,,,,,,,,,,,,,,,,,894.0624176000129,894.086335,894.086335,894.086335,897.0635389999952,shoe,j,1.2095575999701396,0.11088059999747202,897.063597899978,897.0636098000105,None,,,,,,,,,,,,,,,00057,001,2026-01-19_11h17.15.155,MST_task,2024.2.0,59.955057688548415,2026-01-19 11h17.30.962254 +0530,
,Objects\284a.jpg,88,0,89,,,,,,,f,1.607798199984245,0.11996240000007674,None,,,,,,89,0,88,897.0802896000096,,,,,,,,,,,,,,,,,,,,,,,897.0637308000005,897.0802896000096,897.5651292999974,,,,,,,,,,,,,,,,,,,,,,,897.5797399000148,897.5986187999952,897.5986187999952,897.5986187999952,900.5759484000155,shoe,f,1.607798199984245,0.11996240000007674,900.5759906999883,900.576002900023,None,,,,,,,,,,,,,,,00057,001,2026-01-19_11h17.15.155,MST_task,2024.2.0,59.955057688548415,2026-01-19 11h17.30.962254 +0530,
,Objects\133a.jpg,89,0,90,,,,,,,j,1.8478879000176676,0.10399849998066202,None,,,,,,90,0,89,900.5923401999753,,,,,,,,,,,,,,,,,,,,,,,900.5760701000108,900.5923401999753,901.0778569999966,,,,,,,,,,,,,,,,,,,,,,,901.0953660000232,901.1108122000005,901.1108122000005,901.1108122000005,904.0880558000063,shoe,j,1.8478879000176676,0.10399849998066202,904.0881000999943,904.0881126999739,None,,,,,,,,,,,,,,,00057,001,2026-01-19_11h17.15.155,MST_task,2024.2.0,59.955057688548415,2026-01-19 11h17.30.962254 +0530,
,Objects\368a.jpg,90,0,91,,,,,,,f,0.9039255999960005,0.10360050003509969,None,,,,,,91,0,90,904.1043349999818,,,,,,,,,,,,,,,,,,,,,,,904.0881829999853,904.1043349999818,904.5903223999776,,,,,,,,,,,,,,,,,,,,,,,904.6044215000002,904.6227728999802,904.6227728999802,904.6227728999802,907.5999226999702,shoe,f,0.9039255999960005,0.10360050003509969,907.5999663000111,907.5999784999876,None,,,,,,,,,,,,,,,00057,001,2026-01-19_11h17.15.155,MST_task,2024.2.0,59.955057688548415,2026-01-19 11h17.30.962254 +0530,
,Objects\056a.jpg,91,0,92,,,,,,,f,1.0798975000507198,0.1203893999918364,None,,,,,,92,0,91,907.616758499993,,,,,,,,,,,,,,,,,,,,,,,907.600048399996,907.616758499993,908.1020949999802,,,,,,,,,,,,,,,,,,,,,,,908.1188522999873,908.1352747000055,908.1352747000055,908.1352747000055,911.1124586000224,indoor,f,1.0798975000507198,0.1203893999918364,911.1142446000013,911.1142637999728,None,,,,,,,,,,,,,,,00057,001,2026-01-19_11h17.15.155,MST_task,2024.2.0,59.955057688548415,2026-01-19 11h17.30.962254 +0530,
,Objects\105a.jpg,92,0,93,,,,,,,f,0.9756109999725595,0.13616519997594878,None,,,,,,93,0,92,911.1289338999777,,,,,,,,,,,,,,,,,,,,,,,911.1143460000167,911.1289338999777,911.614473499998,,,,,,,,,,,,,,,,,,,,,,,911.6239375000005,911.6473816999933,911.6473816999933,911.6473816999933,914.6245579000097,indoor,f,0.9756109999725595,0.13616519997594878,914.6246134999674,914.6246269000112,None,,,,,911.6473816999933,,,,,,,,,,00057,001,2026-01-19_11h17.15.155,MST_task,2024.2.0,59.955057688548415,2026-01-19 11h17.30.962254 +0530,
,Objects\148a.jpg,93,0,94,,,,,,,f,2.334338699991349,0.1275012000114657,None,,,,,,94,0,93,914.6413557999767,,,,,,,,,,,,,,,,,,,,,,,914.6246986999759,914.6413557999767,915.126938899979,,,,,,,,,,,,,,,,,,,,,,,915.1364786999766,915.1605450999923,915.1605450999923,915.1605450999923,918.1370711000054,indoor,f,2.334338699991349,0.1275012000114657,918.1371154999943,918.1371285999776,None,,,,,,,,,,,,,,,00057,001,2026-01-19_11h17.15.155,MST_task,2024.2.0,59.955057688548415,2026-01-19 11h17.30.962254 +0530,
,Objects\201a.jpg,94,0,95,,,,,,,f,0.920410799968522,0.1270051000174135,None,,,,,,95,0,94,918.1535428999923,,,,,,,,,,,,,,,,,,,,,,,918.1371999999974,918.1535428999923,918.6390531000216,,,,,,,,,,,,,,,,,,,,,,,918.6468728000182,918.6548589000013,918.6548589000013,918.6548589000013,921.6491031000041,indoor,f,0.920410799968522,0.1270051000174135,921.6491452999762,921.6491574000102,None,,,,,,,,,,,,,,,00057,001,2026-01-19_11h17.15.155,MST_task,2024.2.0,59.955057688548415,2026-01-19 11h17.30.962254 +0530,
,Objects\160a.jpg,95,0,96,,,,,,,j,1.8947943999664858,0.12701060000108555,None,,,,,,96,0,95,921.6660781999817,,,,,,,,,,,,,,,,,,,,,,,921.6492318999954,921.6660781999817,922.1510697000194,,,,,,,,,,,,,,,,,,,,,,,922.1654016000102,922.1844113999978,922.1844113999978,922.1844113999978,925.1615435999702,indoor,j,1.8947943999664858,0.12701060000108555,925.1617524999892,925.1617660999764,None,,,,,,,,,,,,,,,00057,001,2026-01-19_11h17.15.155,MST_task,2024.2.0,59.955057688548415,2026-01-19 11h17.30.962254 +0530,
,Objects\067a.jpg,96,0,97,,,,,,,j,1.4624794000410475,0.10349429998314008,None,,,,,,97,0,96,925.1781223000144,,,,,,,,,,,,,,,,,,,,,,,925.1618367999909,925.1781223000144,925.6634921000223,,,,,,,,,,,,,,,,,,,,,,,925.6727265000227,925.6967348000035,925.6967348000035,925.6967348000035,928.6738662999705,indoor,j,1.4624794000410475,0.10349429998314008,928.6739088000031,928.6739213999826,None,,,,,,,,,,,,,,,00057,001,2026-01-19_11h17.15.155,MST_task,2024.2.0,59.955057688548415,2026-01-19 11h17.30.962254 +0530,
,Objects\191a.jpg,97,0,98,,,,,,,j,1.8300012999679893,0.11955300002591684,None,,,,,,98,0,97,928.6907810000121,,,,,,,,,,,,,,,,,,,,,,,928.674007499998,928.6907810000121,929.175846499973,,,,,,,,,,,,,,,,,,,,,,,929.1855820000055,929.2089793999912,929.2089793999912,929.2089793999912,932.1864710000227,indoor,j,1.8300012999679893,0.11955300002591684,932.1865141000017,932.1865273999865,None,,,,,,,,,,,,,,,00057,001,2026-01-19_11h17.15.155,MST_task,2024.2.0,59.955057688548415,2026-01-19 11h17.30.962254 +0530,
,Objects\106a.jpg,98,0,99,,,,,,,f,1.9984468000475317,0.11037069995654747,None,,,,,,99,0,98,932.2028866999899,,,,,,,,,,,,,,,,,,,,,,,932.1866122999927,932.2028866999899,932.6881052000099,,,,,,,,,,,,,,,,,,,,,,,932.6987848000135,932.7214745999663,932.7214745999663,932.7214745999663,935.6988567999797,shoe,f,1.9984468000475317,0.11037069995654747,935.7006725000101,935.7006918999832,None,,,,,,,,,,,,,,,00057,001,2026-01-19_11h17.15.155,MST_task,2024.2.0,59.955057688548415,2026-01-19 11h17.30.962254 +0530,
,Objects\241a.jpg,99,0,100,,,,,,,f,0.9814752999809571,0.09536189999198541,None,,,,,,100,0,99,935.7157487000222,,,,,,,,,,,,,,,,,,,,,,,935.7008034000173,935.7157487000222,936.2004255999927,,,,,,,,,,,,,,,,,,,,,,,936.2097359999898,936.2337451999774,936.2337451999774,936.2337451999774,939.2107798000216,shoe,f,0.9814752999809571,0.09536189999198541,939.2108212999883,939.2108345999732,None,,,,,936.2337451999774,,,,,,,,,,00057,001,2026-01-19_11h17.15.155,MST_task,2024.2.0,59.955057688548415,2026-01-19 11h17.30.962254 +0530,
,Objects\147a.jpg,100,0,101,,,,,,,f,1.7408689000294544,0.12053109996486455,None,,,,,,101,0,100,939.2276115000132,,,,,,,,,,,,,,,,,,,,,,,939.21090190002,939.2276115000132,939.7129727000138,,,,,,,,,,,,,,,,,,,,,,,939.7223400999792,939.7460560000036,939.7460560000036,939.7460560000036,942.7232502999832,shoe,f,1.7408689000294544,0.12053109996486455,942.7232954999781,942.7233077000128,None,,,,,,,,,,,,,,,00057,001,2026-01-19_11h17.15.155,MST_task,2024.2.0,59.955057688548415,2026-01-19 11h17.30.962254 +0530,
,Objects\263a.jpg,101,0,102,,,,,,,j,2.2520582999568433,0.09592060005525127,None,,,,,,102,0,101,942.7397915999754,,,,,,,,,,,,,,,,,,,,,,,942.7233765000128,942.7397915999754,943.2250080999802,,,,,,,,,,,,,,,,,,,,,,,943.2400647000177,943.2582452999777,943.2582452999777,943.2582452999777,946.235372599971,shoe,j,2.2520582999568433,0.09592060005525127,946.2354154000059,946.2354273999808,None,,,,,,,,,,,,,,,00057,001,2026-01-19_11h17.15.155,MST_task,2024.2.0,59.955057688548415,2026-01-19 11h17.30.962254 +0530,
,Objects\258a.jpg,102,0,103,,,,,,,j,1.5806347000179812,0.11203459999524057,None,,,,,,103,0,102,946.2522060999763,,,,,,,,,,,,,,,,,,,,,,,946.2355319000199,946.2522060999763,946.737213800021,,,,,,,,,,,,,,,,,,,,,,,946.7508716000011,946.7706400000025,946.7706400000025,946.7706400000025,949.7476082000067,shoe,j,1.5806347000179812,0.11203459999524057,949.747663600021,949.7476901999908,None,,,,,,,,,,,,,,,00057,001,2026-01-19_11h17.15.155,MST_task,2024.2.0,59.955057688548415,2026-01-19 11h17.30.962254 +0530,
,Objects\146a.jpg,103,0,104,,,,,,,f,1.2443538999650627,0.11190970003372058,None,,,,,,104,0,103,949.7643311999855,,,,,,,,,,,,,,,,,,,,,,,949.7477615000098,949.7643311999855,950.2494404999889,,,,,,,,,,,,,,,,,,,,,,,950.2651823000051,950.2826484999969,950.2826484999969,950.2826484999969,953.2597821999807,shoe,f,1.2443538999650627,0.11190970003372058,953.2598242000095,953.2598360999837,None,,,,,,,,,,,,,,,00057,001,2026-01-19_11h17.15.155,MST_task,2024.2.0,59.955057688548415,2026-01-19 11h17.30.962254 +0530,
,Objects\354a.jpg,104,0,105,,,,,,,f,2.163656600052491,0.1130972999962978,None,,,,,,105,0,104,953.2766290999716,,,,,,,,,,,,,,,,,,,,,,,953.25990309997,953.2766290999716,953.761613700015,,,,,,,,,,,,,,,,,,,,,,,953.7759933000198,953.7950836999808,953.7950836999808,953.7950836999808,956.7725999999675,shoe,f,2.163656600052491,0.1130972999962978,956.7726455000229,956.7726589000085,None,,,,,,,,,,,,,,,00057,001,2026-01-19_11h17.15.155,MST_task,2024.2.0,59.955057688548415,2026-01-19 11h17.30.962254 +0530,
,Objects\058a.jpg,105,0,106,,,,,,,f,1.706726600008551,0.11222000000998378,None,,,,,,106,0,105,956.7889316999936,,,,,,,,,,,,,,,,,,,,,,,956.7731067999848,956.7889316999936,957.2738989000209,,,,,,,,,,,,,,,,,,,,,,,957.2898754000198,957.3075190000236,957.3075190000236,957.3075190000236,960.2845026999712,indoor,f,1.706726600008551,0.11222000000998378,960.2857753999997,960.2857951999758,None,,,,,,,,,,,,,,,00057,001,2026-01-19_11h17.15.155,MST_task,2024.2.0,59.955057688548415,2026-01-19 11h17.30.962254 +0530,
,Objects\223a.jpg,106,0,107,,,,,,,j,1.5633843000396155,0.11204159999033436,None,,,,,,107,0,106,960.301124199992,,,,,,,,,,,,,,,,,,,,,,,960.2858680000063,960.301124199992,960.7863841999788,,,,,,,,,,,,,,,,,,,,,,,960.7979708000203,960.8195452999789,960.8195452999789,960.8195452999789,963.7966779000126,indoor,j,1.5633843000396155,0.11204159999033436,963.7967325000209,963.7967445999966,None,,,,,,,,,,,,,,,00057,001,2026-01-19_11h17.15.155,MST_task,2024.2.0,59.955057688548415,2026-01-19 11h17.30.962254 +0530,
,Objects\374a.jpg,107,0,108,,,,,,,f,1.2662107000360265,0.1291007999680005,None,,,,,,108,0,107,963.813532900007,,,,,,,,,,,,,,,,,,,,,,,963.7968134999974,963.813532900007,964.2985115000047,,,,,,,,,,,,,,,,,,,,,,,964.3159681999823,964.3319721000153,964.3319721000153,964.3319721000153,967.3095450999681,indoor,f,1.2662107000360265,0.1291007999680005,967.3095978000201,967.309611500008,None,,,,,,,,,,,,,,,00057,001,2026-01-19_11h17.15.155,MST_task,2024.2.0,59.955057688548415,2026-01-19 11h17.30.962254 +0530,
,Objects\274a.jpg,108,0,109,,,,,,,j,1.6983891000272706,0.11166729999240488,None,,,,,,109,0,108,967.3264328999794,,,,,,,,,,,,,,,,,,,,,,,967.3096867999993,967.3264328999794,967.8108637999976,,,,,,,,,,,,,,,,,,,,,,,967.8248172000167,967.8442681999877,967.8442681999877,967.8442681999877,970.8215175999794,indoor,j,1.6983891000272706,0.11166729999240488,970.8215630999766,970.8215754000121,None,,,,,,,,,,,,,,,00057,001,2026-01-19_11h17.15.155,MST_task,2024.2.0,59.955057688548415,2026-01-19 11h17.30.962254 +0530,
,Objects\357a.jpg,109,0,110,,,,,,,f,1.9068870000191964,0.12727619998622686,None,,,,,,110,0,109,970.8380165999988,,,,,,,,,,,,,,,,,,,,,,,970.8216488999897,970.8380165999988,971.323251499969,,,,,,,,,,,,,,,,,,,,,,,971.3325149000157,971.3565711000119,971.3565711000119,971.3565711000119,974.3336915000109,indoor,f,1.9068870000191964,0.12727619998622686,974.3338844999671,974.3339113999973,None,,,,,,,,,,,,,,,00057,001,2026-01-19_11h17.15.155,MST_task,2024.2.0,59.955057688548415,2026-01-19 11h17.30.962254 +0530,
,Objects\082a.jpg,110,0,111,,,,,,,j,1.5209630000172183,0.12146049999864772,None,,,,,,111,0,110,974.3504745999817,,,,,,,,,,,,,,,,,,,,,,,974.3339861999848,974.3504745999817,974.8356616999954,,,,,,,,,,,,,,,,,,,,,,,974.845215999987,974.8693626999739,974.8693626999739,974.8693626999739,977.8461067000171,indoor,j,1.5209630000172183,0.12146049999864772,977.8461485999869,977.8461607000208,None,,,,,,,,,,,,,,,00057,001,2026-01-19_11h17.15.155,MST_task,2024.2.0,59.955057688548415,2026-01-19 11h17.30.962254 +0530,
,Objects\178a.jpg,111,0,112,,,,,,,f,1.1291303999605589,0.12000270001590252,None,,,,,,112,0,111,977.8628903999925,,,,,,,,,,,,,,,,,,,,,,,977.8462280000094,977.8628903999925,978.3479030000162,,,,,,,,,,,,,,,,,,,,,,,978.3574637999991,978.3813347999821,978.3813347999821,978.3813347999821,981.358848200005,indoor,f,1.1291303999605589,0.12000270001590252,981.3589000999928,981.3589153999928,None,,,,,,,,,,,,,,,00057,001,2026-01-19_11h17.15.155,MST_task,2024.2.0,59.955057688548415,2026-01-19 11h17.30.962254 +0530,
,Objects\230a.jpg,112,0,113,,,,,,,j,1.6811032999539748,0.10397640004521236,None,,,,,,113,0,112,981.3754042999935,,,,,,,,,,,,,,,,,,,,,,,981.3590030000196,981.3754042999935,981.8609042000026,,,,,,,,,,,,,,,,,,,,,,,981.8760988999857,981.8935294999974,981.8935294999974,981.8935294999974,984.8706452000188,shoe,j,1.6811032999539748,0.10397640004521236,984.8723669999745,984.8723867000081,None,,,,,,,,,,,,,,,00057,001,2026-01-19_11h17.15.155,MST_task,2024.2.0,59.955057688548415,2026-01-19 11h17.30.962254 +0530,
,Objects\343a.jpg,113,0,114,,,,,,,f,1.49692430003779,0.11971699999412522,None,,,,,,114,0,113,984.8881017999956,,,,,,,,,,,,,,,,,,,,,,,984.8729643999832,984.8881017999956,985.3726158000063,,,,,,,,,,,,,,,,,,,,,,,985.3844829999725,985.40592260001,985.40592260001,985.40592260001,988.3839158000192,shoe,f,1.49692430003779,0.11971699999412522,988.3839861999732,988.3840031999862,None,,,,,985.40592260001,,,,,,,,,,00057,001,2026-01-19_11h17.15.155,MST_task,2024.2.0,59.955057688548415,2026-01-19 11h17.30.962254 +0530,
,Objects\149a.jpg,114,0,115,,,,,,,j,1.4084355999948457,0.12030800001230091,None,,,,,,115,0,114,988.399654000008,,,,,,,,,,,,,,,,,,,,,,,988.3840837000171,988.399654000008,988.8847225999925,,,,,,,,,,,,,,,,,,,,,,,988.8992655000184,988.9179369999911,988.9179369999911,988.9179369999911,991.8952265999978,shoe,j,1.4084355999948457,0.12030800001230091,991.8952687999699,991.8952807000023,None,,,,,,,,,,,,,,,00057,001,2026-01-19_11h17.15.155,MST_task,2024.2.0,59.955057688548415,2026-01-19 11h17.30.962254 +0530,
,Objects\177a.jpg,115,0,116,,,,,,,f,2.168396599998232,0.12765709997620434,None,,,,,,116,0,115,991.9118030999671,,,,,,,,,,,,,,,,,,,,,,,991.8953872999991,991.9118030999671,992.3971466000075,,,,,,,,,,,,,,,,,,,,,,,992.406912299979,992.4303873999743,992.4303873999743,992.4303873999743,995.4073837000178,shoe,f,2.168396599998232,0.12765709997620434,995.4074247999815,995.4074373000185,None,,,,,,,,,,,,,,,00057,001,2026-01-19_11h17.15.155,MST_task,2024.2.0,59.955057688548415,2026-01-19 11h17.30.962254 +0530,
,Objects\226a.jpg,116,0,117,,,,,,,f,1.056752200005576,0.11163749999832362,None,,,,,,117,0,116,995.424217599968,,,,,,,,,,,,,,,,,,,,,,,995.4075405999902,995.424217599968,995.9092102000141,,,,,,,,,,,,,,,,,,,,,,,995.9233588000061,995.9425571999745,995.9425571999745,995.9425571999745,998.9200787000009,shoe,f,1.056752200005576,0.11163749999832362,998.920121299976,998.9201336000115,None,,,,,,,,,,,,,,,00057,001,2026-01-19_11h17.15.155,MST_task,2024.2.0,59.955057688548415,2026-01-19 11h17.30.962254 +0530,
,Objects\155a.jpg,117,0,118,,,,,,,f,1.0474819000228308,0.09595369995804504,None,,,,,,118,0,117,998.9363975999877,,,,,,,,,,,,,,,,,,,,,,,998.9202003999962,998.9363975999877,999.4217775000143,,,,,,,,,,,,,,,,,,,,,,,999.4360682999832,999.4548413999728,999.4548413999728,999.4548413999728,1002.4321427000104,shoe,f,1.0474819000228308,0.09595369995804504,1002.4322007999872,1002.4322141999728,None,,,,,,,,,,,,,,,00057,001,2026-01-19_11h17.15.155,MST_task,2024.2.0,59.955057688548415,2026-01-19 11h17.30.962254 +0530,
,Objects\104a.jpg,118,0,119,,,,,,,f,0.8550260999472812,0.11246450000908226,None,,,,,,119,0,118,1002.4488123999909,,,,,,,,,,,,,,,,,,,,,,,1002.4326001000009,1002.4488123999909,1002.9337786000106,,,,,,,,,,,,,,,,,,,,,,,1002.943006800022,1002.9671824999969,1002.9671824999969,1002.9671824999969,1005.9445774999913,shoe,f,0.8550260999472812,0.11246450000908226,1005.9446207999717,1005.9446335000102,None,,,,,,,,,,,,,,,00057,001,2026-01-19_11h17.15.155,MST_task,2024.2.0,59.955057688548415,2026-01-19 11h17.30.962254 +0530,
,Objects\182a.jpg,119,0,120,,,,,,,f,2.551724499964621,0.11168570001609623,None,,,,,,120,0,119,1005.9609902999946,,,,,,,,,,,,,,,,,,,,,,,1005.9447522999835,1005.9609902999946,1006.4461852000095,,,,,,,,,,,,,,,,,,,,,,,1006.4572407000232,1006.4794321000227,1006.4794321000227,1006.4794321000227,1009.4568357999669,indoor,f,2.551724499964621,0.11168570001609623,1009.4581036000163,1009.4581194000202,None,,,,,,,,,,,,,,,00057,001,2026-01-19_11h17.15.155,MST_task,2024.2.0,59.955057688548415,2026-01-19 11h17.30.962254 +0530,
,Objects\262a.jpg,120,0,121,,,,,,,j,1.4797440000111237,0.15182599995750934,None,,,,,,121,0,120,1009.473286100023,,,,,,,,,,,,,,,,,,,,,,,1009.4581892999704,1009.473286100023,1009.9584952999721,,,,,,,,,,,,,,,,,,,,,,,1009.9719733999809,1009.9917337999796,1009.9917337999796,1009.9917337999796,1012.968862299982,indoor,j,1.4797440000111237,0.15182599995750934,1012.9689043000108,1012.9689290000242,None,,,,,,,,,,,,,,,00057,001,2026-01-19_11h17.15.155,MST_task,2024.2.0,59.955057688548415,2026-01-19 11h17.30.962254 +0530,
,Objects\176a.jpg,121,0,122,,,,,,,j,0.9499534000060521,0.12914219999220222,None,,,,,,122,0,121,1012.9857104999828,,,,,,,,,,,,,,,,,,,,,,,1012.9689974000212,1012.9857104999828,1013.4706839999999,,,,,,,,,,,,,,,,,,,,,,,1013.4853276999784,1013.5042307999684,1013.5042307999684,1013.5042307999684,1016.4813031000085,indoor,j,0.9499534000060521,0.12914219999220222,1016.4816113999696,1016.4816244000103,None,,,,,,,,,,,,,,,00057,001,2026-01-19_11h17.15.155,MST_task,2024.2.0,59.955057688548415,2026-01-19 11h17.30.962254 +0530,
,Objects\261a.jpg,122,0,123,,,,,,,f,1.7265575000201352,0.11940379999577999,None,,,,,,123,0,122,1016.4980067000142,,,,,,,,,,,,,,,,,,,,,,,1016.4816937000141,1016.4980067000142,1016.9833003999665,,,,,,,,,,,,,,,,,,,,,,,1016.9979768000194,1017.0163321999717,1017.0163321999717,1017.0163321999717,1019.993482699967,indoor,f,1.7265575000201352,0.11940379999577999,1019.9935258000041,1019.9935384999844,None,,,,,,,,,,,,,,,00057,001,2026-01-19_11h17.15.155,MST_task,2024.2.0,59.955057688548415,2026-01-19 11h17.30.962254 +0530,
,Objects\249a.jpg,123,0,124,,,,,,,j,1.5976415000041015,0.1359463999979198,None,,,,,,124,0,123,1020.0103068000171,,,,,,,,,,,,,,,,,,,,,,,1019.9936448999797,1020.0103068000171,1020.4952780000167,,,,,,,,,,,,,,,,,,,,,,,1020.5100461000111,1020.5287440000102,1020.5287440000102,1020.5287440000102,1023.5060712000122,indoor,j,1.5976415000041015,0.1359463999979198,1023.5061526999925,1023.5061750999885,None,,,,,,,,,,,,,,,00057,001,2026-01-19_11h17.15.155,MST_task,2024.2.0,59.955057688548415,2026-01-19 11h17.30.962254 +0530,
,Objects\097a.jpg,124,0,125,,,,,,,j,1.2133374999975786,0.11175009998260066,None,,,,,,125,0,124,1023.5226516000112,,,,,,,,,,,,,,,,,,,,,,,1023.5062563999672,1023.5226516000112,1024.0078587000025,,,,,,,,,,,,,,,,,,,,,,,1024.0235587999923,1024.0410836000228,1024.0410836000228,1024.0410836000228,1027.0184537000023,indoor,j,1.2133374999975786,0.11175009998260066,1027.0185066999984,1027.018519299978,None,,,,,,,,,,,,,,,00057,001,2026-01-19_11h17.15.155,MST_task,2024.2.0,59.955057688548415,2026-01-19 11h17.30.962254 +0530,
,Objects\362a.jpg,125,0,126,,,,,,,f,1.0937056000111625,0.1356546999886632,None,,,,,,126,0,125,1027.0349547999795,,,,,,,,,,,,,,,,,,,,,,,1027.0186018999666,1027.0349547999795,1027.5203123000101,,,,,,,,,,,,,,,,,,,,,,,1027.53350640001,1027.5533978000167,1027.5533978000167,1027.5533978000167,1030.53040779999,indoor,f,1.0937056000111625,0.1356546999886632,1030.5304602999822,1030.530473300023,None,,,,,,,,,,,,,,,00057,001,2026-01-19_11h17.15.155,MST_task,2024.2.0,59.955057688548415,2026-01-19 11h17.30.962254 +0530,
,Objects\330a.jpg,126,0,127,,,,,,,j,1.7488745999871753,0.11945310002192855,None,,,,,,127,0,126,1030.5471916000242,,,,,,,,,,,,,,,,,,,,,,,1030.5308340999763,1030.5471916000242,1031.0322979000048,,,,,,,,,,,,,,,,,,,,,,,1031.0501964999712,1031.0657599999686,1031.0657599999686,1031.0657599999686,1034.0427821999765,shoe,j,1.7488745999871753,0.11945310002192855,1034.044537400012,1034.0445542000234,None,,,,,,,,,,,,,,,00057,001,2026-01-19_11h17.15.155,MST_task,2024.2.0,59.955057688548415,2026-01-19 11h17.30.962254 +0530,
,Objects\071a.jpg,127,0,128,,,,,,,f,1.1814267000299878,0.11097199999494478,None,,,,,,128,0,127,1034.059499099967,,,,,,,,,,,,,,,,,,,,,,,1034.0446240999736,1034.059499099967,1034.5447662000079,,,,,,,,,,,,,,,,,,,,,,,1034.5604151000152,1034.5778205000097,1034.5778205000097,1034.5778205000097,1037.5550515999785,shoe,f,1.1814267000299878,0.11097199999494478,1037.5550955000217,1037.555252399994,None,,,,,,,,,,,,,,,00057,001,2026-01-19_11h17.15.155,MST_task,2024.2.0,59.955057688548415,2026-01-19 11h17.30.962254 +0530,
,Objects\030a.jpg,128,0,129,,,,,,,f,1.3007478000363335,0.14332539995666593,None,,,,,,129,0,128,1037.571807099972,,,,,,,,,,,,,,,,,,,,,,,1037.5553747999948,1037.571807099972,1038.0568867999827,,,,,,,,,,,,,,,,,,,,,,,1038.0669585000142,1038.090230199974,1038.090230199974,1038.090230199974,1041.0673307999969,shoe,f,1.3007478000363335,0.14332539995666593,1041.067546700011,1041.0675637999666,None,,,,,,,,,,,,,,,00057,001,2026-01-19_11h17.15.155,MST_task,2024.2.0,59.955057688548415,2026-01-19 11h17.30.962254 +0530,
,Objects\372a.jpg,129,0,130,,,,,,,j,2.5484328999882564,0.09525039995787665,None,,,,,,130,0,129,1041.083973300003,,,,,,,,,,,,,,,,,,,,,,,1041.0676943999715,1041.083973300003,1041.569897599984,,,,,,,,,,,,,,,,,,,,,,,1041.5843561000074,1041.602425899997,1041.602425899997,1041.602425899997,1044.579685900011,shoe,j,2.5484328999882564,0.09525039995787665,1044.5797292999923,1044.579741799971,None,,,,,,,,,,,,,,,00057,001,2026-01-19_11h17.15.155,MST_task,2024.2.0,59.955057688548415,2026-01-19 11h17.30.962254 +0530,
,Objects\057a.jpg,130,0,131,,,,,,,f,1.8614030999597162,0.10224680003011599,None,,,,,,131,0,130,1044.5962819000124,,,,,,,,,,,,,,,,,,,,,,,1044.579859199992,1044.5962819000124,1045.0814957999974,,,,,,,,,,,,,,,,,,,,,,,1045.0963258999982,1045.1147108000005,1045.1147108000005,1045.1147108000005,1048.0918864000123,shoe,f,1.8614030999597162,0.10224680003011599,1048.0919307000004,1048.09194329998,None,,,,,,,,,,,,,,,00057,001,2026-01-19_11h17.15.155,MST_task,2024.2.0,59.955057688548415,2026-01-19 11h17.30.962254 +0530,
,Objects\108a.jpg,131,0,132,,,,,,,j,1.0921500999829732,0.11097320000408217,None,,,,,,132,0,131,1048.108688600012,,,,,,,,,,,,,,,,,,,,,,,1048.0922970999964,1048.108688600012,1048.5936593000079,,,,,,,,,,,,,,,,,,,,,,,1048.6033144000103,1048.6273667999776,1048.6273667999776,1048.6273667999776,1051.604295899975,shoe,j,1.0921500999829732,0.11097320000408217,1051.6043412999716,1051.6043566999724,None,,,,,,,,,,,,,,,00057,001,2026-01-19_11h17.15.155,MST_task,2024.2.0,59.955057688548415,2026-01-19 11h17.30.962254 +0530,
,Objects\159a.jpg,132,0,133,,,,,,,f,0.578397799981758,0.11200369999278337,None,,,,,,133,0,132,1051.6208670000196,,,,,,,,,,,,,,,,,,,,,,,1051.604634599993,1051.6208670000196,1052.1062235999852,,,,,,,,,,,,,,,,,,,,,,,1052.1157693999703,1052.1399897999945,1052.1399897999945,1052.1399897999945,1055.116461800004,shoe,f,0.578397799981758,0.11200369999278337,1055.1165183999692,1055.11653270002,None,,,,,,,,,,,,,,,00057,001,2026-01-19_11h17.15.155,MST_task,2024.2.0,59.955057688548415,2026-01-19 11h17.30.962254 +0530,
,Objects\033a.jpg,133,0,134,,,,,,,f,2.81944430002477,0.11166150000644848,None,,,,,,134,0,133,1055.1334064999828,,,,,,,,,,,,,,,,,,,,,,,1055.1167890999932,1055.1334064999828,1055.6182413999923,,,,,,,,,,,,,,,,,,,,,,,1055.6293555999873,1055.6517305999878,1055.6517305999878,1055.6517305999878,1058.6288716999697,indoor,f,2.81944430002477,0.11166150000644848,1058.6306928999838,1058.6307117000106,None,,,,,,,,,,,,,,,00057,001,2026-01-19_11h17.15.155,MST_task,2024.2.0,59.955057688548415,2026-01-19 11h17.30.962254 +0530,
,Objects\063a.jpg,134,0,135,,,,,,,f,1.5864323999849148,0.10384490003343672,None,,,,,,135,0,134,1058.6454876000062,,,,,,,,,,,,,,,,,,,,,,,1058.6307801000075,1058.6454876000062,1059.130974699976,,,,,,,,,,,,,,,,,,,,,,,1059.1402410999872,1059.164078300004,1059.164078300004,1059.164078300004,1062.1412008000189,indoor,f,1.5864323999849148,0.10384490003343672,1062.1412465000176,1062.1412607000093,None,,,,,1059.164078300004,,,,,,,,,,00057,001,2026-01-19_11h17.15.155,MST_task,2024.2.0,59.955057688548415,2026-01-19 11h17.30.962254 +0530,
,Objects\254a.jpg,135,0,136,,,,,,,j,1.5539690000005066,0.10409939999226481,None,,,,,,136,0,135,1062.1577640000032,,,,,,,,,,,,,,,,,,,,,,,1062.141330500017,1062.1577640000032,1062.6433670999832,,,,,,,,,,,,,,,,,,,,,,,1062.6579380999901,1062.6762039000168,1062.6762039000168,1062.6762039000168,1065.6535155000165,indoor,j,1.5539690000005066,0.10409939999226481,1065.6535584999947,1065.653570799972,None,,,,,,,,,,,,,,,00057,001,2026-01-19_11h17.15.155,MST_task,2024.2.0,59.955057688548415,2026-01-19 11h17.30.962254 +0530,
,Objects\026a.jpg,136,0,137,,,,,,,f,1.5697733999695629,0.12122770003043115,None,,,,,,137,0,136,1065.6703575999709,,,,,,,,,,,,,,,,,,,,,,,1065.6536417999887,1065.6703575999709,1066.155334900017,,,,,,,,,,,,,,,,,,,,,,,1066.169669099967,1066.1887999000028,1066.1887999000028,1066.1887999000028,1069.1660305999685,indoor,f,1.5697733999695629,0.12122770003043115,1069.166114499967,1069.1661423000041,None,,,,,,,,,,,,,,,00057,001,2026-01-19_11h17.15.155,MST_task,2024.2.0,59.955057688548415,2026-01-19 11h17.30.962254 +0530,
,Objects\102a.jpg,137,0,138,,,,,,,f,2.290071199997328,0.1190414999728091,None,,,,,,138,0,137,1069.182526999968,,,,,,,,,,,,,,,,,,,,,,,1069.1662276000134,1069.182526999968,1069.6678253000136,,,,,,,,,,,,,,,,,,,,,,,1069.6777909999946,1069.7010892999824,1069.7010892999824,1069.7010892999824,1072.6781316999695,indoor,f,2.290071199997328,0.1190414999728091,1072.678187099984,1072.678199600021,None,,,,,,,,,,,,,,,00057,001,2026-01-19_11h17.15.155,MST_task,2024.2.0,59.955057688548415,2026-01-19 11h17.30.962254 +0530,
,Objects\298a.jpg,138,0,139,,,,,,,j,1.738390900020022,0.1113605999853462,None,,,,,,139,0,138,1072.6947837999905,,,,,,,,,,,,,,,,,,,,,,,1072.67841459997,1072.6947837999905,1073.1797854999895,,,,,,,,,,,,,,,,,,,,,,,1073.189851299976,1073.2132202999783,1073.2132202999783,1073.2132202999783,1076.1903628999717,indoor,j,1.738390900020022,0.1113605999853462,1076.190427499998,1076.1904435000033,None,,,,,,,,,,,,,,,00057,001,2026-01-19_11h17.15.155,MST_task,2024.2.0,59.955057688548415,2026-01-19 11h17.30.962254 +0530,
,Objects\019a.jpg,139,0,140,,,,,,,f,1.8017880000406876,0.11153459997149184,None,,,,,,140,0,139,1076.2069735999685,,,,,,,,,,,,,,,,,,,,,,,1076.190535200003,1076.2069735999685,1076.6923653999693,,,,,,,,,,,,,,,,,,,,,,,1076.702515700017,1076.7253896999755,1076.7253896999755,1076.7253896999755,1079.7027168999775,indoor,f,1.8017880000406876,0.11153459997149184,1079.702760300017,1079.7027728999965,None,,,,,,,,,,,,,,,00057,001,2026-01-19_11h17.15.155,MST_task,2024.2.0,59.955057688548415,2026-01-19 11h17.30.962254 +0530,
,Objects\025a.jpg,140,0,141,,,,,,,None,,,f,2.38364770001499,None,,,,141,0,140,1079.7192690999946,,,,,,,,,,,,,,,,,,,,,,,1079.70288539998,1079.7192690999946,1080.2045653000241,,,,,,,,,,,,,,,,,,,,,,,1080.2156028000172,1080.2377000999986,1080.2377000999986,1080.2377000999986,1083.2148630999727,shoe,None,,,1083.2163588000112,1085.62420630001,f,1083.2316702000098,1083.2316702000098,2.38364770001499,None,,,,,,,,,,,00057,001,2026-01-19_11h17.15.155,MST_task,2024.2.0,59.955057688548415,2026-01-19 11h17.30.962254 +0530,
,Objects\252a.jpg,141,0,142,,,,,,,f,1.232340800052043,0.11235039995517582,None,,,,,,142,0,141,1085.6402637999854,,,,,,,,,,,,,,,,,,,,,,,1085.6243497999967,1085.6402637999854,1086.125126799976,,,,,,,,,,,,,,,,,,,,,,,1086.1363722999813,1086.1588047000114,1086.1588047000114,1086.1588047000114,1089.1357136999723,shoe,f,1.232340800052043,0.11235039995517582,1089.1357553999987,1089.1357718000072,None,,,,,,,,,,,,,,,00057,001,2026-01-19_11h17.15.155,MST_task,2024.2.0,59.955057688548415,2026-01-19 11h17.30.962254 +0530,
,Objects\052a.jpg,142,0,143,,,,,,,f,1.3846018000040203,0.1200290999840945,None,,,,,,143,0,142,1089.1524013999733,,,,,,,,,,,,,,,,,,,,,,,1089.1358414000133,1089.1524013999733,1089.637935900013,,,,,,,,,,,,,,,,,,,,,,,1089.6471344999736,1089.6707348999917,1089.6707348999917,1089.6707348999917,1092.647896200011,shoe,f,1.3846018000040203,0.1200290999840945,1092.6479395999922,1092.6479519999702,None,,,,,,,,,,,,,,,00057,001,2026-01-19_11h17.15.155,MST_task,2024.2.0,59.955057688548415,2026-01-19 11h17.30.962254 +0530,
,Objects\007a.jpg,143,0,144,,,,,,,j,1.5033393999910913,0.1119990999577567,None,,,,,,144,0,143,1092.6647079999675,,,,,,,,,,,,,,,,,,,,,,,1092.6480196000193,1092.6647079999675,1093.1496782000177,,,,,,,,,,,,,,,,,,,,,,,1093.1592761999927,1093.183157099993,1093.183157099993,1093.183157099993,1096.1605027000187,shoe,j,1.5033393999910913,0.1119990999577567,1096.1605633000145,1096.1605770000024,None,,,,,,,,,,,,,,,00057,001,2026-01-19_11h17.15.155,MST_task,2024.2.0,59.955057688548415,2026-01-19 11h17.30.962254 +0530,
,Objects\180a.jpg,144,0,145,,,,,,,f,0.7510568999568932,0.11965370003599674,None,,,,,,145,0,144,1096.177177399979,,,,,,,,,,,,,,,,,,,,,,,1096.1606486000237,1096.177177399979,1096.6623408999876,,,,,,,,,,,,,,,,,,,,,,,1096.6723927999847,1096.6954926999751,1096.6954926999751,1096.6954926999751,1099.6725099000032,shoe,f,0.7510568999568932,0.11965370003599674,1099.672556400008,1099.6725690999883,None,,,,,,,,,,,,,,,00057,001,2026-01-19_11h17.15.155,MST_task,2024.2.0,59.955057688548415,2026-01-19 11h17.30.962254 +0530,
,Objects\279a.jpg,145,0,146,,,,,,,f,1.8386306000174955,0.10418709996156394,None,,,,,,146,0,145,1099.689427300007,,,,,,,,,,,,,,,,,,,,,,,1099.6726391999982,1099.689427300007,1100.1742589999922,,,,,,,,,,,,,,,,,,,,,,,1100.18348170002,1100.2077555999858,1100.2077555999858,1100.2077555999858,1103.1848810000229,shoe,f,1.8386306000174955,0.10418709996156394,1103.1850718000205,1103.1850859000115,None,,,,,,,,,,,,,,,00057,001,2026-01-19_11h17.15.155,MST_task,2024.2.0,59.955057688548415,2026-01-19 11h17.30.962254 +0530,
,Objects\245a.jpg,146,0,147,,,,,,,f,2.1671432000002824,0.11918350000632927,None,,,,,,147,0,146,1103.201484899968,,,,,,,,,,,,,,,,,,,,,,,1103.185157299973,1103.201484899968,1103.6868295000168,,,,,,,,,,,,,,,,,,,,,,,1103.69675990002,1103.7199303000234,1103.7199303000234,1103.7199303000234,1106.6971179000102,shoe,f,2.1671432000002824,0.11918350000632927,1106.6971707000048,1106.6971839999896,None,,,,,,,,,,,,,,,00057,001,2026-01-19_11h17.15.155,MST_task,2024.2.0,59.955057688548415,2026-01-19 11h17.30.962254 +0530,
,Objects\221a.jpg,147,0,148,,,,,,,j,2.470651700044982,0.11170749994926155,None,,,,,,148,0,147,1106.7144981999882,,,,,,,,,,,,,,,,,,,,,,,1106.6975164000178,1106.7144981999882,1107.1990058000083,,,,,,,,,,,,,,,,,,,,,,,1107.21709489997,1107.2323506000102,1107.2323506000102,1107.2323506000102,1110.2094787000096,indoor,j,2.470651700044982,0.11170749994926155,1110.211371399986,1110.2113908000174,None,,,,,,,,,,,,,,,00057,001,2026-01-19_11h17.15.155,MST_task,2024.2.0,59.955057688548415,2026-01-19 11h17.30.962254 +0530,
,Objects\029a.jpg,148,0,149,,,,,,,f,1.1659466000273824,0.1365601000143215,None,,,,,,149,0,148,1110.2261917999713,,,,,,,,,,,,,,,,,,,,,,,1110.2114618999767,1110.2261917999713,1110.7116696999874,,,,,,,,,,,,,,,,,,,,,,,1110.726205700019,1110.7445296000224,1110.7445296000224,1110.7445296000224,1113.7216838999884,indoor,f,1.1659466000273824,0.1365601000143215,1113.7217272999696,1113.721741300018,None,,,,,1110.7445296000224,,,,,,,,,,00057,001,2026-01-19_11h17.15.155,MST_task,2024.2.0,59.955057688548415,2026-01-19 11h17.30.962254 +0530,
,Objects\038a.jpg,149,0,150,,,,,,,f,1.5493904000031762,0.11272769997594878,None,,,,,,150,0,149,1113.7383824000135,,,,,,,,,,,,,,,,,,,,,,,1113.7218102000188,1113.7383824000135,1114.2237683999701,,,,,,,,,,,,,,,,,,,,,,,1114.232879200019,1114.2568256999948,1114.2568256999948,1114.2568256999948,1117.2339632000076,indoor,f,1.5493904000031762,0.11272769997594878,1117.2340191999683,1117.2340315000038,None,,,,,,,,,,,,,,,00057,001,2026-01-19_11h17.15.155,MST_task,2024.2.0,59.955057688548415,2026-01-19 11h17.30.962254 +0530,
,Objects\024a.jpg,150,0,151,,,,,,,f,0.9497679999913089,0.12001020001480356,None,,,,,,151,0,150,1117.2507992999745,,,,,,,,,,,,,,,,,,,,,,,1117.2340990999946,1117.2507992999745,1117.7357163999695,,,,,,,,,,,,,,,,,,,,,,,1117.74584519997,1117.7692476999946,1117.7692476999946,1117.7692476999946,1120.7464924000087,indoor,f,0.9497679999913089,0.12001020001480356,1120.7465360999922,1120.7465477000223,None,,,,,,,,,,,,,,,00057,001,2026-01-19_11h17.15.155,MST_task,2024.2.0,59.955057688548415,2026-01-19 11h17.30.962254 +0530,
,Objects\310a.jpg,151,0,152,,,,,,,j,2.0851940999855287,0.12027429998852313,None,,,,,,152,0,151,1120.7629695999785,,,,,,,,,,,,,,,,,,,,,,,1120.7466229000129,1120.7629695999785,1121.2483047000133,,,,,,,,,,,,,,,,,,,,,,,1121.262629600009,1121.2815470999922,1121.2815470999922,1121.2815470999922,1124.2585533999954,indoor,j,2.0851940999855287,0.12027429998852313,1124.2586090000113,1124.2586226999993,None,,,,,,,,,,,,,,,00057,001,2026-01-19_11h17.15.155,MST_task,2024.2.0,59.955057688548415,2026-01-19 11h17.30.962254 +0530,
,Objects\109a.jpg,152,0,153,,,,,,,j,2.6209098999970593,0.09607089997734874,None,,,,,,153,0,152,1124.2754072999815,,,,,,,,,,,,,,,,,,,,,,,1124.2586910999962,1124.2754072999815,1124.7603747000103,,,,,,,,,,,,,,,,,,,,,,,1124.7753008999862,1124.793799999985,1124.793799999985,1124.793799999985,1127.7709730999777,indoor,j,2.6209098999970593,0.09607089997734874,1127.7716737000155,1127.7717300999793,None,,,,,,,,,,,,,,,00057,001,2026-01-19_11h17.15.155,MST_task,2024.2.0,59.955057688548415,2026-01-19 11h17.30.962254 +0530,
,Objects\087a.jpg,153,0,154,,,,,,,j,1.9732956999796443,0.10364500002469867,None,,,,,,154,0,153,1127.7875708999927,,,,,,,,,,,,,,,,,,,,,,,1127.7719591999776,1127.7875708999927,1128.2727685999707,,,,,,,,,,,,,,,,,,,,,,,1128.2823054000037,1128.3060185000068,1128.3060185000068,1128.3060185000068,1131.283471999981,indoor,j,1.9732956999796443,0.10364500002469867,1131.2835153000196,1131.2835277999984,None,,,,,,,,,,,,,,,00057,001,2026-01-19_11h17.15.155,MST_task,2024.2.0,59.955057688548415,2026-01-19 11h17.30.962254 +0530,
,Objects\008a.jpg,154,0,155,,,,,,,f,1.6285658999695443,0.11262320005334914,None,,,,,,155,0,154,1131.2998693999834,,,,,,,,,,,,,,,,,,,,,,,1131.2835960999946,1131.2998693999834,1131.78507480002,,,,,,,,,,,,,,,,,,,,,,,1131.7964305999922,1131.8183069999795,1131.8183069999795,1131.8183069999795,1134.7956326999702,shoe,f,1.6285658999695443,0.11262320005334914,1134.7971462999703,1134.7971647999948,None,,,,,,,,,,,,,,,00057,001,2026-01-19_11h17.15.155,MST_task,2024.2.0,59.955057688548415,2026-01-19 11h17.30.962254 +0530,
,Objects\250a.jpg,155,0,156,,,,,,,f,1.1074368999688886,0.0968826999887824,None,,,,,,156,0,155,1134.8124713000143,,,,,,,,,,,,,,,,,,,,,,,1134.797298999969,1134.8124713000143,1135.2978011000087,,,,,,,,,,,,,,,,,,,,,,,1135.3112411000184,1135.3307195000234,1135.3307195000234,1135.3307195000234,1138.30788019998,shoe,f,1.1074368999688886,0.0968826999887824,1138.307922500011,1138.3079359999974,None,,,,,1135.3307195000234,,,,,,,,,,00057,001,2026-01-19_11h17.15.155,MST_task,2024.2.0,59.955057688548415,2026-01-19 11h17.30.962254 +0530,
,Objects\036a.jpg,156,0,157,,,,,,,f,1.1633304999559186,0.09620120003819466,None,,,,,,157,0,156,1138.3244765999843,,,,,,,,,,,,,,,,,,,,,,,1138.3080301000155,1138.3244765999843,1138.809686499997,,,,,,,,,,,,,,,,,,,,,,,1138.8250400999677,1138.8429129999713,1138.8429129999713,1138.8429129999713,1141.8201127999928,shoe,f,1.1633304999559186,0.09620120003819466,1141.8201638999744,1141.8201773000183,None,,,,,,,,,,,,,,,00057,001,2026-01-19_11h17.15.155,MST_task,2024.2.0,59.955057688548415,2026-01-19 11h17.30.962254 +0530,
,Objects\380a.jpg,157,0,158,,,,,,,f,2.2594964999589138,0.11237660003826022,None,,,,,,158,0,157,1141.836884199991,,,,,,,,,,,,,,,,,,,,,,,1141.8202534000156,1141.836884199991,1142.3218467999832,,,,,,,,,,,,,,,,,,,,,,,1142.3312538000173,1142.3554547000094,1142.3554547000094,1142.3554547000094,1145.3326110999915,shoe,f,2.2594964999589138,0.11237660003826022,1145.3326535000233,1145.332665599999,None,,,,,,,,,,,,,,,00057,001,2026-01-19_11h17.15.155,MST_task,2024.2.0,59.955057688548415,2026-01-19 11h17.30.962254 +0530,
,Objects\161a.jpg,158,0,159,,,,,,,f,1.5070283999666572,0.08802000002469867,None,,,,,,159,0,158,1145.349085599999,,,,,,,,,,,,,,,,,,,,,,,1145.332736500015,1145.349085599999,1145.8344918999937,,,,,,,,,,,,,,,,,,,,,,,1145.8452220999752,1145.8675109000178,1145.8675109000178,1145.8675109000178,1148.8448377000168,shoe,f,1.5070283999666572,0.08802000002469867,1148.8448854999733,1148.8448986000149,None,,,,,,,,,,,,,,,00057,001,2026-01-19_11h17.15.155,MST_task,2024.2.0,59.955057688548415,2026-01-19 11h17.30.962254 +0530,
,Objects\350a.jpg,159,0,160,,,,,,,f,2.563716599950567,0.10321310005383566,None,,,,,,160,0,159,1148.86165169999,,,,,,,,,,,,,,,,,,,,,,,1148.8449716999894,1148.86165169999,1149.346569299989,,,,,,,,,,,,,,,,,,,,,,,1149.3616833999986,1149.380014800001,1149.380014800001,1149.380014800001,1152.3569725999841,shoe,f,2.563716599950567,0.10321310005383566,1152.3570148000144,1152.3570271999924,None,,,,,,,,,,,,,,,00057,001,2026-01-19_11h17.15.155,MST_task,2024.2.0,59.955057688548415,2026-01-19 11h17.30.962254 +0530,
,Objects\051a.jpg,160,0,161,,,,,,,f,1.554387999989558,0.10429499996826053,None,,,,,,161,0,160,1152.373782199982,,,,,,,,,,,,,,,,,,,,,,,1152.3573600000236,1152.373782199982,1152.859368800011,,,,,,,,,,,,,,,,,,,,,,,1152.8753927000216,1152.8922263999702,1152.8922263999702,1152.8922263999702,1155.8694044000003,shoe,f,1.554387999989558,0.10429499996826053,1155.8694462999701,1155.869458400004,None,,,,,,,,,,,,,,,00057,001,2026-01-19_11h17.15.155,MST_task,2024.2.0,59.955057688548415,2026-01-19 11h17.30.962254 +0530,
,Objects\359a.jpg,161,0,162,,,,,,,f,1.8752166000194848,0.11045249999733642,None,,,,,,162,0,161,1155.885972799966,,,,,,,,,,,,,,,,,,,,,,,1155.8695420000004,1155.885972799966,1156.3711976999766,,,,,,,,,,,,,,,,,,,,,,,1156.3875528000062,1156.4043983999873,1156.4043983999873,1156.4043983999873,1159.3815441000042,indoor,f,1.8752166000194848,0.11045249999733642,1159.3830720999977,1159.3830904000206,None,,,,,,,,,,,,,,,00057,001,2026-01-19_11h17.15.155,MST_task,2024.2.0,59.955057688548415,2026-01-19 11h17.30.962254 +0530,
,Objects\093a.jpg,162,0,163,,,,,,,j,1.2258914000121877,0.09570820000953972,None,,,,,,163,0,162,1159.3985177999712,,,,,,,,,,,,,,,,,,,,,,,1159.38316149998,1159.3985177999712,1159.8833393999957,,,,,,,,,,,,,,,,,,,,,,,1159.8980659000226,1159.9168264999753,1159.9168264999753,1159.9168264999753,1162.8939905000152,indoor,j,1.2258914000121877,0.09570820000953972,1162.8943234999897,1162.8943359999685,None,,,,,,,,,,,,,,,00057,001,2026-01-19_11h17.15.155,MST_task,2024.2.0,59.955057688548415,2026-01-19 11h17.30.962254 +0530,
,Objects\094a.jpg,163,0,164,,,,,,,f,1.5213801000500098,0.1122719999984838,None,,,,,,164,0,163,1162.9105498999706,,,,,,,,,,,,,,,,,,,,,,,1162.8944050999708,1162.9105498999706,1163.3957547000027,,,,,,,,,,,,,,,,,,,,,,,1163.405662300007,1163.4289874000242,1163.4289874000242,1163.4289874000242,1166.4063438000157,indoor,f,1.5213801000500098,0.1122719999984838,1166.4063862999901,1166.4063987999689,None,,,,,,,,,,,,,,,00057,001,2026-01-19_11h17.15.155,MST_task,2024.2.0,59.955057688548415,2026-01-19 11h17.30.962254 +0530,
,Objects\231a.jpg,164,0,165,,,,,,,j,0.9126993000390939,0.10443629999645054,None,,,,,,165,0,164,1166.4229744999902,,,,,,,,,,,,,,,,,,,,,,,1166.4064669000218,1166.4229744999902,1166.9080624000053,,,,,,,,,,,,,,,,,,,,,,,1166.9215749999858,1166.9413755999994,1166.9413755999994,1166.9413755999994,1169.9184812000021,indoor,j,0.9126993000390939,0.10443629999645054,1169.9185380999697,1169.9185503000044,None,,,,,,,,,,,,,,,00057,001,2026-01-19_11h17.15.155,MST_task,2024.2.0,59.955057688548415,2026-01-19 11h17.30.962254 +0530,
,Objects\276a.jpg,165,0,166,,,,,,,j,1.3131242999807,0.09525409998605028,None,,,,,,166,0,165,1169.935273399984,,,,,,,,,,,,,,,,,,,,,,,1169.9189005999942,1169.935273399984,1170.4202607999905,,,,,,,,,,,,,,,,,,,,,,,1170.4353020999697,1170.4537898999988,1170.4537898999988,1170.4537898999988,1173.4308678000234,indoor,j,1.3131242999807,0.09525409998605028,1173.4309108000016,1173.4309232999803,None,,,,,,,,,,,,,,,00057,001,2026-01-19_11h17.15.155,MST_task,2024.2.0,59.955057688548415,2026-01-19 11h17.30.962254 +0530,
,Objects\367a.jpg,166,0,167,,,,,,,f,1.0490123000345193,0.111589299980551,None,,,,,,167,0,166,1173.4474461000063,,,,,,,,,,,,,,,,,,,,,,,1173.4309918999788,1173.4474461000063,1173.9326732999762,,,,,,,,,,,,,,,,,,,,,,,1173.9460339000216,1173.9659019999672,1173.9659019999672,1173.9659019999672,1176.9430373000214,indoor,f,1.0490123000345193,0.111589299980551,1176.9430940999882,1176.9431070999708,None,,,,,,,,,,,,,,,00057,001,2026-01-19_11h17.15.155,MST_task,2024.2.0,59.955057688548415,2026-01-19 11h17.30.962254 +0530,
,Objects\049a.jpg,167,0,168,,,,,,,f,2.5595011999830604,0.12024290004046634,None,,,,,,168,0,167,1176.9598791999742,,,,,,,,,,,,,,,,,,,,,,,1176.9433236999903,1176.9598791999742,1177.4446283999714,,,,,,,,,,,,,,,,,,,,,,,1177.4596515999874,1177.4786839999724,1177.4786839999724,1177.4786839999724,1180.455786000006,indoor,f,2.5595011999830604,0.12024290004046634,1180.4561197999865,1180.4561329999706,None,,,,,,,,,,,,,,,00057,001,2026-01-19_11h17.15.155,MST_task,2024.2.0,59.955057688548415,2026-01-19 11h17.30.962254 +0530,
,Objects\112a.jpg,168,0,169,,,,,,,f,1.591616400051862,0.1199911999865435,None,,,,,,169,0,168,1180.4720524000004,,,,,,,,,,,,,,,,,,,,,,,1180.4562068000087,1180.4720524000004,1180.957242399978,,,,,,,,,,,,,,,,,,,,,,,1180.9682800999726,1180.9904983000015,1180.9904983000015,1180.9904983000015,1183.9679531999864,shoe,f,1.591616400051862,0.1199911999865435,1183.9699783999822,1183.9699992999667,None,,,,,,,,,,,,,,,00057,001,2026-01-19_11h17.15.155,MST_task,2024.2.0,59.955057688548415,2026-01-19 11h17.30.962254 +0530,
,Objects\287a.jpg,169,0,170,,,,,,,f,1.3678331999690272,0.1115105000208132,None,,,,,,170,0,169,1183.9843617000151,,,,,,,,,,,,,,,,,,,,,,,1183.9700793999946,1183.9843617000151,1184.469776700018,,,,,,,,,,,,,,,,,,,,,,,1184.4840451999917,1184.5029111999902,1184.5029111999902,1184.5029111999902,1187.4799452999723,shoe,f,1.3678331999690272,0.1115105000208132,1187.4799877000041,1187.4800011999905,None,,,,,1184.5029111999902,,,,,,,,,,00057,001,2026-01-19_11h17.15.155,MST_task,2024.2.0,59.955057688548415,2026-01-19 11h17.30.962254 +0530,
,Objects\186a.jpg,170,0,171,,,,,,,f,0.9510978999896906,0.12020860001211986,None,,,,,,171,0,170,1187.4967871999834,,,,,,,,,,,,,,,,,,,,,,,1187.4800932999933,1187.4967871999834,1187.9817455000011,,,,,,,,,,,,,,,,,,,,,,,1187.9976762000006,1188.0152075000224,1188.0152075000224,1188.0152075000224,1190.992350800021,shoe,f,0.9510978999896906,0.12020860001211986,1190.9925678999862,1190.9925813999726,None,,,,,,,,,,,,,,,00057,001,2026-01-19_11h17.15.155,MST_task,2024.2.0,59.955057688548415,2026-01-19 11h17.30.962254 +0530,
,Objects\289a.jpg,171,0,172,,,,,,,f,1.8245393999968655,0.09432989999186248,None,,,,,,172,0,171,1191.0089389000204,,,,,,,,,,,,,,,,,,,,,,,1190.9926509999787,1191.0089389000204,1191.494159599999,,,,,,,,,,,,,,,,,,,,,,,1191.5102225000155,1191.5273958999896,1191.5273958999896,1191.5273958999896,1194.5047418000177,shoe,f,1.8245393999968655,0.09432989999186248,1194.5047862000065,1194.5047985999845,None,,,,,,,,,,,,,,,00057,001,2026-01-19_11h17.15.155,MST_task,2024.2.0,59.955057688548415,2026-01-19 11h17.30.962254 +0530,
,Objects\281a.jpg,172,0,173,,,,,,,f,1.159182800038252,0.11231619998579845,None,,,,,,173,0,172,1194.5213595000096,,,,,,,,,,,,,,,,,,,,,,,1194.5048678999883,1194.5213595000096,1195.006435999996,,,,,,,,,,,,,,,,,,,,,,,1195.020936099987,1195.039797400008,1195.039797400008,1195.039797400008,1198.0172884999774,shoe,f,1.159182800038252,0.11231619998579845,1198.0173337999731,1198.017346800014,None,,,,,,,,,,,,,,,00057,001,2026-01-19_11h17.15.155,MST_task,2024.2.0,59.955057688548415,2026-01-19 11h17.30.962254 +0530,
,Objects\043a.jpg,173,0,174,,,,,,,None,,,f,1.1325049999868497,None,,,,174,0,173,1198.0335504999966,,,,,,,,,,,,,,,,,,,,,,,1198.0174184999778,1198.0335504999966,1198.5188515000045,,,,,,,,,,,,,,,,,,,,,,,1198.534603499982,1198.5519882999943,1198.5519882999943,1198.5519882999943,1201.529253399989,shoe,None,,,1201.5294504999765,1202.6838484000182,f,1201.5460910999682,1201.5460910999682,1.1325049999868497,None,,,,,,,,,,,00057,001,2026-01-19_11h17.15.155,MST_task,2024.2.0,59.955057688548415,2026-01-19 11h17.30.962254 +0530,
,Objects\229a.jpg,174,0,175,,,,,,,f,0.9485615000012331,0.09603570000035688,None,,,,,,175,0,174,1202.7000862999703,,,,,,,,,,,,,,,,,,,,,,,1202.6839376999997,1202.7000862999703,1203.1849755999865,,,,,,,,,,,,,,,,,,,,,,,1203.2003650999977,1203.2184493999812,1203.2184493999812,1203.2184493999812,1206.195724099991,shoe,f,0.9485615000012331,0.09603570000035688,1206.195770099992,1206.1957826999715,None,,,,,,,,,,,,,,,00057,001,2026-01-19_11h17.15.155,MST_task,2024.2.0,59.955057688548415,2026-01-19 11h17.30.962254 +0530,
,Objects\122a.jpg,175,0,176,,,,,,,f,2.2122773999581113,0.11152350000338629,None,,,,,,176,0,175,1206.2123040999868,,,,,,,,,,,,,,,,,,,,,,,1206.1958568000118,1206.2123040999868,1206.6974071000004,,,,,,,,,,,,,,,,,,,,,,,1206.7158268999774,1206.7306384000112,1206.7306384000112,1206.7306384000112,1209.7079297999735,indoor,f,2.2122773999581113,0.11152350000338629,1209.7098570999806,1209.709875200002,None,,,,,,,,,,,,,,,00057,001,2026-01-19_11h17.15.155,MST_task,2024.2.0,59.955057688548415,2026-01-19 11h17.30.962254 +0530,
,Objects\081a.jpg,176,0,177,,,,,,,j,1.0919552000123076,0.12793829996371642,None,,,,,,177,0,176,1209.7245960999862,,,,,,,,,,,,,,,,,,,,,,,1209.7099450000096,1209.7245960999862,1210.2101862999843,,,,,,,,,,,,,,,,,,,,,,,1210.2196568999789,1210.2430580999935,1210.2430580999935,1210.2430580999935,1213.2203954000142,indoor,j,1.0919552000123076,0.12793829996371642,1213.2204508999712,1213.2204653000226,None,,,,,1210.2430580999935,,,,,,,,,,00057,001,2026-01-19_11h17.15.155,MST_task,2024.2.0,59.955057688548415,2026-01-19 11h17.30.962254 +0530,
,Objects\117a.jpg,177,0,178,,,,,,,j,2.1714501999667846,0.128023800032679,None,,,,,,178,0,177,1213.2378416999709,,,,,,,,,,,,,,,,,,,,,,,1213.2205345999682,1213.2378416999709,1213.7228219999815,,,,,,,,,,,,,,,,,,,,,,,1213.73245760001,1213.7553905000095,1213.7553905000095,1213.7553905000095,1216.7325314999907,indoor,j,2.1714501999667846,0.128023800032679,1216.7326068999828,1216.7326329000061,None,,,,,,,,,,,,,,,00057,001,2026-01-19_11h17.15.155,MST_task,2024.2.0,59.955057688548415,2026-01-19 11h17.30.962254 +0530,
,Objects\002a.jpg,178,0,179,,,,,,,f,1.6362701000180095,0.10307129996363074,None,,,,,,179,0,178,1216.749374600011,,,,,,,,,,,,,,,,,,,,,,,1216.7327122999704,1216.749374600011,1217.2347642999957,,,,,,,,,,,,,,,,,,,,,,,1217.2439475000137,1217.2677975000115,1217.2677975000115,1217.2677975000115,1220.2448510999675,indoor,f,1.6362701000180095,0.10307129996363074,1220.2448967999662,1220.2449093000032,None,,,,,,,,,,,,,,,00057,001,2026-01-19_11h17.15.155,MST_task,2024.2.0,59.955057688548415,2026-01-19 11h17.30.962254 +0530,
,Objects\202a.jpg,179,0,180,,,,,,,j,0.9700493999989703,0.12027840001974255,None,,,,,,180,0,179,1220.261661699973,,,,,,,,,,,,,,,,,,,,,,,1220.245299800008,1220.261661699973,1220.7465107999742,,,,,,,,,,,,,,,,,,,,,,,1220.7607985999784,1220.7806035999674,1220.7806035999674,1220.7806035999674,1223.757230099989,indoor,j,0.9700493999989703,0.12027840001974255,1223.7574263999704,1223.757439100009,None,,,,,,,,,,,,,,,00057,001,2026-01-19_11h17.15.155,MST_task,2024.2.0,59.955057688548415,2026-01-19 11h17.30.962254 +0530,
,Objects\307a.jpg,180,0,181,,,,,,,f,1.2433553999871947,0.1191487000323832,None,,,,,,181,0,180,1223.77367580001,,,,,,,,,,,,,,,,,,,,,,,1223.7575081000105,1223.77367580001,1224.259075000009,,,,,,,,,,,,,,,,,,,,,,,1224.2733176000183,1224.2921178999823,1224.2921178999823,1224.2921178999823,1227.2693747999729,indoor,f,1.2433553999871947,0.1191487000323832,1227.2694181000115,1227.2694305999903,None,,,,,,,,,,,,,,,00057,001,2026-01-19_11h17.15.155,MST_task,2024.2.0,59.955057688548415,2026-01-19 11h17.30.962254 +0530,
