thisN,thisTrialN,thisRepN,key_resp_3.keys,key_resp_3.rt,key_resp_3.duration,trials.thisRepN,trials.thisTrialN,trials.thisN,thisRow.t,notes,intro_page.started,text.started,key_resp.started,intro_page.stopped,key_resp.keys,key_resp.rt,key_resp.duration,instructions.started,text_2.started,key_resp_2.started,instructions.stopped,key_resp_2.keys,key_resp_2.rt,key_resp_2.duration,demo1.started,image_1.started,image_2.started,text_7.started,key_resp_6.started,text_9.started,demo1.stopped,key_resp_6.keys,key_resp_6.rt,key_resp_6.duration,demo3.started,image_5.started,image_6.started,text_11.started,text_12.started,key_resp_8.started,demo3.stopped,key_resp_8.keys,key_resp_8.rt,key_resp_8.duration,demo_conclusion.started,text_13.started,key_resp_9.started,demo_conclusion.stopped,key_resp_9.keys,key_resp_9.rt,key_resp_9.duration,start_test.started,text_6.started,key_resp_5.started,start_test.stopped,key_resp_5.keys,key_resp_5.rt,key_resp_5.duration,ISI.started,text_4.started,text_4.stopped,ISI.stopped,routine_1.started,image.started,text_3.started,key_resp_3.started,routine_1.stopped,image_path,position_of_stimuli,trials.key_resp_3.keys,trials.key_resp_3.rt,trials.key_resp_3.duration,End_page.started,text_5.started,key_resp_4.started,End_page.stopped,key_resp_4.keys,key_resp_4.rt,key_resp_4.duration,participant,session,date,expName,psychopyVersion,frameRate,expStart,
,,,,,,,,,,,0.0013043999788351357,0.0027891999925486743,0.0027891999925486743,0.7882743999944068,space,0.7804330000071786,None,,,,,,,,,,,,,,,,,,,,,,,,,,,,,,,,,,,,,,,,,,,,,,,,,,,,,,,,,,,,,,,00055,001,2026-01-18_22h10.40.713,MST_test,2024.2.0,59.95861656881497,2026-01-18 22h10.51.666124 +0530,
,,,,,,,,,,,,,,,,,,0.7883072999538854,0.8030559999751858,0.8030559999751858,3.6035789999878034,space,2.789210499962792,None,,,,,,,,,,,,,,,,,,,,,,,,,,,,,,,,,,,,,,,,,,,,,,,,,,,,,,,,00055,001,2026-01-18_22h10.40.713,MST_test,2024.2.0,59.95861656881497,2026-01-18 22h10.51.666124 +0530,
,,,,,,,,,,,,,,,,,,,,,,,,,3.6036047999514267,3.620260199997574,3.620260199997574,3.620260199997574,3.620260199997574,3.620260199997574,5.370377099956386,space,1.7479784999741241,None,,,,,,,,,,,,,,,,,,,,,,,,,,,,,,,,,,,,,,,,,,,,,,00055,001,2026-01-18_22h10.40.713,MST_test,2024.2.0,59.95861656881497,2026-01-18 22h10.51.666124 +0530,
,,,,,,,,,,,,,,,,,,,,,,,,,,,,,,,,,,,5.370407399954274,5.38677209999878,5.38677209999878,5.38677209999878,5.38677209999878,5.38677209999878,6.270363199990243,space,0.8768889000057243,None,,,,,,,,,,,,,,,,,,,,,,,,,,,,,,,,,,,,00055,001,2026-01-18_22h10.40.713,MST_test,2024.2.0,59.95861656881497,2026-01-18 22h10.51.666124 +0530,
,,,,,,,,,,,,,,,,,,,,,,,,,,,,,,,,,,,,,,,,,,,,,6.270391199970618,6.286461299983785,6.286461299983785,12.320363499980886,space,6.033195100026205,None,,,,,,,,,,,,,,,,,,,,,,,,,,,,,00055,001,2026-01-18_22h10.40.713,MST_test,2024.2.0,59.95861656881497,2026-01-18 22h10.51.666124 +0530,
,,,,,,,,,,,,,,,,,,,,,,,,,,,,,,,,,,,,,,,,,,,,,,,,,,,,12.320395799994003,12.340919999987818,12.340919999987818,18.070164099975955,space,5.714163399999961,None,,,,,,,,,,,,,,,,,,,,,,00055,001,2026-01-18_22h10.40.713,MST_test,2024.2.0,59.95861656881497,2026-01-18 22h10.51.666124 +0530,
0,0,1,o,3.426283099979628,None,1,0,0,18.086484299972653,,,,,,,,,,,,,,,,,,,,,,,,,,,,,,,,,,,,,,,,,,,,,,,,,,18.07384430000093,18.086484299972653,18.589314799988642,18.569982499990147,18.586622999981046,18.589314799988642,18.589314799988642,18.589314799988642,22.020138199965004,Objects\091b.jpg,mid,o,3.426283099979628,None,,,,,,,,00055,001,2026-01-18_22h10.40.713,MST_test,2024.2.0,59.95861656881497,2026-01-18 22h10.51.666124 +0530,
1,0,2,n,4.687287500011735,None,2,0,1,22.036405699967872,,,,,,,,,,,,,,,,,,,,,,,,,,,,,,,,,,,,,,,,,,,,,,,,,,22.0202310999739,22.036405699967872,22.53660499997204,22.52000149997184,22.530363699945156,22.53660499997204,22.53660499997204,22.53660499997204,27.238448499992955,Objects\152b.jpg,mid,n,4.687287500011735,None,,,,,,,,00055,001,2026-01-18_22h10.40.713,MST_test,2024.2.0,59.95861656881497,2026-01-18 22h10.51.666124 +0530,
2,0,3,o,1.4309061000240035,None,3,0,2,27.252935500000603,,,,,,,,,,,,,,,,,,,,,,,,,,,,,,,,,,,,,,,,,,,,,,,,,,27.238548499997705,27.252935500000603,27.753129299962893,27.73668390000239,27.73958059999859,27.753129299962893,27.753129299962893,27.753129299962893,29.187012299953494,Objects\030a.jpg,pre,o,1.4309061000240035,None,,,,,,,,00055,001,2026-01-18_22h10.40.713,MST_test,2024.2.0,59.95861656881497,2026-01-18 22h10.51.666124 +0530,
3,0,4,s,3.792417499993462,None,4,0,3,29.20298029994592,,,,,,,,,,,,,,,,,,,,,,,,,,,,,,,,,,,,,,,,,,,,,,,,,,29.18710869998904,29.20298029994592,29.703402199957054,29.686565199983306,29.69010729994625,29.703402199957054,29.703402199957054,29.703402199957054,33.503463299945,Objects\289a.jpg,post,s,3.792417499993462,None,,,,,,,,00055,001,2026-01-18_22h10.40.713,MST_test,2024.2.0,59.95861656881497,2026-01-18 22h10.51.666124 +0530,
4,0,5,n,2.8433810000424273,None,5,0,4,33.51953130000038,,,,,,,,,,,,,,,,,,,,,,,,,,,,,,,,,,,,,,,,,,,,,,,,,,33.50355899997521,33.51953130000038,34.01979309995659,34.00329039996723,34.00506729999324,34.01979309995659,34.01979309995659,34.01979309995659,36.87031399999978,Foils\f7.jpg,none,n,2.8433810000424273,None,,,,,,,,00055,001,2026-01-18_22h10.40.713,MST_test,2024.2.0,59.95861656881497,2026-01-18 22h10.51.666124 +0530,
5,0,6,o,2.7333255999838,None,6,0,5,36.8862713999697,,,,,,,,,,,,,,,,,,,,,,,,,,,,,,,,,,,,,,,,,,,,,,,,,,36.87040719995275,36.8862713999697,37.38659969996661,37.3698308999883,37.37309099995764,37.38659969996661,37.38659969996661,37.38659969996661,40.136785899987444,Objects\040a.jpg,post,o,2.7333255999838,None,,,,,,,,00055,001,2026-01-18_22h10.40.713,MST_test,2024.2.0,59.95861656881497,2026-01-18 22h10.51.666124 +0530,
6,0,7,s,3.4024857000331394,None,7,0,6,40.15300719998777,,,,,,,,,,,,,,,,,,,,,,,,,,,,,,,,,,,,,,,,,,,,,,,,,,40.13687879999634,40.15300719998777,40.6531788999564,40.63655179995112,40.638967799954116,40.6531788999564,40.6531788999564,40.6531788999564,44.07003629999235,Objects\337b.jpg,pre,s,3.4024857000331394,None,,,,,,,,00055,001,2026-01-18_22h10.40.713,MST_test,2024.2.0,59.95861656881497,2026-01-18 22h10.51.666124 +0530,
7,0,8,o,1.1814502000343055,None,8,0,7,44.086312699946575,,,,,,,,,,,,,,,,,,,,,,,,,,,,,,,,,,,,,,,,,,,,,,,,,,44.07012729998678,44.086312699946575,44.58654409996234,44.56975149997743,44.572348599962424,44.58654409996234,44.58654409996234,44.58654409996234,45.77031589997932,Objects\073a.jpg,mid,o,1.1814502000343055,None,,,,,,,,00055,001,2026-01-18_22h10.40.713,MST_test,2024.2.0,59.95861656881497,2026-01-18 22h10.51.666124 +0530,
8,0,9,o,4.346046600025147,None,9,0,8,45.78631979995407,,,,,,,,,,,,,,,,,,,,,,,,,,,,,,,,,,,,,,,,,,,,,,,,,,45.770414599974174,45.78631979995407,46.28656119998777,46.269745199999306,46.28147180000087,46.28656119998777,46.28656119998777,46.28656119998777,50.63708139996743,Objects\186b.jpg,pre,o,4.346046600025147,None,,,,,,,,00055,001,2026-01-18_22h10.40.713,MST_test,2024.2.0,59.95861656881497,2026-01-18 22h10.51.666124 +0530,
9,0,10,o,1.670524800021667,None,10,0,9,50.65296409995062,,,,,,,,,,,,,,,,,,,,,,,,,,,,,,,,,,,,,,,,,,,,,,,,,,50.637177199998405,50.65296409995062,51.15334899997106,51.13658949994715,51.138663699966855,51.15334899997106,51.15334899997106,51.15334899997106,52.836872899963055,Foils\f5.jpg,none,o,1.670524800021667,None,,,,,,,,00055,001,2026-01-18_22h10.40.713,MST_test,2024.2.0,59.95861656881497,2026-01-18 22h10.51.666124 +0530,
10,0,11,o,2.294595399987884,None,11,0,10,52.85291699995287,,,,,,,,,,,,,,,,,,,,,,,,,,,,,,,,,,,,,,,,,,,,,,,,,,52.83696459996281,52.85291699995287,53.353259999945294,53.33687109994935,53.340642699971795,53.353259999945294,53.353259999945294,53.353259999945294,55.65366339997854,Foils\049a.jpg,none,o,2.294595399987884,None,,,,,,,,00055,001,2026-01-18_22h10.40.713,MST_test,2024.2.0,59.95861656881497,2026-01-18 22h10.51.666124 +0530,
11,0,12,s,1.8941384999779984,None,12,0,11,55.66949889995158,,,,,,,,,,,,,,,,,,,,,,,,,,,,,,,,,,,,,,,,,,,,,,,,,,55.65376609994564,55.66949889995158,56.169817799993325,56.15315999998711,56.163283000001684,56.169817799993325,56.169817799993325,56.169817799993325,58.070292499964125,Objects\109b.jpg,post,s,1.8941384999779984,None,,,,,,,,00055,001,2026-01-18_22h10.40.713,MST_test,2024.2.0,59.95861656881497,2026-01-18 22h10.51.666124 +0530,
12,0,13,o,1.4524802999803796,None,13,0,12,58.086305199947674,,,,,,,,,,,,,,,,,,,,,,,,,,,,,,,,,,,,,,,,,,,,,,,,,,58.070390399952885,58.086305199947674,58.586659999971744,58.56975179997971,58.57269559998531,58.586659999971744,58.586659999971744,58.586659999971744,60.05355369998142,Objects\261a.jpg,post,o,1.4524802999803796,None,,,,,,,,00055,001,2026-01-18_22h10.40.713,MST_test,2024.2.0,59.95861656881497,2026-01-18 22h10.51.666124 +0530,
13,0,14,o,1.189527000009548,None,14,0,13,60.06957120000152,,,,,,,,,,,,,,,,,,,,,,,,,,,,,,,,,,,,,,,,,,,,,,,,,,60.05364419997204,60.06957120000152,60.56989409995731,60.55329809995601,60.556537299999036,60.56989409995731,60.56989409995731,60.56989409995731,61.770212599949446,Objects\083a.jpg,mid,o,1.189527000009548,None,,,,,,,,00055,001,2026-01-18_22h10.40.713,MST_test,2024.2.0,59.95861656881497,2026-01-18 22h10.51.666124 +0530,
14,0,15,o,0.9535525999963284,None,15,0,14,61.78636420000112,,,,,,,,,,,,,,,,,,,,,,,,,,,,,,,,,,,,,,,,,,,,,,,,,,61.77031120000174,61.78636420000112,62.28649949998362,62.26973849994829,62.280303499952424,62.28649949998362,62.28649949998362,62.28649949998362,63.25387529999716,Objects\023b.jpg,pre,o,0.9535525999963284,None,,,,,,,,00055,001,2026-01-18_22h10.40.713,MST_test,2024.2.0,59.95861656881497,2026-01-18 22h10.51.666124 +0530,
15,0,16,o,1.1742684000055306,None,16,0,15,63.2695169999497,,,,,,,,,,,,,,,,,,,,,,,,,,,,,,,,,,,,,,,,,,,,,,,,,,63.2539742999943,63.2695169999497,63.76977959997021,63.753233600000385,63.755995099956635,63.76977959997021,63.76977959997021,63.76977959997021,64.95352889999049,Objects\153a.jpg,post,o,1.1742684000055306,None,,,,,,,,00055,001,2026-01-18_22h10.40.713,MST_test,2024.2.0,59.95861656881497,2026-01-18 22h10.51.666124 +0530,
16,0,17,o,2.8900823000003584,None,17,0,16,64.96958479995374,,,,,,,,,,,,,,,,,,,,,,,,,,,,,,,,,,,,,,,,,,,,,,,,,,64.95361969998339,64.96958479995374,65.46965019998606,65.45345159998396,65.45649419998517,65.46965019998606,65.46965019998606,65.46965019998606,68.37029309995705,Objects\037a.jpg,mid,o,2.8900823000003584,None,,,,,,,,00055,001,2026-01-18_22h10.40.713,MST_test,2024.2.0,59.95861656881497,2026-01-18 22h10.51.666124 +0530,
17,0,18,s,1.88062400004128,None,18,0,17,68.38673549995292,,,,,,,,,,,,,,,,,,,,,,,,,,,,,,,,,,,,,,,,,,,,,,,,,,68.37039729999378,68.38673549995292,68.88651599996956,68.8698344999575,68.87244779994944,68.88651599996956,68.88651599996956,68.88651599996956,70.77021729998523,Foils\093b.jpg,none,s,1.88062400004128,None,,,,,,,,00055,001,2026-01-18_22h10.40.713,MST_test,2024.2.0,59.95861656881497,2026-01-18 22h10.51.666124 +0530,
18,0,19,o,1.1047295000171289,None,19,0,18,70.78625069995178,,,,,,,,,,,,,,,,,,,,,,,,,,,,,,,,,,,,,,,,,,,,,,,,,,70.77030759997433,70.78625069995178,71.28646429994842,71.26988969999366,71.27986219996819,71.28646429994842,71.28646429994842,71.28646429994842,72.40382489998592,Objects\191b.jpg,post,o,1.1047295000171289,None,,,,,,,,00055,001,2026-01-18_22h10.40.713,MST_test,2024.2.0,59.95861656881497,2026-01-18 22h10.51.666124 +0530,
19,0,20,o,1.6642497000284493,None,20,0,19,72.41965979995439,,,,,,,,,,,,,,,,,,,,,,,,,,,,,,,,,,,,,,,,,,,,,,,,,,72.40392399998382,72.41965979995439,72.91985909995856,72.90346059994772,72.90664010000182,72.91985909995856,72.91985909995856,72.91985909995856,74.58680409996305,Objects\133a.jpg,pre,o,1.6642497000284493,None,,,,,,,,00055,001,2026-01-18_22h10.40.713,MST_test,2024.2.0,59.95861656881497,2026-01-18 22h10.51.666124 +0530,
20,0,21,o,3.040620099985972,None,21,0,20,74.60298659995897,,,,,,,,,,,,,,,,,,,,,,,,,,,,,,,,,,,,,,,,,,,,,,,,,,74.58689519995824,74.60298659995897,75.10318209999241,75.08657139999559,75.089213499974,75.10318209999241,75.10318209999241,75.10318209999241,78.15346669999417,Foils\017a.jpg,none,o,3.040620099985972,None,,,,,,,,00055,001,2026-01-18_22h10.40.713,MST_test,2024.2.0,59.95861656881497,2026-01-18 22h10.51.666124 +0530,
21,0,22,o,0.8417446999810636,None,22,0,21,78.16985919995932,,,,,,,,,,,,,,,,,,,,,,,,,,,,,,,,,,,,,,,,,,,,,,,,,,78.15355649997946,78.16985919995932,78.66989049996482,78.65316239994718,78.66275459999451,78.66989049996482,78.66989049996482,78.66989049996482,79.52005369996186,Objects\103b.jpg,mid,o,0.8417446999810636,None,,,,,,,,00055,001,2026-01-18_22h10.40.713,MST_test,2024.2.0,59.95861656881497,2026-01-18 22h10.51.666124 +0530,
22,0,23,s,5.1706744999974035,None,23,0,22,79.53635199996643,,,,,,,,,,,,,,,,,,,,,,,,,,,,,,,,,,,,,,,,,,,,,,,,,,79.52014379994944,79.53635199996643,80.03652589995181,80.01986159995431,80.02247119997628,80.03652589995181,80.03652589995181,80.03652589995181,85.22055059997365,Foils\097a.jpg,none,s,5.1706744999974035,None,,,,,,,,00055,001,2026-01-18_22h10.40.713,MST_test,2024.2.0,59.95861656881497,2026-01-18 22h10.51.666124 +0530,
23,0,24,s,0.9338986000511795,None,24,0,23,85.2379624999594,,,,,,,,,,,,,,,,,,,,,,,,,,,,,,,,,,,,,,,,,,,,,,,,,,85.22064709995175,85.2379624999594,,85.73662089998834,85.73965939995833,85.75334830000065,85.75334830000065,85.75334830000065,86.70375249994686,Objects\041a.jpg,post,s,0.9338986000511795,None,,,,,,,,00055,001,2026-01-18_22h10.40.713,MST_test,2024.2.0,59.95861656881497,2026-01-18 22h10.51.666124 +0530,
24,0,25,o,1.2994339999859221,None,25,0,24,86.71981589996722,,,,,,,,,,,,,,,,,,,,,,,,,,,,,,,,,,,,,,,,,,,,,,,,,,86.7038421999896,86.71981589996722,87.2199655000004,87.2033642999595,87.20638689998304,87.2199655000004,87.2199655000004,87.2199655000004,88.52040359994862,Objects\311a.jpg,pre,o,1.2994339999859221,None,,,,,,,,00055,001,2026-01-18_22h10.40.713,MST_test,2024.2.0,59.95861656881497,2026-01-18 22h10.51.666124 +0530,
25,0,26,n,1.2590073999599554,None,26,0,25,88.53641439997591,,,,,,,,,,,,,,,,,,,,,,,,,,,,,,,,,,,,,,,,,,,,,,,,,,88.52049559995066,88.53641439997591,89.03659589996096,89.02008190000197,89.02254869998433,89.03659589996096,89.03659589996096,89.03659589996096,90.30370399996173,Foils\058a.jpg,none,n,1.2590073999599554,None,,,,,,,,00055,001,2026-01-18_22h10.40.713,MST_test,2024.2.0,59.95861656881497,2026-01-18 22h10.51.666124 +0530,
26,0,27,n,1.4200981000321917,None,27,0,26,90.31963789998554,,,,,,,,,,,,,,,,,,,,,,,,,,,,,,,,,,,,,,,,,,,,,,,,,,90.30379429995082,90.31963789998554,90.82010459998855,90.80358209996484,90.80655979999574,90.82010459998855,90.82010459998855,90.82010459998855,92.25410769996233,Foils\081a.jpg,none,n,1.4200981000321917,None,,,,,,,,00055,001,2026-01-18_22h10.40.713,MST_test,2024.2.0,59.95861656881497,2026-01-18 22h10.51.666124 +0530,
27,0,28,o,1.493453600036446,None,28,0,27,92.26965659996495,,,,,,,,,,,,,,,,,,,,,,,,,,,,,,,,,,,,,,,,,,,,,,,,,,92.25420749996556,92.26965659996495,92.76994739996735,92.75336639996385,92.75589139998192,92.76994739996735,92.76994739996735,92.76994739996735,94.27043489995413,Objects\115b.jpg,post,o,1.493453600036446,None,,,,,,,,00055,001,2026-01-18_22h10.40.713,MST_test,2024.2.0,59.95861656881497,2026-01-18 22h10.51.666124 +0530,
28,0,29,n,2.4614338999963365,None,29,0,28,94.28641719999723,,,,,,,,,,,,,,,,,,,,,,,,,,,,,,,,,,,,,,,,,,,,,,,,,,94.27052469999762,94.28641719999723,94.78685419994872,94.770027999999,94.78205079998588,94.78685419994872,94.78685419994872,94.78685419994872,97.25374679995002,Objects\193b.jpg,pre,n,2.4614338999963365,None,,,,,,,,00055,001,2026-01-18_22h10.40.713,MST_test,2024.2.0,59.95861656881497,2026-01-18 22h10.51.666124 +0530,
29,0,30,o,1.3018461999599822,None,30,0,29,97.26970979996258,,,,,,,,,,,,,,,,,,,,,,,,,,,,,,,,,,,,,,,,,,,,,,,,,,97.25384029996349,97.26970979996258,97.77007529995171,97.75332769996021,97.75649689999409,97.77007529995171,97.77007529995171,97.77007529995171,99.08710439997958,Objects\120a.jpg,pre,o,1.3018461999599822,None,,,,,,,,00055,001,2026-01-18_22h10.40.713,MST_test,2024.2.0,59.95861656881497,2026-01-18 22h10.51.666124 +0530,
30,0,31,o,1.755832199996803,None,31,0,30,99.10313409997616,,,,,,,,,,,,,,,,,,,,,,,,,,,,,,,,,,,,,,,,,,,,,,,,,,99.08719959994778,99.10313409997616,99.60338429996045,99.58655229996657,99.59654489997774,99.60338429996045,99.60338429996045,99.60338429996045,101.37043599999743,Objects\236b.jpg,post,o,1.755832199996803,None,,,,,,,,00055,001,2026-01-18_22h10.40.713,MST_test,2024.2.0,59.95861656881497,2026-01-18 22h10.51.666124 +0530,
31,0,32,o,1.0883420000318438,None,32,0,31,101.38638529996388,,,,,,,,,,,,,,,,,,,,,,,,,,,,,,,,,,,,,,,,,,,,,,,,,,101.37052649998805,101.38638529996388,101.886898799974,101.87003049999475,101.88088539999444,101.886898799974,101.886898799974,101.886898799974,102.98707559995819,Objects\101b.jpg,pre,o,1.0883420000318438,None,,,,,,,,00055,001,2026-01-18_22h10.40.713,MST_test,2024.2.0,59.95861656881497,2026-01-18 22h10.51.666124 +0530,
32,0,33,n,4.567985600035172,None,33,0,32,103.0030381999677,,,,,,,,,,,,,,,,,,,,,,,,,,,,,,,,,,,,,,,,,,,,,,,,,,102.9871694999747,103.0030381999677,103.50348569999915,103.48696479998762,103.49761389999185,103.50348569999915,103.50348569999915,103.50348569999915,108.08689859998412,Objects\297b.jpg,mid,n,4.567985600035172,None,,,,,,,,00055,001,2026-01-18_22h10.40.713,MST_test,2024.2.0,59.95861656881497,2026-01-18 22h10.51.666124 +0530,
33,0,34,o,0.812026799947489,None,34,0,33,108.10311649995856,,,,,,,,,,,,,,,,,,,,,,,,,,,,,,,,,,,,,,,,,,,,,,,,,,108.08698839996941,108.10311649995856,108.60351569997147,108.58666459994856,108.58987279998837,108.60351569997147,108.60351569997147,108.60351569997147,109.42039980000118,Objects\033a.jpg,pre,o,0.812026799947489,None,,,,,,,,00055,001,2026-01-18_22h10.40.713,MST_test,2024.2.0,59.95861656881497,2026-01-18 22h10.51.666124 +0530,
34,0,35,o,1.054457199992612,None,35,0,34,109.43643269996392,,,,,,,,,,,,,,,,,,,,,,,,,,,,,,,,,,,,,,,,,,,,,,,,,,109.42050680000102,109.43643269996392,109.93666829995345,109.92002909997245,109.92248489998747,109.93666829995345,109.93666829995345,109.93666829995345,111.0036896999809,Objects\125a.jpg,pre,o,1.054457199992612,None,,,,,,,,00055,001,2026-01-18_22h10.40.713,MST_test,2024.2.0,59.95861656881497,2026-01-18 22h10.51.666124 +0530,
35,0,36,o,1.7679471999872476,None,36,0,35,111.0197795999702,,,,,,,,,,,,,,,,,,,,,,,,,,,,,,,,,,,,,,,,,,,,,,,,,,111.00377939996542,111.0197795999702,111.5200372999534,111.50354629999492,111.5063767999527,111.5200372999534,111.5200372999534,111.5200372999534,113.303700199991,Objects\084a.jpg,pre,o,1.7679471999872476,None,,,,,,,,00055,001,2026-01-18_22h10.40.713,MST_test,2024.2.0,59.95861656881497,2026-01-18 22h10.51.666124 +0530,
36,0,37,o,0.6676139999763109,None,37,0,36,113.31975799996872,,,,,,,,,,,,,,,,,,,,,,,,,,,,,,,,,,,,,,,,,,,,,,,,,,113.30379599996377,113.31975799996872,113.82012549997307,113.80326769995736,113.81367479998153,113.82012549997307,113.82012549997307,113.82012549997307,114.5038125999854,Objects\194b.jpg,pre,o,0.6676139999763109,None,,,,,,,,00055,001,2026-01-18_22h10.40.713,MST_test,2024.2.0,59.95861656881497,2026-01-18 22h10.51.666124 +0530,
37,0,38,o,0.7476215999922715,None,38,0,37,114.5197327999631,,,,,,,,,,,,,,,,,,,,,,,,,,,,,,,,,,,,,,,,,,,,,,,,,,114.50390509999124,114.5197327999631,115.02023309998913,115.00336039997637,115.0069524999708,115.02023309998913,115.02023309998913,115.02023309998913,115.770306899969,Objects\151a.jpg,mid,o,0.7476215999922715,None,,,,,,,,00055,001,2026-01-18_22h10.40.713,MST_test,2024.2.0,59.95861656881497,2026-01-18 22h10.51.666124 +0530,
38,0,39,o,0.9044592999853194,None,39,0,38,115.78644309996162,,,,,,,,,,,,,,,,,,,,,,,,,,,,,,,,,,,,,,,,,,,,,,,,,,115.770404699957,115.78644309996162,116.28662779997103,116.26990089996252,116.2798608999583,116.28662779997103,116.28662779997103,116.28662779997103,117.20368609996513,Objects\331b.jpg,post,o,0.9044592999853194,None,,,,,,,,00055,001,2026-01-18_22h10.40.713,MST_test,2024.2.0,59.95861656881497,2026-01-18 22h10.51.666124 +0530,
39,0,40,o,0.8711675000376999,None,40,0,39,117.21976059995359,,,,,,,,,,,,,,,,,,,,,,,,,,,,,,,,,,,,,,,,,,,,,,,,,,117.20377819996793,117.21976059995359,117.72000799997477,117.70337039994774,117.71350929996697,117.72000799997477,117.72000799997477,117.72000799997477,118.60364999994636,Objects\155b.jpg,mid,o,0.8711675000376999,None,,,,,,,,00055,001,2026-01-18_22h10.40.713,MST_test,2024.2.0,59.95861656881497,2026-01-18 22h10.51.666124 +0530,
40,0,41,n,5.256036400038283,None,41,0,40,118.61978709994582,,,,,,,,,,,,,,,,,,,,,,,,,,,,,,,,,,,,,,,,,,,,,,,,,,118.60374519997276,118.61978709994582,119.11987239995506,119.10326689999783,119.11365229997318,119.11987239995506,119.11987239995506,119.11987239995506,124.38702709996141,Foils\026a.jpg,none,n,5.256036400038283,None,,,,,,,,00055,001,2026-01-18_22h10.40.713,MST_test,2024.2.0,59.95861656881497,2026-01-18 22h10.51.666124 +0530,
41,0,42,s,1.648119100020267,None,42,0,41,124.40303299995139,,,,,,,,,,,,,,,,,,,,,,,,,,,,,,,,,,,,,,,,,,,,,,,,,,124.38711739995051,124.40303299995139,124.90339149994543,124.886590399954,124.88931159995263,124.90339149994543,124.90339149994543,124.90339149994543,126.55370160000166,Objects\371a.jpg,post,s,1.648119100020267,None,,,,,,,,00055,001,2026-01-18_22h10.40.713,MST_test,2024.2.0,59.95861656881497,2026-01-18 22h10.51.666124 +0530,
42,0,43,s,1.8262313000159338,None,43,0,42,126.56952039996395,,,,,,,,,,,,,,,,,,,,,,,,,,,,,,,,,,,,,,,,,,,,,,,,,,126.55380049999803,126.56952039996395,127.07010949996766,127.05325919995084,127.06391059997259,127.07010949996766,127.07010949996766,127.07010949996766,128.90361509996,Objects\175b.jpg,mid,s,1.8262313000159338,None,,,,,,,,00055,001,2026-01-18_22h10.40.713,MST_test,2024.2.0,59.95861656881497,2026-01-18 22h10.51.666124 +0530,
43,0,44,o,1.0997327999793924,None,44,0,43,128.91972489998443,,,,,,,,,,,,,,,,,,,,,,,,,,,,,,,,,,,,,,,,,,,,,,,,,,128.9037100999849,128.91972489998443,129.41995079995831,129.40335189999314,129.40554299997166,129.41995079995831,129.41995079995831,129.41995079995831,130.52039059996605,Objects\225a.jpg,pre,o,1.0997327999793924,None,,,,,,,,00055,001,2026-01-18_22h10.40.713,MST_test,2024.2.0,59.95861656881497,2026-01-18 22h10.51.666124 +0530,
44,0,45,s,1.730951500008814,None,45,0,44,130.53647869999986,,,,,,,,,,,,,,,,,,,,,,,,,,,,,,,,,,,,,,,,,,,,,,,,,,130.5204851999879,130.53647869999986,131.0367791999597,131.02013129997067,131.0306108999648,131.0367791999597,131.0367791999597,131.0367791999597,132.7703350999509,Objects\323b.jpg,post,s,1.730951500008814,None,,,,,,,,00055,001,2026-01-18_22h10.40.713,MST_test,2024.2.0,59.95861656881497,2026-01-18 22h10.51.666124 +0530,
45,0,46,s,1.1922887999680825,None,46,0,45,132.78644899994833,,,,,,,,,,,,,,,,,,,,,,,,,,,,,,,,,,,,,,,,,,,,,,,,,,132.7704261999461,132.78644899994833,133.28679029998602,133.27004279999528,133.28008589998353,133.28679029998602,133.28679029998602,133.28679029998602,134.4874343999545,Objects\353b.jpg,mid,s,1.1922887999680825,None,,,,,,,,00055,001,2026-01-18_22h10.40.713,MST_test,2024.2.0,59.95861656881497,2026-01-18 22h10.51.666124 +0530,
46,0,47,o,1.211622599978,None,47,0,46,134.50315109995427,,,,,,,,,,,,,,,,,,,,,,,,,,,,,,,,,,,,,,,,,,,,,,,,,,134.48753129999386,134.50315109995427,135.00345379998907,134.98668219998945,134.9970015999861,135.00345379998907,135.00345379998907,135.00345379998907,136.22037629998522,Objects\310b.jpg,post,o,1.211622599978,None,,,,,,,,00055,001,2026-01-18_22h10.40.713,MST_test,2024.2.0,59.95861656881497,2026-01-18 22h10.51.666124 +0530,
47,0,48,o,1.2953856000094675,None,48,0,47,136.2367704999633,,,,,,,,,,,,,,,,,,,,,,,,,,,,,,,,,,,,,,,,,,,,,,,,,,136.22046719997888,136.2367704999633,136.73680329998024,136.72010709997267,136.73165309999604,136.73680329998024,136.73680329998024,136.73680329998024,138.0370750000002,Objects\282b.jpg,pre,o,1.2953856000094675,None,,,,,,,,00055,001,2026-01-18_22h10.40.713,MST_test,2024.2.0,59.95861656881497,2026-01-18 22h10.51.666124 +0530,
48,0,49,o,1.2224370000185445,None,49,0,48,138.05308609997155,,,,,,,,,,,,,,,,,,,,,,,,,,,,,,,,,,,,,,,,,,,,,,,,,,138.03717229998438,138.05308609997155,138.55329599999823,138.53666649997467,138.53923109994503,138.55329599999823,138.55329599999823,138.55329599999823,139.78702539997175,Objects\184a.jpg,post,o,1.2224370000185445,None,,,,,,,,00055,001,2026-01-18_22h10.40.713,MST_test,2024.2.0,59.95861656881497,2026-01-18 22h10.51.666124 +0530,
49,0,50,o,0.58441839995794,None,50,0,49,139.80320249998476,,,,,,,,,,,,,,,,,,,,,,,,,,,,,,,,,,,,,,,,,,,,,,,,,,139.78711489995476,139.80320249998476,140.30338859994663,140.28678379999474,140.28955629997654,140.30338859994663,140.30338859994663,140.30338859994663,140.90373319998616,Objects\018a.jpg,post,o,0.58441839995794,None,,,,,,,,00055,001,2026-01-18_22h10.40.713,MST_test,2024.2.0,59.95861656881497,2026-01-18 22h10.51.666124 +0530,
50,0,51,o,0.6276518000522628,None,51,0,50,140.91972589999205,,,,,,,,,,,,,,,,,,,,,,,,,,,,,,,,,,,,,,,,,,,,,,,,,,140.9038228999707,140.91972589999205,141.41985759994714,141.40336919995025,141.4062098999857,141.41985759994714,141.41985759994714,141.41985759994714,142.05364929995267,Objects\203a.jpg,post,o,0.6276518000522628,None,,,,,,,,00055,001,2026-01-18_22h10.40.713,MST_test,2024.2.0,59.95861656881497,2026-01-18 22h10.51.666124 +0530,
51,0,52,o,0.7581673999666236,None,52,0,51,142.0695802999544,,,,,,,,,,,,,,,,,,,,,,,,,,,,,,,,,,,,,,,,,,,,,,,,,,142.05374589998974,142.0695802999544,142.5701826000004,142.55338259995915,142.55651369999396,142.5701826000004,142.5701826000004,142.5701826000004,143.33687139995163,Foils\066a.jpg,none,o,0.7581673999666236,None,,,,,,,,00055,001,2026-01-18_22h10.40.713,MST_test,2024.2.0,59.95861656881497,2026-01-18 22h10.51.666124 +0530,
52,0,53,o,2.034540700027719,None,53,0,52,143.3530048999819,,,,,,,,,,,,,,,,,,,,,,,,,,,,,,,,,,,,,,,,,,,,,,,,,,143.33696389995748,143.3530048999819,143.85321839997778,143.8366737999604,143.8392928999965,143.85321839997778,143.85321839997778,143.85321839997778,145.90363599994453,Objects\060a.jpg,mid,o,2.034540700027719,None,,,,,,,,00055,001,2026-01-18_22h10.40.713,MST_test,2024.2.0,59.95861656881497,2026-01-18 22h10.51.666124 +0530,
53,0,54,o,0.6994746999698691,None,54,0,53,145.9197660999489,,,,,,,,,,,,,,,,,,,,,,,,,,,,,,,,,,,,,,,,,,,,,,,,,,145.90372879995266,145.9197660999489,146.4197712999885,146.40320719999727,146.40575749997515,146.4197712999885,146.4197712999885,146.4197712999885,147.1200877999654,Objects\179a.jpg,mid,o,0.6994746999698691,None,,,,,,,,00055,001,2026-01-18_22h10.40.713,MST_test,2024.2.0,59.95861656881497,2026-01-18 22h10.51.666124 +0530,
54,0,55,s,1.2917853000108153,None,55,0,54,147.1363104999764,,,,,,,,,,,,,,,,,,,,,,,,,,,,,,,,,,,,,,,,,,,,,,,,,,147.12018259998877,147.1363104999764,147.6367624999839,147.6197801999515,147.6225174999563,147.6367624999839,147.6367624999839,147.6367624999839,148.9371066999738,Objects\309a.jpg,pre,s,1.2917853000108153,None,,,,,,,,00055,001,2026-01-18_22h10.40.713,MST_test,2024.2.0,59.95861656881497,2026-01-18 22h10.51.666124 +0530,
55,0,56,s,1.3065918000065722,None,56,0,55,148.95305249997182,,,,,,,,,,,,,,,,,,,,,,,,,,,,,,,,,,,,,,,,,,,,,,,,,,148.9372008999926,148.95305249997182,149.45332380000036,149.43659139994998,149.43966559995897,149.45332380000036,149.45332380000036,149.45332380000036,150.77017179998802,Objects\296a.jpg,pre,s,1.3065918000065722,None,,,,,,,,00055,001,2026-01-18_22h10.40.713,MST_test,2024.2.0,59.95861656881497,2026-01-18 22h10.51.666124 +0530,
56,0,57,s,0.8565746999811381,None,57,0,56,150.78633999999147,,,,,,,,,,,,,,,,,,,,,,,,,,,,,,,,,,,,,,,,,,,,,,,,,,150.77026349998778,150.78633999999147,151.28666879999219,151.26990309997927,151.27214369998546,151.28666879999219,151.28666879999219,151.28666879999219,152.1535912999534,Foils\f6.jpg,none,s,0.8565746999811381,None,,,,,,,,00055,001,2026-01-18_22h10.40.713,MST_test,2024.2.0,59.95861656881497,2026-01-18 22h10.51.666124 +0530,
57,0,58,s,1.1781889999983832,None,58,0,57,152.16953539999668,,,,,,,,,,,,,,,,,,,,,,,,,,,,,,,,,,,,,,,,,,,,,,,,,,152.15368259995012,152.16953539999668,152.66976489999797,152.65325849998044,152.65672639996046,152.66976489999797,152.66976489999797,152.66976489999797,153.85346600000048,Objects\034a.jpg,post,s,1.1781889999983832,None,,,,,,,,00055,001,2026-01-18_22h10.40.713,MST_test,2024.2.0,59.95861656881497,2026-01-18 22h10.51.666124 +0530,
58,0,59,s,1.2865611999877729,None,59,0,58,153.86961779999547,,,,,,,,,,,,,,,,,,,,,,,,,,,,,,,,,,,,,,,,,,,,,,,,,,153.8535551999812,153.86961779999547,154.36999759997707,154.3532750000013,154.36565569997765,154.36999759997707,154.36999759997707,154.36999759997707,155.67003409995232,Objects\368b.jpg,mid,s,1.2865611999877729,None,,,,,,,,00055,001,2026-01-18_22h10.40.713,MST_test,2024.2.0,59.95861656881497,2026-01-18 22h10.51.666124 +0530,
59,0,60,s,1.1085702999844216,None,60,0,59,155.68642089999048,,,,,,,,,,,,,,,,,,,,,,,,,,,,,,,,,,,,,,,,,,,,,,,,,,155.6701267999597,155.68642089999048,156.18671799998265,156.16984699998284,156.17267149995314,156.18671799998265,156.18671799998265,156.18671799998265,157.30359339999268,Objects\077a.jpg,pre,s,1.1085702999844216,None,,,,,,,,00055,001,2026-01-18_22h10.40.713,MST_test,2024.2.0,59.95861656881497,2026-01-18 22h10.51.666124 +0530,
60,0,61,n,1.0038791000260971,None,61,0,60,157.31954149995,,,,,,,,,,,,,,,,,,,,,,,,,,,,,,,,,,,,,,,,,,,,,,,,,,157.30368369998178,157.31954149995,157.81983059999766,157.8032890999457,157.80645179998828,157.81983059999766,157.81983059999766,157.81983059999766,158.8369094999507,Foils\105a.jpg,none,n,1.0038791000260971,None,,,,,,,,00055,001,2026-01-18_22h10.40.713,MST_test,2024.2.0,59.95861656881497,2026-01-18 22h10.51.666124 +0530,
61,0,62,o,1.0459799999953248,None,62,0,61,158.8529564999626,,,,,,,,,,,,,,,,,,,,,,,,,,,,,,,,,,,,,,,,,,,,,,,,,,158.83699939999497,158.8529564999626,159.35321539995493,159.33663069998147,159.33928789995844,159.35321539995493,159.35321539995493,159.35321539995493,160.40361029998166,Objects\019a.jpg,mid,o,1.0459799999953248,None,,,,,,,,00055,001,2026-01-18_22h10.40.713,MST_test,2024.2.0,59.95861656881497,2026-01-18 22h10.51.666124 +0530,
62,0,63,s,1.4642000999883749,None,63,0,62,160.4195880999905,,,,,,,,,,,,,,,,,,,,,,,,,,,,,,,,,,,,,,,,,,,,,,,,,,160.40370159997838,160.4195880999905,160.91980859998148,160.9032355999807,160.9057798999711,160.91980859998148,160.91980859998148,160.91980859998148,162.38692799996352,Foils\042a.jpg,none,s,1.4642000999883749,None,,,,,,,,00055,001,2026-01-18_22h10.40.713,MST_test,2024.2.0,59.95861656881497,2026-01-18 22h10.51.666124 +0530,
63,0,64,o,1.5447687999694608,None,64,0,63,162.403015399992,,,,,,,,,,,,,,,,,,,,,,,,,,,,,,,,,,,,,,,,,,,,,,,,,,162.38702099997317,162.403015399992,162.90333109995117,162.88678719999734,162.88954849995207,162.90333109995117,162.90333109995117,162.90333109995117,164.453670399962,Objects\250a.jpg,pre,o,1.5447687999694608,None,,,,,,,,00055,001,2026-01-18_22h10.40.713,MST_test,2024.2.0,59.95861656881497,2026-01-18 22h10.51.666124 +0530,
64,0,65,o,0.9973166999989189,None,65,0,64,164.4696226999513,,,,,,,,,,,,,,,,,,,,,,,,,,,,,,,,,,,,,,,,,,,,,,,,,,164.45376819995,164.4696226999513,164.96985860000132,164.95327239995822,164.95672659995034,164.96985860000132,164.96985860000132,164.96985860000132,165.97037539997837,Objects\098a.jpg,mid,o,0.9973166999989189,None,,,,,,,,00055,001,2026-01-18_22h10.40.713,MST_test,2024.2.0,59.95861656881497,2026-01-18 22h10.51.666124 +0530,
65,0,66,n,8.51259649998974,None,66,0,65,165.986374399974,,,,,,,,,,,,,,,,,,,,,,,,,,,,,,,,,,,,,,,,,,,,,,,,,,165.97046709997812,165.986374399974,166.48666359996423,166.4698728999938,166.47207579994574,166.48666359996423,166.48666359996423,166.48666359996423,175.0040246999706,Objects\335a.jpg,mid,n,8.51259649998974,None,,,,,,,,00055,001,2026-01-18_22h10.40.713,MST_test,2024.2.0,59.95861656881497,2026-01-18 22h10.51.666124 +0530,
66,0,67,o,2.3679352999897674,None,67,0,66,175.01959319994785,,,,,,,,,,,,,,,,,,,,,,,,,,,,,,,,,,,,,,,,,,,,,,,,,,175.00412309996318,175.01959319994785,175.51993389998097,175.503386700002,175.5067477999837,175.51993389998097,175.51993389998097,175.51993389998097,177.90360239997972,Foils\113a.jpg,none,o,2.3679352999897674,None,,,,,,,,00055,001,2026-01-18_22h10.40.713,MST_test,2024.2.0,59.95861656881497,2026-01-18 22h10.51.666124 +0530,
67,0,68,n,1.499783099978231,None,68,0,67,177.91950409999117,,,,,,,,,,,,,,,,,,,,,,,,,,,,,,,,,,,,,,,,,,,,,,,,,,177.90369759994792,177.91950409999117,178.41984180000145,178.40326079999795,178.41320989996893,178.41984180000145,178.41984180000145,178.41984180000145,179.92034319997765,Objects\143b.jpg,pre,n,1.499783099978231,None,,,,,,,,00055,001,2026-01-18_22h10.40.713,MST_test,2024.2.0,59.95861656881497,2026-01-18 22h10.51.666124 +0530,
68,0,69,s,1.7394312999676913,None,69,0,68,179.93634979997296,,,,,,,,,,,,,,,,,,,,,,,,,,,,,,,,,,,,,,,,,,,,,,,,,,179.92043469997589,179.93634979997296,180.43656770000234,180.4198545999825,180.43031789996894,180.43656770000234,180.43656770000234,180.43656770000234,182.1869219999644,Objects\295b.jpg,post,s,1.7394312999676913,None,,,,,,,,00055,001,2026-01-18_22h10.40.713,MST_test,2024.2.0,59.95861656881497,2026-01-18 22h10.51.666124 +0530,
69,0,70,o,1.088477699959185,None,70,0,69,182.20303639996564,,,,,,,,,,,,,,,,,,,,,,,,,,,,,,,,,,,,,,,,,,,,,,,,,,182.18702149996534,182.20303639996564,182.70326429995475,182.68663899996318,182.69761329999892,182.70326429995475,182.70326429995475,182.70326429995475,183.80360529996688,Objects\187b.jpg,mid,o,1.088477699959185,None,,,,,,,,00055,001,2026-01-18_22h10.40.713,MST_test,2024.2.0,59.95861656881497,2026-01-18 22h10.51.666124 +0530,
70,0,71,o,1.6882678999681957,None,71,0,70,183.8195085999905,,,,,,,,,,,,,,,,,,,,,,,,,,,,,,,,,,,,,,,,,,,,,,,,,,183.80371219996596,183.8195085999905,184.320010299969,184.30334009998478,184.30608399998164,184.320010299969,184.320010299969,184.320010299969,186.02032659994438,Objects\300a.jpg,pre,o,1.6882678999681957,None,,,,,,,,00055,001,2026-01-18_22h10.40.713,MST_test,2024.2.0,59.95861656881497,2026-01-18 22h10.51.666124 +0530,
71,0,72,n,2.25530149997212,None,72,0,71,186.0363993999781,,,,,,,,,,,,,,,,,,,,,,,,,,,,,,,,,,,,,,,,,,,,,,,,,,186.02042959997198,186.0363993999781,186.5366873999592,186.51978289999533,186.53080069995485,186.5366873999592,186.5366873999592,186.5366873999592,188.8037327999482,Objects\276b.jpg,post,n,2.25530149997212,None,,,,,,,,00055,001,2026-01-18_22h10.40.713,MST_test,2024.2.0,59.95861656881497,2026-01-18 22h10.51.666124 +0530,
72,0,73,o,2.1837922999984585,None,73,0,72,188.81958199996734,,,,,,,,,,,,,,,,,,,,,,,,,,,,,,,,,,,,,,,,,,,,,,,,,,188.80382579995785,188.81958199996734,189.31984019995434,189.30328269995516,189.31374889996368,189.31984019995434,189.31984019995434,189.31984019995434,191.5202080999734,Objects\275b.jpg,pre,o,2.1837922999984585,None,,,,,,,,00055,001,2026-01-18_22h10.40.713,MST_test,2024.2.0,59.95861656881497,2026-01-18 22h10.51.666124 +0530,
73,0,74,n,6.339514299994335,None,74,0,73,191.53636489994824,,,,,,,,,,,,,,,,,,,,,,,,,,,,,,,,,,,,,,,,,,,,,,,,,,191.52029829996172,191.53636489994824,192.03659049997805,192.0197725999751,192.02254439995158,192.03659049997805,192.03659049997805,192.03659049997805,198.3868604999734,Foils\090a.jpg,none,n,6.339514299994335,None,,,,,,,,00055,001,2026-01-18_22h10.40.713,MST_test,2024.2.0,59.95861656881497,2026-01-18 22h10.51.666124 +0530,
74,0,75,o,1.097004899987951,None,75,0,74,198.40303859999403,,,,,,,,,,,,,,,,,,,,,,,,,,,,,,,,,,,,,,,,,,,,,,,,,,198.38695179997012,198.40303859999403,198.90333989995997,198.8865339999902,198.89671499998076,198.90333989995997,198.90333989995997,198.90333989995997,200.0037475999561,Objects\081b.jpg,post,o,1.097004899987951,None,,,,,,,,00055,001,2026-01-18_22h10.40.713,MST_test,2024.2.0,59.95861656881497,2026-01-18 22h10.51.666124 +0530,
75,0,76,s,1.9361647999612615,None,76,0,75,200.01956219994463,,,,,,,,,,,,,,,,,,,,,,,,,,,,,,,,,,,,,,,,,,,,,,,,,,200.0038438999909,200.01956219994463,200.520025899983,200.50320489995647,200.51463130000047,200.520025899983,200.520025899983,200.520025899983,202.47030249994714,Objects\227b.jpg,mid,s,1.9361647999612615,None,,,,,,,,00055,001,2026-01-18_22h10.40.713,MST_test,2024.2.0,59.95861656881497,2026-01-18 22h10.51.666124 +0530,
76,0,77,n,4.5021521000307985,None,77,0,76,202.48632539995015,,,,,,,,,,,,,,,,,,,,,,,,,,,,,,,,,,,,,,,,,,,,,,,,,,202.4703931999975,202.48632539995015,202.98672399995849,202.96999219997087,202.9738026999985,202.98672399995849,202.98672399995849,202.98672399995849,207.50371389999054,Foils\073a.jpg,none,n,4.5021521000307985,None,,,,,,,,00055,001,2026-01-18_22h10.40.713,MST_test,2024.2.0,59.95861656881497,2026-01-18 22h10.51.666124 +0530,
77,0,78,n,3.22699349996401,None,78,0,77,207.5198478999664,,,,,,,,,,,,,,,,,,,,,,,,,,,,,,,,,,,,,,,,,,,,,,,,,,207.5038060999941,207.5198478999664,208.02010529994732,208.0033874999499,208.00662770000054,208.02010529994732,208.02010529994732,208.02010529994732,211.25371109996922,Foils\033a.jpg,none,n,3.22699349996401,None,,,,,,,,00055,001,2026-01-18_22h10.40.713,MST_test,2024.2.0,59.95861656881497,2026-01-18 22h10.51.666124 +0530,
78,0,79,n,1.2292531999992207,None,79,0,78,211.2698129999917,,,,,,,,,,,,,,,,,,,,,,,,,,,,,,,,,,,,,,,,,,,,,,,,,,211.25380059995223,211.2698129999917,211.76984729996184,211.75337369996123,211.75603930000216,211.76984729996184,211.76984729996184,211.76984729996184,213.0036684999941,Foils\020b.jpg,none,n,1.2292531999992207,None,,,,,,,,00055,001,2026-01-18_22h10.40.713,MST_test,2024.2.0,59.95861656881497,2026-01-18 22h10.51.666124 +0530,
79,0,80,o,1.3594706000294536,None,80,0,79,213.01980769995134,,,,,,,,,,,,,,,,,,,,,,,,,,,,,,,,,,,,,,,,,,,,,,,,,,213.00376049999613,213.01980769995134,213.52000999997836,213.5033046999597,213.5057886999566,213.52000999997836,213.52000999997836,213.52000999997836,214.8870490999543,Objects\058a.jpg,mid,o,1.3594706000294536,None,,,,,,,,00055,001,2026-01-18_22h10.40.713,MST_test,2024.2.0,59.95861656881497,2026-01-18 22h10.51.666124 +0530,
80,0,81,o,3.6195512000122108,None,81,0,80,214.9031185999629,,,,,,,,,,,,,,,,,,,,,,,,,,,,,,,,,,,,,,,,,,,,,,,,,,214.88714179996168,214.9031185999629,215.40408509998815,215.38669149996713,215.38930349994916,215.40408509998815,215.40408509998815,215.40408509998815,219.03700979996938,Objects\043a.jpg,mid,o,3.6195512000122108,None,,,,,,,,00055,001,2026-01-18_22h10.40.713,MST_test,2024.2.0,59.95861656881497,2026-01-18 22h10.51.666124 +0530,
81,0,82,s,1.2390616999473423,None,82,0,81,219.05313679995015,,,,,,,,,,,,,,,,,,,,,,,,,,,,,,,,,,,,,,,,,,,,,,,,,,219.03709889994934,219.05313679995015,219.55325729999458,219.53658459999133,219.54856849997304,219.55325729999458,219.55325729999458,219.55325729999458,220.80381369998213,Objects\039b.jpg,post,s,1.2390616999473423,None,,,,,,,,00055,001,2026-01-18_22h10.40.713,MST_test,2024.2.0,59.95861656881497,2026-01-18 22h10.51.666124 +0530,
82,0,83,s,1.6473894999944605,None,83,0,82,220.819548200001,,,,,,,,,,,,,,,,,,,,,,,,,,,,,,,,,,,,,,,,,,,,,,,,,,220.8039045999758,220.819548200001,221.3201760999509,221.30342039995594,221.3063104999601,221.3201760999509,221.3201760999509,221.3201760999509,222.97051729995292,Objects\340a.jpg,pre,s,1.6473894999944605,None,,,,,,,,00055,001,2026-01-18_22h10.40.713,MST_test,2024.2.0,59.95861656881497,2026-01-18 22h10.51.666124 +0530,
83,0,84,s,1.2962656000163406,None,84,0,83,222.98649069998646,,,,,,,,,,,,,,,,,,,,,,,,,,,,,,,,,,,,,,,,,,,,,,,,,,222.97062609996647,222.98649069998646,223.4868325999705,223.47001559997443,223.4817307999474,223.4868325999705,223.4868325999705,223.4868325999705,224.78707609995035,Objects\281b.jpg,mid,s,1.2962656000163406,None,,,,,,,,00055,001,2026-01-18_22h10.40.713,MST_test,2024.2.0,59.95861656881497,2026-01-18 22h10.51.666124 +0530,
84,0,85,s,4.112313100020401,None,85,0,84,224.8031182999839,,,,,,,,,,,,,,,,,,,,,,,,,,,,,,,,,,,,,,,,,,,,,,,,,,224.78716829995392,224.8031182999839,225.3033679999644,225.28669079998508,225.28970529994695,225.3033679999644,225.3033679999644,225.3033679999644,229.4202470999444,Objects\290b.jpg,mid,s,4.112313100020401,None,,,,,,,,00055,001,2026-01-18_22h10.40.713,MST_test,2024.2.0,59.95861656881497,2026-01-18 22h10.51.666124 +0530,
85,0,86,o,2.758569900004659,None,86,0,85,229.43650319997687,,,,,,,,,,,,,,,,,,,,,,,,,,,,,,,,,,,,,,,,,,,,,,,,,,229.42034829995828,229.43650319997687,229.9368293999578,229.91992449999088,229.92331679997733,229.9368293999578,229.9368293999578,229.9368293999578,232.70368939999025,Objects\080a.jpg,mid,o,2.758569900004659,None,,,,,,,,00055,001,2026-01-18_22h10.40.713,MST_test,2024.2.0,59.95861656881497,2026-01-18 22h10.51.666124 +0530,
86,0,87,o,0.7719831999856979,None,87,0,86,232.7198161999695,,,,,,,,,,,,,,,,,,,,,,,,,,,,,,,,,,,,,,,,,,,,,,,,,,232.70377909997478,232.7198161999695,233.2200324999867,233.20332919998327,233.20740209997166,233.2200324999867,233.2200324999867,233.2200324999867,234.00384909997229,Objects\254a.jpg,pre,o,0.7719831999856979,None,,,,,,,,00055,001,2026-01-18_22h10.40.713,MST_test,2024.2.0,59.95861656881497,2026-01-18 22h10.51.666124 +0530,
87,0,88,n,1.5911864999798127,None,88,0,87,234.0196536000003,,,,,,,,,,,,,,,,,,,,,,,,,,,,,,,,,,,,,,,,,,,,,,,,,,234.0039607999497,234.0196536000003,234.51990600000136,234.50355269998545,234.514454499993,234.51990600000136,234.51990600000136,234.51990600000136,236.12045399995986,Objects\076b.jpg,pre,n,1.5911864999798127,None,,,,,,,,00055,001,2026-01-18_22h10.40.713,MST_test,2024.2.0,59.95861656881497,2026-01-18 22h10.51.666124 +0530,
88,0,89,n,1.4747133000055328,None,89,0,88,236.13642879994586,,,,,,,,,,,,,,,,,,,,,,,,,,,,,,,,,,,,,,,,,,,,,,,,,,236.12055389996385,236.13642879994586,236.63684029999422,236.619799099979,236.62349559995346,236.63684029999422,236.63684029999422,236.63684029999422,238.1200748999836,Objects\267a.jpg,post,n,1.4747133000055328,None,,,,,,,,00055,001,2026-01-18_22h10.40.713,MST_test,2024.2.0,59.95861656881497,2026-01-18 22h10.51.666124 +0530,
89,0,90,o,1.3063710000133142,None,90,0,89,238.13636469998164,,,,,,,,,,,,,,,,,,,,,,,,,,,,,,,,,,,,,,,,,,,,,,,,,,238.1201688000001,238.13636469998164,238.63672449998558,238.6198952999548,238.6232843999751,238.63672449998558,238.63672449998558,238.63672449998558,239.9535200999817,Objects\356a.jpg,post,o,1.3063710000133142,None,,,,,,,,00055,001,2026-01-18_22h10.40.713,MST_test,2024.2.0,59.95861656881497,2026-01-18 22h10.51.666124 +0530,
90,0,91,n,1.7372126000118442,None,91,0,90,239.96965379995527,,,,,,,,,,,,,,,,,,,,,,,,,,,,,,,,,,,,,,,,,,,,,,,,,,239.9536087999586,239.96965379995527,240.4700138999615,240.45328299998073,240.46382529998664,240.4700138999615,240.4700138999615,240.4700138999615,242.22023879998596,Objects\246b.jpg,pre,n,1.7372126000118442,None,,,,,,,,00055,001,2026-01-18_22h10.40.713,MST_test,2024.2.0,59.95861656881497,2026-01-18 22h10.51.666124 +0530,
91,0,92,n,1.0221886999788694,None,92,0,91,242.23785959999077,,,,,,,,,,,,,,,,,,,,,,,,,,,,,,,,,,,,,,,,,,,,,,,,,,242.22033559996635,242.23785959999077,,242.73649029998342,242.73925139999483,242.75337289995514,242.75337289995514,242.75337289995514,243.78696429997217,Foils\065a.jpg,none,n,1.0221886999788694,None,,,,,,,,00055,001,2026-01-18_22h10.40.713,MST_test,2024.2.0,59.95861656881497,2026-01-18 22h10.51.666124 +0530,
92,0,93,o,1.1602874000091106,None,93,0,92,243.803470999992,,,,,,,,,,,,,,,,,,,,,,,,,,,,,,,,,,,,,,,,,,,,,,,,,,243.7870565999765,243.803470999992,244.30348609999055,244.28665069997078,244.28937989997212,244.30348609999055,244.30348609999055,244.30348609999055,245.47026719996938,Objects\195a.jpg,mid,o,1.1602874000091106,None,,,,,,,,00055,001,2026-01-18_22h10.40.713,MST_test,2024.2.0,59.95861656881497,2026-01-18 22h10.51.666124 +0530,
93,0,94,o,1.4456671999651007,None,94,0,93,245.48636629997054,,,,,,,,,,,,,,,,,,,,,,,,,,,,,,,,,,,,,,,,,,,,,,,,,,245.47036369994748,245.48636629997054,245.98671299999114,245.96986789995572,245.9810257999925,245.98671299999114,245.98671299999114,245.98671299999114,247.4368585999473,Objects\243b.jpg,pre,o,1.4456671999651007,None,,,,,,,,00055,001,2026-01-18_22h10.40.713,MST_test,2024.2.0,59.95861656881497,2026-01-18 22h10.51.666124 +0530,
94,0,95,o,0.8459659999934956,None,95,0,94,247.45304469997063,,,,,,,,,,,,,,,,,,,,,,,,,,,,,,,,,,,,,,,,,,,,,,,,,,247.43694749998394,247.45304469997063,247.95351859997027,247.93662829999812,247.94734369998332,247.95351859997027,247.95351859997027,247.95351859997027,248.80405069998233,Objects\259b.jpg,post,o,0.8459659999934956,None,,,,,,,,00055,001,2026-01-18_22h10.40.713,MST_test,2024.2.0,59.95861656881497,2026-01-18 22h10.51.666124 +0530,
95,0,96,o,0.9208604999585077,None,96,0,95,248.8197944999556,,,,,,,,,,,,,,,,,,,,,,,,,,,,,,,,,,,,,,,,,,,,,,,,,,248.8041606999468,248.8197944999556,249.32003249996342,249.30347419995815,249.31464729999425,249.32003249996342,249.32003249996342,249.32003249996342,250.25360009999713,Objects\013b.jpg,mid,o,0.9208604999585077,None,,,,,,,,00055,001,2026-01-18_22h10.40.713,MST_test,2024.2.0,59.95861656881497,2026-01-18 22h10.51.666124 +0530,
96,0,97,n,6.01369789999444,None,97,0,96,250.26991789997555,,,,,,,,,,,,,,,,,,,,,,,,,,,,,,,,,,,,,,,,,,,,,,,,,,250.25368849997176,250.26991789997555,250.76988149998942,250.7532270999509,250.75589749997016,250.76988149998942,250.76988149998942,250.76988149998942,256.78704659995856,Objects\148b.jpg,pre,n,6.01369789999444,None,,,,,,,,00055,001,2026-01-18_22h10.40.713,MST_test,2024.2.0,59.95861656881497,2026-01-18 22h10.51.666124 +0530,
97,0,98,o,3.871560600004159,None,98,0,97,256.8030390999629,,,,,,,,,,,,,,,,,,,,,,,,,,,,,,,,,,,,,,,,,,,,,,,,,,256.78713999997126,256.8030390999629,257.3035901999683,257.2866022999515,257.29688419995364,257.3035901999683,257.3035901999683,257.3035901999683,261.18715389998397,Objects\199b.jpg,post,o,3.871560600004159,None,,,,,,,,00055,001,2026-01-18_22h10.40.713,MST_test,2024.2.0,59.95861656881497,2026-01-18 22h10.51.666124 +0530,
98,0,99,o,1.520125699986238,None,99,0,98,261.2030806999537,,,,,,,,,,,,,,,,,,,,,,,,,,,,,,,,,,,,,,,,,,,,,,,,,,261.18724859994836,261.2030806999537,261.70343709998997,261.68661679996876,261.69714649999514,261.70343709998997,261.70343709998997,261.70343709998997,263.23698039999,Objects\068b.jpg,pre,o,1.520125699986238,None,,,,,,,,00055,001,2026-01-18_22h10.40.713,MST_test,2024.2.0,59.95861656881497,2026-01-18 22h10.51.666124 +0530,
99,0,100,n,1.5820617999997921,None,100,0,99,263.25312089995714,,,,,,,,,,,,,,,,,,,,,,,,,,,,,,,,,,,,,,,,,,,,,,,,,,263.2370690999669,263.25312089995714,263.75341319997096,263.73661019996507,263.74623489996884,263.75341319997096,263.75341319997096,263.75341319997096,265.3370781999547,Objects\255b.jpg,mid,n,1.5820617999997921,None,,,,,,,,00055,001,2026-01-18_22h10.40.713,MST_test,2024.2.0,59.95861656881497,2026-01-18 22h10.51.666124 +0530,
100,0,101,o,1.23502780002309,None,101,0,100,265.3531196999829,,,,,,,,,,,,,,,,,,,,,,,,,,,,,,,,,,,,,,,,,,,,,,,,,,265.33717099996284,265.3531196999829,265.85337989998516,265.8366864999989,265.8468931999523,265.85337989998516,265.85337989998516,265.85337989998516,267.1036192999454,Objects\209b.jpg,post,o,1.23502780002309,None,,,,,,,,00055,001,2026-01-18_22h10.40.713,MST_test,2024.2.0,59.95861656881497,2026-01-18 22h10.51.666124 +0530,
101,0,102,s,1.5872635999694467,None,102,0,101,267.1201529999962,,,,,,,,,,,,,,,,,,,,,,,,,,,,,,,,,,,,,,,,,,,,,,,,,,267.1037088999874,267.1201529999962,267.6200564999599,267.60323690000223,267.6063021000009,267.6200564999599,267.6200564999599,267.6200564999599,269.2201868999982,Foils\106a.jpg,none,s,1.5872635999694467,None,,,,,,,,00055,001,2026-01-18_22h10.40.713,MST_test,2024.2.0,59.95861656881497,2026-01-18 22h10.51.666124 +0530,
102,0,103,o,0.7042568000033498,None,103,0,102,269.23649899999145,,,,,,,,,,,,,,,,,,,,,,,,,,,,,,,,,,,,,,,,,,,,,,,,,,269.22028069995577,269.23649899999145,269.7367169999634,269.72038349998184,269.7234435999999,269.7367169999634,269.7367169999634,269.7367169999634,270.4535163999535,Objects\339a.jpg,mid,o,0.7042568000033498,None,,,,,,,,00055,001,2026-01-18_22h10.40.713,MST_test,2024.2.0,59.95861656881497,2026-01-18 22h10.51.666124 +0530,
103,0,104,n,1.3659811000106856,None,104,0,103,270.46958789997734,,,,,,,,,,,,,,,,,,,,,,,,,,,,,,,,,,,,,,,,,,,,,,,,,,270.4536051999894,270.46958789997734,270.97000469994964,270.95334399997955,270.96548989997245,270.97000469994964,270.97000469994964,270.97000469994964,272.3368809999665,Objects\237b.jpg,post,n,1.3659811000106856,None,,,,,,,,00055,001,2026-01-18_22h10.40.713,MST_test,2024.2.0,59.95861656881497,2026-01-18 22h10.51.666124 +0530,
104,0,105,o,4.233819400018547,None,105,0,104,272.3531465999549,,,,,,,,,,,,,,,,,,,,,,,,,,,,,,,,,,,,,,,,,,,,,,,,,,272.3369793999591,272.3531465999549,272.8532167999656,272.8365449999692,272.84658859996125,272.8532167999656,272.8532167999656,272.8532167999656,277.1039302999852,Objects\279b.jpg,mid,o,4.233819400018547,None,,,,,,,,00055,001,2026-01-18_22h10.40.713,MST_test,2024.2.0,59.95861656881497,2026-01-18 22h10.51.666124 +0530,
105,0,106,o,1.2040205000084825,None,106,0,105,277.1196416999446,,,,,,,,,,,,,,,,,,,,,,,,,,,,,,,,,,,,,,,,,,,,,,,,,,277.1040197999682,277.1196416999446,277.6198169999989,277.60335609997855,277.6136695999885,277.6198169999989,277.6198169999989,277.6198169999989,278.83703439997043,Objects\138b.jpg,mid,o,1.2040205000084825,None,,,,,,,,00055,001,2026-01-18_22h10.40.713,MST_test,2024.2.0,59.95861656881497,2026-01-18 22h10.51.666124 +0530,
106,0,107,o,0.622599300055299,None,107,0,106,278.8529631999554,,,,,,,,,,,,,,,,,,,,,,,,,,,,,,,,,,,,,,,,,,,,,,,,,,278.8371228999458,278.8529631999554,279.3532475999673,279.3366271999548,279.3392654999625,279.3532475999673,279.3532475999673,279.3532475999673,279.98691169999074,Objects\114b.jpg,pre,o,0.622599300055299,None,,,,,,,,00055,001,2026-01-18_22h10.40.713,MST_test,2024.2.0,59.95861656881497,2026-01-18 22h10.51.666124 +0530,
107,0,108,s,1.4722477000323124,None,108,0,107,280.00300529995,,,,,,,,,,,,,,,,,,,,,,,,,,,,,,,,,,,,,,,,,,,,,,,,,,279.98700269998517,280.00300529995,280.50329859997146,280.4866718999692,280.48953849996906,280.50329859997146,280.50329859997146,280.50329859997146,281.98702889995184,Objects\162a.jpg,post,s,1.4722477000323124,None,,,,,,,,00055,001,2026-01-18_22h10.40.713,MST_test,2024.2.0,59.95861656881497,2026-01-18 22h10.51.666124 +0530,
108,0,109,s,1.632005500025116,None,109,0,108,282.0030810999451,,,,,,,,,,,,,,,,,,,,,,,,,,,,,,,,,,,,,,,,,,,,,,,,,,281.9871226999676,282.0030810999451,282.5032684999751,282.4866207999876,282.4966492999811,282.5032684999751,282.5032684999751,282.5032684999751,284.13720659998944,Objects\006b.jpg,post,s,1.632005500025116,None,,,,,,,,00055,001,2026-01-18_22h10.40.713,MST_test,2024.2.0,59.95861656881497,2026-01-18 22h10.51.666124 +0530,
109,0,110,o,2.3620972000062466,None,110,0,109,284.152994199947,,,,,,,,,,,,,,,,,,,,,,,,,,,,,,,,,,,,,,,,,,,,,,,,,,284.13730639999267,284.152994199947,284.6532512999838,284.63662179996027,284.63903599994956,284.6532512999838,284.6532512999838,284.6532512999838,287.0202119999449,Objects\057a.jpg,post,o,2.3620972000062466,None,,,,,,,,00055,001,2026-01-18_22h10.40.713,MST_test,2024.2.0,59.95861656881497,2026-01-18 22h10.51.666124 +0530,
110,0,111,n,1.7910417999955826,None,111,0,110,287.0364156999858,,,,,,,,,,,,,,,,,,,,,,,,,,,,,,,,,,,,,,,,,,,,,,,,,,287.0203114999458,287.0364156999858,287.5365308999899,287.5198351999861,287.52251239999896,287.5365308999899,287.5365308999899,287.5365308999899,289.33693579997635,Objects\192a.jpg,post,n,1.7910417999955826,None,,,,,,,,00055,001,2026-01-18_22h10.40.713,MST_test,2024.2.0,59.95861656881497,2026-01-18 22h10.51.666124 +0530,
111,0,112,n,3.433995000028517,None,112,0,111,289.3530597999925,,,,,,,,,,,,,,,,,,,,,,,,,,,,,,,,,,,,,,,,,,,,,,,,,,289.33702499995707,289.3530597999925,289.85351159999846,289.8365511999582,289.8475229999749,289.85351159999846,289.85351159999846,289.85351159999846,293.30364129994996,Objects\226b.jpg,mid,n,3.433995000028517,None,,,,,,,,00055,001,2026-01-18_22h10.40.713,MST_test,2024.2.0,59.95861656881497,2026-01-18 22h10.51.666124 +0530,
112,0,113,o,5.387260499992408,None,113,0,112,293.31956929998705,,,,,,,,,,,,,,,,,,,,,,,,,,,,,,,,,,,,,,,,,,,,,,,,,,293.3037317999988,293.31956929998705,293.81991189997643,293.8033609999693,293.8068498999928,293.81991189997643,293.81991189997643,293.81991189997643,299.2202987999772,Objects\161a.jpg,mid,o,5.387260499992408,None,,,,,,,,00055,001,2026-01-18_22h10.40.713,MST_test,2024.2.0,59.95861656881497,2026-01-18 22h10.51.666124 +0530,
113,0,114,o,3.2944897999987006,None,114,0,113,299.23868449998554,,,,,,,,,,,,,,,,,,,,,,,,,,,,,,,,,,,,,,,,,,,,,,,,,,299.2203884999617,299.23868449998554,,299.73640899994643,299.73940679995576,299.75318839994725,299.75318839994725,299.75318839994725,303.05359189998126,Objects\022a.jpg,post,o,3.2944897999987006,None,,,,,,,,00055,001,2026-01-18_22h10.40.713,MST_test,2024.2.0,59.95861656881497,2026-01-18 22h10.51.666124 +0530,
114,0,115,o,0.781428300018888,None,115,0,114,303.0695390999899,,,,,,,,,,,,,,,,,,,,,,,,,,,,,,,,,,,,,,,,,,,,,,,,,,303.05368379998254,303.0695390999899,303.5697523999843,303.5532238999731,303.55570469994564,303.5697523999843,303.5697523999843,303.5697523999843,304.353638999979,Foils\050a.jpg,none,o,0.781428300018888,None,,,,,,,,00055,001,2026-01-18_22h10.40.713,MST_test,2024.2.0,59.95861656881497,2026-01-18 22h10.51.666124 +0530,
115,0,116,o,1.1775033999583684,None,116,0,115,304.3696520999656,,,,,,,,,,,,,,,,,,,,,,,,,,,,,,,,,,,,,,,,,,,,,,,,,,304.3537282999605,304.3696520999656,304.86984509998,304.85339179995935,304.85575989994686,304.86984509998,304.86984509998,304.86984509998,306.0540869999677,Objects\046b.jpg,post,o,1.1775033999583684,None,,,,,,,,00055,001,2026-01-18_22h10.40.713,MST_test,2024.2.0,59.95861656881497,2026-01-18 22h10.51.666124 +0530,
116,0,117,n,1.2136047999956645,None,117,0,116,306.06984689994715,,,,,,,,,,,,,,,,,,,,,,,,,,,,,,,,,,,,,,,,,,,,,,,,,,306.0541872999747,306.06984689994715,306.56979179999325,306.553302299988,306.56312339997385,306.56979179999325,306.56979179999325,306.56979179999325,307.7870322999661,Objects\003b.jpg,post,n,1.2136047999956645,None,,,,,,,,00055,001,2026-01-18_22h10.40.713,MST_test,2024.2.0,59.95861656881497,2026-01-18 22h10.51.666124 +0530,
117,0,118,n,0.8879201000090688,None,118,0,117,307.80307339999126,,,,,,,,,,,,,,,,,,,,,,,,,,,,,,,,,,,,,,,,,,,,,,,,,,307.7871237999643,307.80307339999126,308.3033989999676,308.2868637999636,308.29736179998145,308.3033989999676,308.3033989999676,308.3033989999676,309.2036203999887,Foils\098a.jpg,none,n,0.8879201000090688,None,,,,,,,,00055,001,2026-01-18_22h10.40.713,MST_test,2024.2.0,59.95861656881497,2026-01-18 22h10.51.666124 +0530,
118,0,119,n,1.232462999993004,None,119,0,118,309.219584699953,,,,,,,,,,,,,,,,,,,,,,,,,,,,,,,,,,,,,,,,,,,,,,,,,,309.2037130999961,309.219584699953,309.7199315999751,309.70329099998344,309.7130882999627,309.7199315999751,309.7199315999751,309.7199315999751,310.95360319997417,Foils\034a.jpg,none,n,1.232462999993004,None,,,,,,,,00055,001,2026-01-18_22h10.40.713,MST_test,2024.2.0,59.95861656881497,2026-01-18 22h10.51.666124 +0530,
119,0,120,n,1.3946042999741621,None,120,0,119,310.9696480999701,,,,,,,,,,,,,,,,,,,,,,,,,,,,,,,,,,,,,,,,,,,,,,,,,,310.95369249995565,310.9696480999701,311.46985080000013,311.45350539998617,311.45622599998023,311.46985080000013,311.46985080000013,311.46985080000013,312.87022819998674,Foils\121a.jpg,none,n,1.3946042999741621,None,,,,,,,,00055,001,2026-01-18_22h10.40.713,MST_test,2024.2.0,59.95861656881497,2026-01-18 22h10.51.666124 +0530,
120,0,121,o,1.1970232999883592,None,121,0,120,312.88631219998933,,,,,,,,,,,,,,,,,,,,,,,,,,,,,,,,,,,,,,,,,,,,,,,,,,312.8703172999667,312.88631219998933,313.3866394999786,313.3698228999856,313.38027939997846,313.3866394999786,313.3866394999786,313.3866394999786,314.5870934999548,Objects\145b.jpg,mid,o,1.1970232999883592,None,,,,,,,,00055,001,2026-01-18_22h10.40.713,MST_test,2024.2.0,59.95861656881497,2026-01-18 22h10.51.666124 +0530,
121,0,122,s,8.856237999978475,None,122,0,121,314.60306379996473,,,,,,,,,,,,,,,,,,,,,,,,,,,,,,,,,,,,,,,,,,,,,,,,,,314.5871857999591,314.60306379996473,315.1033302999567,315.08667059999425,315.08926799998153,315.1033302999567,315.1033302999567,315.1033302999567,323.9702420999529,Objects\301b.jpg,mid,s,8.856237999978475,None,,,,,,,,00055,001,2026-01-18_22h10.40.713,MST_test,2024.2.0,59.95861656881497,2026-01-18 22h10.51.666124 +0530,
122,0,123,s,1.2013818999985233,None,123,0,122,323.98650859994814,,,,,,,,,,,,,,,,,,,,,,,,,,,,,,,,,,,,,,,,,,,,,,,,,,323.9703320999979,323.98650859994814,324.4869329999783,324.47017049998976,324.4733919999562,324.4869329999783,324.4869329999783,324.4869329999783,325.70399109995924,Objects\336a.jpg,post,s,1.2013818999985233,None,,,,,,,,00055,001,2026-01-18_22h10.40.713,MST_test,2024.2.0,59.95861656881497,2026-01-18 22h10.51.666124 +0530,
123,0,124,n,1.635530400031712,None,124,0,123,325.7199486999889,,,,,,,,,,,,,,,,,,,,,,,,,,,,,,,,,,,,,,,,,,,,,,,,,,325.7040874999948,325.7199486999889,326.2202135999687,326.203599499946,326.20689469994977,326.2202135999687,326.2202135999687,326.2202135999687,327.87060949997976,Foils\018a.jpg,none,n,1.635530400031712,None,,,,,,,,00055,001,2026-01-18_22h10.40.713,MST_test,2024.2.0,59.95861656881497,2026-01-18 22h10.51.666124 +0530,
124,0,125,o,1.4850157999899238,None,125,0,124,327.88644409994595,,,,,,,,,,,,,,,,,,,,,,,,,,,,,,,,,,,,,,,,,,,,,,,,,,327.8707144999644,327.88644409994595,328.3867960999487,328.37007759994594,328.38042669999413,328.3867960999487,328.3867960999487,328.3867960999487,329.8871644999599,Objects\059b.jpg,mid,o,1.4850157999899238,None,,,,,,,,00055,001,2026-01-18_22h10.40.713,MST_test,2024.2.0,59.95861656881497,2026-01-18 22h10.51.666124 +0530,
125,0,126,o,0.9156968999886885,None,126,0,125,329.9032127999817,,,,,,,,,,,,,,,,,,,,,,,,,,,,,,,,,,,,,,,,,,,,,,,,,,329.8872604999924,329.9032127999817,330.4034786999691,330.38674319995334,330.3964599999599,330.4034786999691,330.4034786999691,330.4034786999691,331.32057419995544,Objects\052b.jpg,post,o,0.9156968999886885,None,,,,,,,,00055,001,2026-01-18_22h10.40.713,MST_test,2024.2.0,59.95861656881497,2026-01-18 22h10.51.666124 +0530,
126,0,127,o,0.8037064999807626,None,127,0,126,331.3364044999471,,,,,,,,,,,,,,,,,,,,,,,,,,,,,,,,,,,,,,,,,,,,,,,,,,331.320666399959,331.3364044999471,331.8366419999511,331.8201285999967,331.8315895999549,331.8366419999511,331.8366419999511,331.8366419999511,332.6537395999767,Objects\348b.jpg,pre,o,0.8037064999807626,None,,,,,,,,00055,001,2026-01-18_22h10.40.713,MST_test,2024.2.0,59.95861656881497,2026-01-18 22h10.51.666124 +0530,
127,0,128,o,0.5812267999863252,None,128,0,127,332.66981829999713,,,,,,,,,,,,,,,,,,,,,,,,,,,,,,,,,,,,,,,,,,,,,,,,,,332.6538290999597,332.66981829999713,333.170023099985,333.15351309999824,333.15602289995877,333.170023099985,333.170023099985,333.170023099985,333.7537670999882,Objects\025a.jpg,pre,o,0.5812267999863252,None,,,,,,,,00055,001,2026-01-18_22h10.40.713,MST_test,2024.2.0,59.95861656881497,2026-01-18 22h10.51.666124 +0530,
128,0,129,n,2.073418199957814,None,129,0,128,333.7698574999813,,,,,,,,,,,,,,,,,,,,,,,,,,,,,,,,,,,,,,,,,,,,,,,,,,333.7538560999674,333.7698574999813,334.2702269000001,334.2534503999632,334.25683829997433,334.2702269000001,334.2702269000001,334.2702269000001,336.353767899971,Objects\358a.jpg,mid,n,2.073418199957814,None,,,,,,,,00055,001,2026-01-18_22h10.40.713,MST_test,2024.2.0,59.95861656881497,2026-01-18 22h10.51.666124 +0530,
129,0,130,o,1.4659342999802902,None,130,0,129,336.3696631999919,,,,,,,,,,,,,,,,,,,,,,,,,,,,,,,,,,,,,,,,,,,,,,,,,,336.35386109998217,336.3696631999919,336.8702003999497,336.8536490999977,336.85680079995655,336.8702003999497,336.8702003999497,336.8702003999497,338.33712439995725,Objects\094a.jpg,mid,o,1.4659342999802902,None,,,,,,,,00055,001,2026-01-18_22h10.40.713,MST_test,2024.2.0,59.95861656881497,2026-01-18 22h10.51.666124 +0530,
130,0,131,s,6.7696494000265375,None,131,0,130,338.3531838999479,,,,,,,,,,,,,,,,,,,,,,,,,,,,,,,,,,,,,,,,,,,,,,,,,,338.3372153999517,338.3531838999479,338.85350129997823,338.8368060999783,338.838896799949,338.85350129997823,338.85350129997823,338.85350129997823,345.63697890000185,Objects\270a.jpg,post,s,6.7696494000265375,None,,,,,,,,00055,001,2026-01-18_22h10.40.713,MST_test,2024.2.0,59.95861656881497,2026-01-18 22h10.51.666124 +0530,
131,0,132,s,1.5098789000185207,None,132,0,131,345.65318699995987,,,,,,,,,,,,,,,,,,,,,,,,,,,,,,,,,,,,,,,,,,,,,,,,,,345.6370672999765,345.65318699995987,346.15365739999106,346.1367409999948,346.14005309995264,346.15365739999106,346.15365739999106,346.15365739999106,347.67049609997775,Foils\074a.jpg,none,s,1.5098789000185207,None,,,,,,,,00055,001,2026-01-18_22h10.40.713,MST_test,2024.2.0,59.95861656881497,2026-01-18 22h10.51.666124 +0530,
132,0,133,o,1.4283771000336856,None,133,0,132,347.68653949996224,,,,,,,,,,,,,,,,,,,,,,,,,,,,,,,,,,,,,,,,,,,,,,,,,,347.670591699949,347.68653949996224,348.18675469997106,348.170077399991,348.18020089995116,348.18675469997106,348.18675469997106,348.18675469997106,349.62030169996433,Objects\223b.jpg,pre,o,1.4283771000336856,None,,,,,,,,00055,001,2026-01-18_22h10.40.713,MST_test,2024.2.0,59.95861656881497,2026-01-18 22h10.51.666124 +0530,
133,0,134,o,0.9749843000317924,None,134,0,133,349.6364288999466,,,,,,,,,,,,,,,,,,,,,,,,,,,,,,,,,,,,,,,,,,,,,,,,,,349.6203945999732,349.6364288999466,350.13670749997254,350.1201030999655,350.1226465999498,350.13670749997254,350.13670749997254,350.13670749997254,351.12022899999283,Foils\057a.jpg,none,o,0.9749843000317924,None,,,,,,,,00055,001,2026-01-18_22h10.40.713,MST_test,2024.2.0,59.95861656881497,2026-01-18 22h10.51.666124 +0530,
134,0,135,o,0.6902476000250317,None,135,0,134,351.13651109999046,,,,,,,,,,,,,,,,,,,,,,,,,,,,,,,,,,,,,,,,,,,,,,,,,,351.12031769996975,351.13651109999046,351.6368873999454,351.6199857999454,351.62315999995917,351.6368873999454,351.6368873999454,351.6368873999454,352.3370941999601,Objects\325a.jpg,pre,o,0.6902476000250317,None,,,,,,,,00055,001,2026-01-18_22h10.40.713,MST_test,2024.2.0,59.95861656881497,2026-01-18 22h10.51.666124 +0530,
135,0,136,o,3.073660900001414,None,136,0,135,352.3531440999941,,,,,,,,,,,,,,,,,,,,,,,,,,,,,,,,,,,,,,,,,,,,,,,,,,352.3371834999998,352.3531440999941,,352.83743249997497,352.84186429996043,352.8535655000014,352.8535655000014,352.8535655000014,355.9369677999639,Objects\233a.jpg,pre,o,3.073660900001414,None,,,,,,,,00055,001,2026-01-18_22h10.40.713,MST_test,2024.2.0,59.95861656881497,2026-01-18 22h10.51.666124 +0530,
136,0,137,o,0.809825100004673,None,137,0,136,355.95319699996617,,,,,,,,,,,,,,,,,,,,,,,,,,,,,,,,,,,,,,,,,,,,,,,,,,355.93705739994766,355.95319699996617,356.45354999997653,356.4369090999826,356.439969799947,356.45354999997653,356.45354999997653,356.45354999997653,357.2704499999527,Objects\124a.jpg,post,o,0.809825100004673,None,,,,,,,,00055,001,2026-01-18_22h10.40.713,MST_test,2024.2.0,59.95861656881497,2026-01-18 22h10.51.666124 +0530,
137,0,138,o,1.8212103999685496,None,138,0,137,357.2864663999644,,,,,,,,,,,,,,,,,,,,,,,,,,,,,,,,,,,,,,,,,,,,,,,,,,357.2705365999718,357.2864663999644,357.78669759997865,357.76994559995364,357.7725719999871,357.78669759997865,357.78669759997865,357.78669759997865,359.6203325999668,Objects\069a.jpg,post,o,1.8212103999685496,None,,,,,,,,00055,001,2026-01-18_22h10.40.713,MST_test,2024.2.0,59.95861656881497,2026-01-18 22h10.51.666124 +0530,
138,0,139,o,0.89570090000052,None,139,0,138,359.63650469999993,,,,,,,,,,,,,,,,,,,,,,,,,,,,,,,,,,,,,,,,,,,,,,,,,,359.62042399996426,359.63650469999993,360.13673149998067,360.12008409999544,360.12276209995616,360.13673149998067,360.13673149998067,360.13673149998067,361.0369987000013,Foils\101b.jpg,none,o,0.89570090000052,None,,,,,,,,00055,001,2026-01-18_22h10.40.713,MST_test,2024.2.0,59.95861656881497,2026-01-18 22h10.51.666124 +0530,
139,0,140,o,3.8867349999491125,None,140,0,139,361.05317169998307,,,,,,,,,,,,,,,,,,,,,,,,,,,,,,,,,,,,,,,,,,,,,,,,,,361.0370889999904,361.05317169998307,361.55328789999476,361.53677209996385,361.54679699998815,361.55328789999476,361.55328789999476,361.55328789999476,365.45372900000075,Objects\062b.jpg,pre,o,3.8867349999491125,None,,,,,,,,00055,001,2026-01-18_22h10.40.713,MST_test,2024.2.0,59.95861656881497,2026-01-18 22h10.51.666124 +0530,
140,0,141,o,1.3740300000063144,None,141,0,140,365.4698347999947,,,,,,,,,,,,,,,,,,,,,,,,,,,,,,,,,,,,,,,,,,,,,,,,,,365.4538230999606,365.4698347999947,365.9699478999828,365.95338249998167,365.9561719999765,365.9699478999828,365.9699478999828,365.9699478999828,367.3536703999853,Objects\021a.jpg,mid,o,1.3740300000063144,None,,,,,,,,00055,001,2026-01-18_22h10.40.713,MST_test,2024.2.0,59.95861656881497,2026-01-18 22h10.51.666124 +0530,
141,0,142,o,1.7859408999793231,None,142,0,141,367.36959149996983,,,,,,,,,,,,,,,,,,,,,,,,,,,,,,,,,,,,,,,,,,,,,,,,,,367.3537636999972,367.36959149996983,367.87003329995787,367.8534710999811,367.85588779998943,367.87003329995787,367.87003329995787,367.87003329995787,369.6703623999492,Objects\044a.jpg,pre,o,1.7859408999793231,None,,,,,,,,00055,001,2026-01-18_22h10.40.713,MST_test,2024.2.0,59.95861656881497,2026-01-18 22h10.51.666124 +0530,
142,0,143,n,2.213192099996377,None,143,0,142,369.68651509995107,,,,,,,,,,,,,,,,,,,,,,,,,,,,,,,,,,,,,,,,,,,,,,,,,,369.6704571999726,369.68651509995107,370.1869387999759,370.1700559000019,370.17357359995367,370.1869387999759,370.1869387999759,370.1869387999759,372.4039264000021,Objects\291a.jpg,mid,n,2.213192099996377,None,,,,,,,,00055,001,2026-01-18_22h10.40.713,MST_test,2024.2.0,59.95861656881497,2026-01-18 22h10.51.666124 +0530,
143,0,144,n,0.927371800004039,None,144,0,143,372.4198266999447,,,,,,,,,,,,,,,,,,,,,,,,,,,,,,,,,,,,,,,,,,,,,,,,,,372.4040272999555,372.4198266999447,372.92024459998356,372.9033873999724,372.91457279998576,372.92024459998356,372.92024459998356,372.92024459998356,373.8539864999475,Objects\381b.jpg,pre,n,0.927371800004039,None,,,,,,,,00055,001,2026-01-18_22h10.40.713,MST_test,2024.2.0,59.95861656881497,2026-01-18 22h10.51.666124 +0530,
144,0,145,n,0.49288760003400967,None,145,0,144,373.8697069999762,,,,,,,,,,,,,,,,,,,,,,,,,,,,,,,,,,,,,,,,,,,,,,,,,,373.85410199995385,373.8697069999762,374.37025399995036,374.35343529999955,374.35746989998734,374.37025399995036,374.37025399995036,374.37025399995036,374.8703558999696,Foils\002a.jpg,none,n,0.49288760003400967,None,,,,,,,,00055,001,2026-01-18_22h10.40.713,MST_test,2024.2.0,59.95861656881497,2026-01-18 22h10.51.666124 +0530,
145,0,146,n,0.9015827999683097,None,146,0,145,374.8865000999649,,,,,,,,,,,,,,,,,,,,,,,,,,,,,,,,,,,,,,,,,,,,,,,,,,374.870444799948,374.8865000999649,375.38675039994996,375.37004269997124,375.3728659999906,375.38675039994996,375.38675039994996,375.38675039994996,376.3037805999629,Foils\009a.jpg,none,n,0.9015827999683097,None,,,,,,,,00055,001,2026-01-18_22h10.40.713,MST_test,2024.2.0,59.95861656881497,2026-01-18 22h10.51.666124 +0530,
146,0,147,n,0.9237282000249252,None,147,0,146,376.319552299974,,,,,,,,,,,,,,,,,,,,,,,,,,,,,,,,,,,,,,,,,,,,,,,,,,376.3038801999646,376.319552299974,376.81995559995994,376.8034070999711,376.81351509998785,376.81995559995994,376.81995559995994,376.81995559995994,377.7538045999827,Objects\104b.jpg,post,n,0.9237282000249252,None,,,,,,,,00055,001,2026-01-18_22h10.40.713,MST_test,2024.2.0,59.95861656881497,2026-01-18 22h10.51.666124 +0530,
147,0,148,n,0.6973230000003241,None,148,0,147,377.7697128999862,,,,,,,,,,,,,,,,,,,,,,,,,,,,,,,,,,,,,,,,,,,,,,,,,,377.75389419996645,377.7697128999862,378.2698039999814,378.25353409996023,378.25625169998966,378.2698039999814,378.2698039999814,378.2698039999814,378.9705732999719,Objects\129a.jpg,pre,n,0.6973230000003241,None,,,,,,,,00055,001,2026-01-18_22h10.40.713,MST_test,2024.2.0,59.95861656881497,2026-01-18 22h10.51.666124 +0530,
148,0,149,n,1.3703509999904782,None,149,0,148,378.9865026999614,,,,,,,,,,,,,,,,,,,,,,,,,,,,,,,,,,,,,,,,,,,,,,,,,,378.9706706999568,378.9865026999614,379.4866887999815,379.4701224999735,379.4800333000021,379.4866887999815,379.4866887999815,379.4866887999815,380.8702600999968,Objects\178b.jpg,pre,n,1.3703509999904782,None,,,,,,,,00055,001,2026-01-18_22h10.40.713,MST_test,2024.2.0,59.95861656881497,2026-01-18 22h10.51.666124 +0530,
149,0,150,n,0.98123780003516,None,150,0,149,380.8865386999678,,,,,,,,,,,,,,,,,,,,,,,,,,,,,,,,,,,,,,,,,,,,,,,,,,380.8703495999798,380.8865386999678,381.38672529999167,381.370057299966,381.37247829994885,381.38672529999167,381.38672529999167,381.38672529999167,382.3703247999656,Objects\097a.jpg,mid,n,0.98123780003516,None,,,,,,,,00055,001,2026-01-18_22h10.40.713,MST_test,2024.2.0,59.95861656881497,2026-01-18 22h10.51.666124 +0530,
,,,,,,,,,,,,,,,,,,,,,,,,,,,,,,,,,,,,,,,,,,,,,,,,,,,,,,,,,,,,,,,,,,,,,,,,,382.3703922999557,382.3865536999656,382.3865536999656,390.6701049999683,space,8.269630099995993,None,00055,001,2026-01-18_22h10.40.713,MST_test,2024.2.0,59.95861656881497,2026-01-18 22h10.51.666124 +0530,
