Sl_no,image_path,thisN,thisTrialN,thisRepN,key_resp_5.keys,key_resp_7.keys,key_resp_7.rt,key_resp_7.duration,key_resp_5.rt,key_resp_5.duration,key_resp_9.keys,key_resp_9.rt,key_resp_9.duration,key_resp_8.keys,key_resp_8.rt,key_resp_8.duration,practice.thisRepN,practice.thisTrialN,practice.thisN,trials.thisRepN,trials.thisTrialN,trials.thisN,thisRow.t,notes,welcome_page.started,text.started,key_resp.started,welcome_page.stopped,key_resp.keys,key_resp.rt,key_resp.duration,instructions.started,ins.started,key_resp_2.started,instructions.stopped,key_resp_2.keys,key_resp_2.rt,key_resp_2.duration,objects_only_instruction.started,text_3.started,key_resp_3.started,objects_only_instruction.stopped,key_resp_3.keys,key_resp_3.rt,key_resp_3.duration,ISI.started,text_4.started,ISI.stopped,practice_block.started,image.started,key_resp_5.started,text_5.started,practice_block.stopped,practice.key_resp_5.keys,indoor_outdoor.started,text_7.started,key_resp_7.started,indoor_outdoor.stopped,practice.key_resp_7.keys,practice.key_resp_7.rt,practice.key_resp_7.duration,text_4.stopped,image.stopped,key_resp_5.stopped,text_5.stopped,practice.key_resp_5.rt,practice.key_resp_5.duration,practice_to_main.started,text_2.started,key_resp_4.started,practice_to_main.stopped,key_resp_4.keys,key_resp_4.rt,key_resp_4.duration,objects.started,image_2.started,text_9.started,key_resp_9.started,image_2.stopped,text_9.stopped,key_resp_9.stopped,objects.stopped,category,trials.key_resp_9.keys,trials.key_resp_9.rt,trials.key_resp_9.duration,encoding_task.started,encoding_task.stopped,trials.key_resp_8.keys,text_8.started,key_resp_8.started,trials.key_resp_8.rt,trials.key_resp_8.duration,end_experiment.started,text_6.started,key_resp_6.started,end_experiment.stopped,key_resp_6.keys,key_resp_6.rt,key_resp_6.duration,list_of_stimuli,encoding_task_accuracy,participant,session,date,expName,psychopyVersion,frameRate,expStart,
,,,,,,,,,,,,,,,,,,,,,,,,,0.0012594000436365604,0.0027402000268921256,0.0027402000268921256,2653.4370386000373,space,2653.3657048000023,None,,,,,,,,,,,,,,,,,,,,,,,,,,,,,,,,,,,,,,,,,,,,,,,,,,,,,,,,,,,,,,,,,,,,,,,,00064,001,2026-01-20_10h40.57.117,MST_task,2024.2.0,59.87367852004397,2026-01-20 10h41.15.068817 +0530,
,,,,,,,,,,,,,,,,,,,,,,,,,,,,,,,,2653.43708850001,2653.448944200005,2653.448944200005,2683.079027700005,space,29.622478700010106,None,,,,,,,,,,,,,,,,,,,,,,,,,,,,,,,,,,,,,,,,,,,,,,,,,,,,,,,,,,,,,,,,,00064,001,2026-01-20_10h40.57.117,MST_task,2024.2.0,59.87367852004397,2026-01-20 10h41.15.068817 +0530,
,,,,,,,,,,,,,,,,,,,,,,,,,,,,,,,,,,,,,,,2683.0790587000083,2683.0953123000218,2683.0953123000218,2723.379240600043,space,40.27956360002281,None,,,,,,,,,,,,,,,,,,,,,,,,,,,,,,,,,,,,,,,,,,,,,,,,,,,,,,,,,,00064,001,2026-01-20_10h40.57.117,MST_task,2024.2.0,59.87367852004397,2026-01-20 10h41.15.068817 +0530,
9,practice_images/180a.jpg,0,0,1,None,f,1.7517317999736406,None,,,,,,,,,1,0,0,,,,2723.401490500022,,,,,,,,,,,,,,,,,,,,,,,2723.3990123000112,2723.401490500022,2723.89545489999,2723.908091899997,2723.91913460003,2723.91913460003,2723.91913460003,2726.8956268000184,None,2726.897188400035,2726.911951599992,2726.911951599992,2728.679447900038,f,1.7517317999736406,None,,,,,,,,,,,,,,,,,,,,,,,,,,,,,,,,,,,,,,,,,,00064,001,2026-01-20_10h40.57.117,MST_task,2024.2.0,59.87367852004397,2026-01-20 10h41.15.068817 +0530,
10,practice_images/182a.jpg,1,1,1,f,None,,,1.61972199997399,0.10391960002016276,,,,,,,1,1,1,,,,2728.6953927000286,,,,,,,,,,,,,,,,,,,,,,,2728.6795405999874,2728.6953927000286,2729.1788895000354,2729.1874164000037,2729.1955822000164,2729.1955822000164,2729.1955822000164,2732.1791066000005,f,2732.179144199996,,,2732.179156200029,None,,,2729.1955822000164,2732.1953665000037,2732.1953665000037,2732.1953665000037,1.61972199997399,0.10391960002016276,,,,,,,,,,,,,,,,,,,,,,,,,,,,,,,,,,,,00064,001,2026-01-20_10h40.57.117,MST_task,2024.2.0,59.87367852004397,2026-01-20 10h41.15.068817 +0530,
5,practice_images/139a.jpg,2,2,1,f,None,,,2.6882532000308856,0.1525083999731578,,,,,,,1,2,2,,,,2732.1953665000037,,,,,,,,,,,,,,,,,,,,,,,2732.1792190000415,2732.1953665000037,2732.6789904999896,2732.6873626000015,2732.695449199993,2732.695449199993,2732.695449199993,2735.6790290999925,f,2735.679065400036,,,2735.6790768000064,None,,,2732.695449199993,2735.6952800000436,2735.6952800000436,2735.6952800000436,2.6882532000308856,0.1525083999731578,,,,,,,,,,,,,,,,,,,,,,,,,,,,,,,,,,,,00064,001,2026-01-20_10h40.57.117,MST_task,2024.2.0,59.87367852004397,2026-01-20 10h41.15.068817 +0530,
6,practice_images/158a.jpg,3,3,1,j,None,,,1.3242874999996275,0.16784010000992566,,,,,,,1,3,3,,,,2735.6952800000436,,,,,,,,,,,,,,,,,,,,,,,2735.679136999999,2735.6952800000436,2736.1790170000168,2736.1895327999955,2736.19546930003,2736.19546930003,2736.19546930003,2739.178957300028,j,2739.1789939000155,,,2739.179005000042,None,,,2736.19546930003,2739.1952697000233,2739.1952697000233,2739.1952697000233,1.3242874999996275,0.16784010000992566,,,,,,,,,,,,,,,,,,,,,,,,,,,,,,,,,,,,00064,001,2026-01-20_10h40.57.117,MST_task,2024.2.0,59.87367852004397,2026-01-20 10h41.15.068817 +0530,
4,practice_images/002b.jpg,4,4,1,None,f,0.19204409996746108,None,,,,,,,,,1,4,4,,,,2739.1952697000233,,,,,,,,,,,,,,,,,,,,,,,2739.1790665000444,2739.1952697000233,2739.67887090001,2739.6891705000307,2739.6954497999977,2739.6954497999977,2739.6954497999977,2742.6789798000245,None,2742.67901240004,2742.695254900027,2742.695254900027,2742.895682900038,f,0.19204409996746108,None,2739.6954497999977,2742.695254900027,2742.695254900027,2742.695254900027,,,,,,,,,,,,,,,,,,,,,,,,,,,,,,,,,,,,,,00064,001,2026-01-20_10h40.57.117,MST_task,2024.2.0,59.87367852004397,2026-01-20 10h41.15.068817 +0530,
1,practice_images/013a.jpg,5,5,1,None,j,0.33890839997911826,None,,,,,,,,,1,5,5,,,,2742.911837199994,,,,,,,,,,,,,,,,,,,,,,,2742.895767000038,2742.911837199994,2743.395511300012,2743.4069127000403,2743.411967699998,2743.411967699998,2743.411967699998,2746.395739300002,None,2746.3978984000278,2746.411967299995,2746.411967299995,2746.762222099991,j,0.33890839997911826,None,2743.411967699998,2746.411967299995,2746.411967299995,2746.411967299995,,,,,,,,,,,,,,,,,,,,,,,,,,,,,,,,,,,,,,00064,001,2026-01-20_10h40.57.117,MST_task,2024.2.0,59.87367852004397,2026-01-20 10h41.15.068817 +0530,
3,practice_images/037a.jpg,6,6,1,f,None,,,1.8087323000072502,0.1600161000387743,,,,,,,1,6,6,,,,2746.7786067000125,,,,,,,,,,,,,,,,,,,,,,,2746.7623064999934,2746.7786067000125,2747.2622041000286,2747.2711760000093,2747.278743700008,2747.278743700008,2747.278743700008,2750.2621713000117,f,2750.262208900007,,,2750.262221000041,None,,,2747.278743700008,2750.278600300022,2750.278600300022,2750.278600300022,1.8087323000072502,0.1600161000387743,,,,,,,,,,,,,,,,,,,,,,,,,,,,,,,,,,,,00064,001,2026-01-20_10h40.57.117,MST_task,2024.2.0,59.87367852004397,2026-01-20 10h41.15.068817 +0530,
8,practice_images/178a.jpg,7,7,1,f,None,,,1.6527793999994174,0.1511185999843292,,,,,,,1,7,7,,,,2750.278600300022,,,,,,,,,,,,,,,,,,,,,,,2750.262281000032,2750.278600300022,2750.7621979000396,2750.7706149999867,2750.778892100032,2750.778892100032,2750.778892100032,2753.7623374999966,f,2753.7623795000254,,,2753.7623915000004,None,,,2750.778892100032,2753.7786153000197,2753.7786153000197,2753.7786153000197,1.6527793999994174,0.1511185999843292,,,,,,,,,,,,,,,,,,,,,,,,,,,,,,,,,,,,00064,001,2026-01-20_10h40.57.117,MST_task,2024.2.0,59.87367852004397,2026-01-20 10h41.15.068817 +0530,
2,practice_images/031a.jpg,8,8,1,j,None,,,2.055938799981959,0.2009801000240259,,,,,,,1,8,8,,,,2753.7786153000197,,,,,,,,,,,,,,,,,,,,,,,2753.7624540000106,2753.7786153000197,2754.2621677000425,2754.2705434000236,2754.278907500033,2754.278907500033,2754.278907500033,2757.2622427000315,j,2757.2622801000252,,,2757.262291799998,None,,,2754.278907500033,2757.27864590002,2757.27864590002,2757.27864590002,2.055938799981959,0.2009801000240259,,,,,,,,,,,,,,,,,,,,,,,,,,,,,,,,,,,,00064,001,2026-01-20_10h40.57.117,MST_task,2024.2.0,59.87367852004397,2026-01-20 10h41.15.068817 +0530,
7,practice_images/166a.jpg,9,9,1,None,j,0.6450002000201494,None,,,,,,,,,1,9,9,,,,2757.27864590002,,,,,,,,,,,,,,,,,,,,,,,2757.2623541000066,2757.27864590002,2757.762259799987,2757.7712285000016,2757.7787872999907,2757.7787872999907,2757.7787872999907,2760.7623886000365,None,2760.762424500019,2760.778628100001,2760.778628100001,2761.429113899998,j,0.6450002000201494,None,2757.7787872999907,2760.778628100001,2760.778628100001,2760.778628100001,,,,,,,,,,,,,,,,,,,,,,,,,,,,,,,,,,,,,,00064,001,2026-01-20_10h40.57.117,MST_task,2024.2.0,59.87367852004397,2026-01-20 10h41.15.068817 +0530,
,,,,,,,,,,,,,,,,,,,,,,,,,,,,,,,,,,,,,,,,,,,,,,,,,,,,,,,,,,,,,,,,,,,,2761.4291749999975,2761.4454471000354,2761.4454471000354,2773.212301500025,space,11.761436100001447,None,,,,,,,,,,,,,,,,,,,,,,,,,,,,,00064,001,2026-01-20_10h40.57.117,MST_task,2024.2.0,59.87367852004397,2026-01-20 10h41.15.068817 +0530,
,Objects\302a.jpg,0,0,1,,,,,,,f,1.9181166000198573,0.13599579996662214,None,,,,,,1,0,0,2773.2286003000336,,,,,,,,,,,,,,,,,,,,,,,2773.21294160001,2773.2286003000336,2773.7121187000303,,,,,,,,,,,,,,2773.72880620003,,,,,,,,,,,,,2773.724649400043,2773.72880620003,2773.72880620003,2773.72880620003,2776.7286932000425,2776.7286932000425,2776.7286932000425,2776.712601700041,indoor,f,1.9181166000198573,0.13599579996662214,2776.7143300999887,2776.714350400027,None,,,,,,,,,,,,,,00064,001,2026-01-20_10h40.57.117,MST_task,2024.2.0,59.87367852004397,2026-01-20 10h41.15.068817 +0530,
,Objects\095a.jpg,1,0,2,,,,,,,f,1.1859248999971896,0.14401569997426122,None,,,,,,2,0,1,2776.7286932000425,,,,,,,,,,,,,,,,,,,,,,,2776.7144225999946,2776.7286932000425,2777.2121099000215,,,,,,,,,,,,,,2777.2289494000142,,,,,,,,,,,,,2777.2229104000144,2777.2289494000142,2777.2289494000142,2777.2289494000142,2780.2287021999946,2780.2287021999946,2780.2287021999946,2780.2126835000236,indoor,f,1.1859248999971896,0.14401569997426122,2780.2127349000075,2780.2127477999893,None,,,,,,,,,,,,,,00064,001,2026-01-20_10h40.57.117,MST_task,2024.2.0,59.87367852004397,2026-01-20 10h41.15.068817 +0530,
,Objects\206a.jpg,2,0,3,,,,,,,j,1.5743724000058137,0.15993650001473725,None,,,,,,3,0,2,2780.2287021999946,,,,,,,,,,,,,,,,,,,,,,,2780.21281669999,2780.2287021999946,2780.7121415000292,,,,,,,,,,,,,,2780.7291131000384,,,,,,,,,,,,,2780.7217568000196,2780.7291131000384,2780.7291131000384,2780.7291131000384,2783.728735600016,2783.728735600016,2783.728735600016,2783.7128322999924,indoor,j,1.5743724000058137,0.15993650001473725,2783.712879800005,2783.7128915000358,None,,,,,,,,,,,,,,00064,001,2026-01-20_10h40.57.117,MST_task,2024.2.0,59.87367852004397,2026-01-20 10h41.15.068817 +0530,
,Objects\041a.jpg,3,0,4,,,,,,,j,2.170513299992308,0.14407809998374432,None,,,,,,4,0,3,2783.728735600016,,,,,,,,,,,,,,,,,,,,,,,2783.712955099996,2783.728735600016,2784.2121551000164,,,,,,,,,,,,,,2784.2291432000347,,,,,,,,,,,,,2784.2220918000094,2784.2291432000347,2784.2291432000347,2784.2291432000347,2787.228660700028,2787.228660700028,2787.228660700028,2787.2128186000045,indoor,j,2.170513299992308,0.14407809998374432,2787.212870699994,2787.212883900036,None,,,,,,,,,,,,,,00064,001,2026-01-20_10h40.57.117,MST_task,2024.2.0,59.87367852004397,2026-01-20 10h41.15.068817 +0530,
,Objects\010a.jpg,4,0,5,,,,,,,f,1.9905594000010751,0.16740789997857064,None,,,,,,5,0,4,2787.228660700028,,,,,,,,,,,,,,,,,,,,,,,2787.2129525000346,2787.228660700028,2787.71205120004,,,,,,,,,,,,,,2787.7289725000155,,,,,,,,,,,,,2787.7216399000026,2787.7289725000155,2787.7289725000155,2787.7289725000155,2790.7286201000097,2790.7286201000097,2790.7286201000097,2790.712426300044,indoor,f,1.9905594000010751,0.16740789997857064,2790.712470200029,2790.7124821000034,None,,,,,,,,,,,,,,00064,001,2026-01-20_10h40.57.117,MST_task,2024.2.0,59.87367852004397,2026-01-20 10h41.15.068817 +0530,
,Objects\089a.jpg,5,0,6,,,,,,,f,2.2343406000290997,0.1599838999682106,None,,,,,,6,0,5,2790.7286201000097,,,,,,,,,,,,,,,,,,,,,,,2790.712546100025,2790.7286201000097,2791.2121041000355,,,,,,,,,,,,,,2791.2288617999875,,,,,,,,,,,,,2791.2217758999905,2791.2288617999875,2791.2288617999875,2791.2288617999875,2794.2285990000237,2794.2285990000237,2794.2285990000237,2794.2124481000355,indoor,f,2.2343406000290997,0.1599838999682106,2794.2124911000137,2794.2125024000416,None,,,,,,,,,,,,,,00064,001,2026-01-20_10h40.57.117,MST_task,2024.2.0,59.87367852004397,2026-01-20 10h41.15.068817 +0530,
,Objects\384a.jpg,6,0,7,,,,,,,f,1.4621697999536991,0.16831090004416183,None,,,,,,7,0,6,2794.2285990000237,,,,,,,,,,,,,,,,,,,,,,,2794.2125671000103,2794.2285990000237,2794.7121651000343,,,,,,,,,,,,,,2794.7288326999987,,,,,,,,,,,,,2794.7230107000214,2794.7288326999987,2794.7288326999987,2794.7288326999987,2797.728637500026,2797.728637500026,2797.728637500026,2797.712247200019,indoor,f,1.4621697999536991,0.16831090004416183,2797.7122906000004,2797.7123027000343,None,,,,,,,,,,,,,,00064,001,2026-01-20_10h40.57.117,MST_task,2024.2.0,59.87367852004397,2026-01-20 10h41.15.068817 +0530,
,Objects\031a.jpg,7,0,8,,,,,,,f,2.460292100033257,0.1832291999598965,None,,,,,,8,0,7,2797.728637500026,,,,,,,,,,,,,,,,,,,,,,,2797.712372899987,2797.728637500026,2798.212106299994,,,,,,,,,,,,,,2798.2358314000303,,,,,,,,,,,,,2798.2336240999866,2798.2358314000303,2798.2358314000303,2798.2358314000303,,,,2801.2288063000306,shoe,f,2.460292100033257,0.1832291999598965,2801.2309617000283,2801.2309806999983,None,,,,,,,,,,,,,,00064,001,2026-01-20_10h40.57.117,MST_task,2024.2.0,59.87367852004397,2026-01-20 10h41.15.068817 +0530,
,Objects\079a.jpg,8,0,9,,,,,,,j,2.4064484999980778,0.1439160000300035,None,,,,,,9,0,8,2801.2452903999947,,,,,,,,,,,,,,,,,,,,,,,2801.231077000033,2801.2452903999947,2801.7288001000416,,,,,,,,,,,,,,2801.7454522000044,,,,,,,,,,,,,2801.738584100036,2801.7454522000044,2801.7454522000044,2801.7454522000044,2804.7452997000073,2804.7452997000073,2804.7452997000073,2804.7290953000193,shoe,j,2.4064484999980778,0.1439160000300035,2804.729138499999,2804.729149700026,None,,,,,,,,,,,,,,00064,001,2026-01-20_10h40.57.117,MST_task,2024.2.0,59.87367852004397,2026-01-20 10h41.15.068817 +0530,
,Objects\151a.jpg,9,0,10,,,,,,,f,2.2576181000331417,0.1361114999745041,None,,,,,,10,0,9,2804.7452997000073,,,,,,,,,,,,,,,,,,,,,,,2804.7292452999973,2804.7452997000073,2805.229348600027,,,,,,,,,,,,,,2805.2459262000048,,,,,,,,,,,,,2805.2401840999955,2805.2459262000048,2805.2459262000048,2805.2459262000048,2808.2453312000143,2808.2453312000143,2808.2453312000143,2808.2291549000074,shoe,f,2.2576181000331417,0.1361114999745041,2808.2291982999886,2808.229209400015,None,,,,,,,,,,,,,,00064,001,2026-01-20_10h40.57.117,MST_task,2024.2.0,59.87367852004397,2026-01-20 10h41.15.068817 +0530,
,Objects\076a.jpg,10,0,11,,,,,,,f,1.9900928999995813,0.1514956000028178,None,,,,,,11,0,10,2808.2453312000143,,,,,,,,,,,,,,,,,,,,,,,2808.2292847000062,2808.2453312000143,2808.7289436000283,,,,,,,,,,,,,,2808.745550499996,,,,,,,,,,,,,2808.738870900008,2808.745550499996,2808.745550499996,2808.745550499996,2811.745246300008,2811.745246300008,2811.745246300008,2811.7292125000386,shoe,f,1.9900928999995813,0.1514956000028178,2811.729255800019,2811.729267399991,None,,,,,,,,,,,,,,00064,001,2026-01-20_10h40.57.117,MST_task,2024.2.0,59.87367852004397,2026-01-20 10h41.15.068817 +0530,
,Objects\328a.jpg,11,0,12,,,,,,,None,,,f,0.0016958999913185835,None,,,,12,0,11,2811.745246300008,,,,,,,,,,,,,,,,,,,,,,,2811.729365200037,2811.745246300008,2812.2288449000334,,,,,,,,,,,,,,2812.245577100024,,,,,,,,,,,,,2812.2385151000344,2812.245577100024,2812.245577100024,2812.245577100024,2815.2452908999985,2815.2452908999985,2815.2452908999985,2815.2292945000227,shoe,None,,,2815.229334600037,2815.2625276999897,f,2815.2452908999985,2815.2452908999985,0.0016958999913185835,None,,,,,,,,,,00064,001,2026-01-20_10h40.57.117,MST_task,2024.2.0,59.87367852004397,2026-01-20 10h41.15.068817 +0530,
,Objects\219a.jpg,12,0,13,,,,,,,None,,,f,0.1805261000408791,None,,,,13,0,12,2815.2786265999894,,,,,,,,,,,,,,,,,,,,,,,2815.26262210001,2815.2786265999894,2815.7622148999944,,,,,,,,,,,,,,2815.7787999000284,,,,,,,,,,,,,2815.772167499992,2815.7787999000284,2815.7787999000284,2815.7787999000284,2818.7788130000117,2818.7788130000117,2818.7788130000117,2818.762712099997,shoe,None,,,2818.7627569999895,2818.962379200035,f,2818.7788130000117,2818.7788130000117,0.1805261000408791,None,,,,,,,,,,00064,001,2026-01-20_10h40.57.117,MST_task,2024.2.0,59.87367852004397,2026-01-20 10h41.15.068817 +0530,
,Objects\334a.jpg,13,0,14,,,,,,,j,1.6967528000241145,0.16801159997703508,None,,,,,,14,0,13,2818.978567300015,,,,,,,,,,,,,,,,,,,,,,,2818.962464500044,2818.978567300015,2819.462099700002,,,,,,,,,,,,,,2819.4787959000096,,,,,,,,,,,,,2819.4717806000262,2819.4787959000096,2819.4787959000096,2819.4787959000096,2822.478604700009,2822.478604700009,2822.478604700009,2822.4623690000153,shoe,j,1.6967528000241145,0.16801159997703508,2822.462413000001,2822.4624250000343,None,,,,,,,,,,,,,,00064,001,2026-01-20_10h40.57.117,MST_task,2024.2.0,59.87367852004397,2026-01-20 10h41.15.068817 +0530,
,Objects\097a.jpg,14,0,15,,,,,,,None,,,j,0.8450662999530323,None,,,,15,0,14,2822.478604700009,,,,,,,,,,,,,,,,,,,,,,,2822.462500200025,2822.478604700009,2822.962170600018,,,,,,,,,,,,,,2822.9788853999926,,,,,,,,,,,,,2822.9734126999974,2822.9788853999926,2822.9788853999926,2822.9788853999926,2825.9787048000144,2825.9787048000144,2825.9787048000144,2825.9626871999935,indoor,None,,,2825.9644408000167,2826.829145900032,j,2825.9787048000144,2825.9787048000144,0.8450662999530323,None,,,,,,,,,,00064,001,2026-01-20_10h40.57.117,MST_task,2024.2.0,59.87367852004397,2026-01-20 10h41.15.068817 +0530,
,Objects\383a.jpg,15,0,16,,,,,,,f,1.7094848999986425,0.1360028000199236,None,,,,,,16,0,15,2826.8453977000318,,,,,,,,,,,,,,,,,,,,,,,2826.8292312000412,2826.8453977000318,2827.32898250001,,,,,,,,,,,,,,2827.345798299997,,,,,,,,,,,,,2827.3393128000316,2827.345798299997,2827.345798299997,2827.345798299997,2830.3454049000284,2830.3454049000284,2830.3454049000284,2830.329215600039,indoor,f,1.7094848999986425,0.1360028000199236,2830.32925900002,2830.329271099996,None,,,,,,,,,,,,,,00064,001,2026-01-20_10h40.57.117,MST_task,2024.2.0,59.87367852004397,2026-01-20 10h41.15.068817 +0530,
,Objects\134a.jpg,16,0,17,,,,,,,None,,,j,2.3548095999867655,None,,,,17,0,16,2830.3454049000284,,,,,,,,,,,,,,,,,,,,,,,2830.329336900031,2830.3454049000284,2830.829040200042,,,,,,,,,,,,,,2830.8456601999933,,,,,,,,,,,,,2830.839466900041,2830.8456601999933,2830.8456601999933,2830.8456601999933,2833.845349900017,2833.845349900017,2833.845349900017,2833.8292772000423,indoor,None,,,2833.829320900026,2836.2125058000092,j,2833.845349900017,2833.845349900017,2.3548095999867655,None,,,,,,,,,,00064,001,2026-01-20_10h40.57.117,MST_task,2024.2.0,59.87367852004397,2026-01-20 10h41.15.068817 +0530,
,Objects\138a.jpg,17,0,18,,,,,,,None,,,j,1.2461456999881193,None,,,,18,0,17,2836.22870420001,,,,,,,,,,,,,,,,,,,,,,,2836.212593800039,2836.22870420001,2836.7123369000037,,,,,,,,,,,,,,2836.728991500044,,,,,,,,,,,,,2836.722137600009,2836.728991500044,2836.728991500044,2836.728991500044,2839.728722000029,2839.728722000029,2839.728722000029,2839.7126179999905,indoor,None,,,2839.712656799995,2840.979179200018,j,2839.728722000029,2839.728722000029,1.2461456999881193,None,,,,,,,,,,00064,001,2026-01-20_10h40.57.117,MST_task,2024.2.0,59.87367852004397,2026-01-20 10h41.15.068817 +0530,
,Objects\205a.jpg,18,0,19,,,,,,,f,2.240278200013563,0.1200226999935694,None,,,,,,19,0,18,2840.9953982000006,,,,,,,,,,,,,,,,,,,,,,,2840.9792663000408,2840.9953982000006,2841.4790248000063,,,,,,,,,,,,,,2841.495822100027,,,,,,,,,,,,,2841.489426999993,2841.495822100027,2841.495822100027,2841.495822100027,2844.4955185000435,2844.4955185000435,2844.4955185000435,2844.479327900044,indoor,f,2.240278200013563,0.1200226999935694,2844.4793724000338,2844.4793854000163,None,,,,,,,,,,,,,,00064,001,2026-01-20_10h40.57.117,MST_task,2024.2.0,59.87367852004397,2026-01-20 10h41.15.068817 +0530,
,Objects\373a.jpg,19,0,20,,,,,,,j,1.9715565999504179,0.10400160000426695,None,,,,,,20,0,19,2844.4955185000435,,,,,,,,,,,,,,,,,,,,,,,2844.4794503999874,2844.4955185000435,2844.979007999995,,,,,,,,,,,,,,2844.9957382000284,,,,,,,,,,,,,2844.9892343000392,2844.9957382000284,2844.9957382000284,2844.9957382000284,2847.9954335000366,2847.9954335000366,2847.9954335000366,2847.9795184000395,indoor,j,1.9715565999504179,0.10400160000426695,2847.9795659999945,2847.97957830003,None,,,,,,,,,,,,,,00064,001,2026-01-20_10h40.57.117,MST_task,2024.2.0,59.87367852004397,2026-01-20 10h41.15.068817 +0530,
,Objects\082a.jpg,20,0,21,,,,,,,j,2.9276807000278495,None,None,,,,,,21,0,20,2847.9954335000366,,,,,,,,,,,,,,,,,,,,,,,2847.979653700022,2847.9954335000366,2848.4789410000085,,,,,,,,,,,,,,2848.4957730000024,,,,,,,,,,,,,2848.489329300006,2848.4957730000024,2848.4957730000024,2848.4957730000024,2851.4952974999906,2851.4952974999906,2851.4952974999906,2851.479371400026,indoor,j,2.9276807000278495,None,2851.4794186000363,2851.4794314000173,None,,,,,,,,,,,,,,00064,001,2026-01-20_10h40.57.117,MST_task,2024.2.0,59.87367852004397,2026-01-20 10h41.15.068817 +0530,
,Objects\376a.jpg,21,0,22,,,,,,,j,2.0924185999901965,0.14297280000755563,None,,,,,,22,0,21,2851.4952974999906,,,,,,,,,,,,,,,,,,,,,,,2851.4794968999922,2851.4952974999906,2851.9791598000447,,,,,,,,,,,,,,2851.9956191999954,,,,,,,,,,,,,2851.991492500005,2851.9956191999954,2851.9956191999954,2851.9956191999954,2854.99532690004,2854.99532690004,2854.99532690004,2854.9791460999986,shoe,j,2.0924185999901965,0.14297280000755563,2854.9813756000367,2854.9813959000167,None,,,,,,,,,,,,,,00064,001,2026-01-20_10h40.57.117,MST_task,2024.2.0,59.87367852004397,2026-01-20 10h41.15.068817 +0530,
,Objects\212a.jpg,22,0,23,,,,,,,j,1.943088500003796,0.13713440002175048,None,,,,,,23,0,22,2854.99532690004,,,,,,,,,,,,,,,,,,,,,,,2854.981469499995,2854.99532690004,2855.4790024000104,,,,,,,,,,,,,,2855.4958232000354,,,,,,,,,,,,,2855.4891358999885,2855.4958232000354,2855.4958232000354,2855.4958232000354,2858.4954244000255,2858.4954244000255,2858.4954244000255,2858.479293100012,shoe,j,1.943088500003796,0.13713440002175048,2858.4793363999925,2858.4793485000264,None,,,,,,,,,,,,,,00064,001,2026-01-20_10h40.57.117,MST_task,2024.2.0,59.87367852004397,2026-01-20 10h41.15.068817 +0530,
,Objects\123a.jpg,23,0,24,,,,,,,j,1.8050756000448018,0.14204459998290986,None,,,,,,24,0,23,2858.4954244000255,,,,,,,,,,,,,,,,,,,,,,,2858.4794118000427,2858.4954244000255,2858.9789782000007,,,,,,,,,,,,,,2858.9957617000327,,,,,,,,,,,,,2858.990126400022,2858.9957617000327,2858.9957617000327,2858.9957617000327,2861.9953123999876,2861.9953123999876,2861.9953123999876,2861.979309700022,shoe,j,1.8050756000448018,0.14204459998290986,2861.979365300038,2861.97937690001,None,,,,,,,,,,,,,,00064,001,2026-01-20_10h40.57.117,MST_task,2024.2.0,59.87367852004397,2026-01-20 10h41.15.068817 +0530,
,Objects\316a.jpg,24,0,25,,,,,,,f,1.6550782999838702,0.12901690002763644,None,,,,,,25,0,24,2861.9953123999876,,,,,,,,,,,,,,,,,,,,,,,2861.9794446000014,2861.9953123999876,2862.4792029000237,,,,,,,,,,,,,,2862.495820900018,,,,,,,,,,,,,2862.4895147000207,2862.495820900018,2862.495820900018,2862.495820900018,2865.4953968999907,2865.4953968999907,2865.4953968999907,2865.479420399992,shoe,f,1.6550782999838702,0.12901690002763644,2865.479463000025,2865.479474599997,None,,,,,,,,,,,,,,00064,001,2026-01-20_10h40.57.117,MST_task,2024.2.0,59.87367852004397,2026-01-20 10h41.15.068817 +0530,
,Objects\110a.jpg,25,0,26,,,,,,,j,1.8837996000074781,0.15948949998710304,None,,,,,,26,0,25,2865.4953968999907,,,,,,,,,,,,,,,,,,,,,,,2865.479539800028,2865.4953968999907,2865.9789077999885,,,,,,,,,,,,,,2865.9958250999916,,,,,,,,,,,,,2865.989245600009,2865.9958250999916,2865.9958250999916,2865.9958250999916,2868.995410600037,2868.995410600037,2868.995410600037,2868.9792333000223,shoe,j,1.8837996000074781,0.15948949998710304,2868.979283199995,2868.9792949000257,None,,,,,,,,,,,,,,00064,001,2026-01-20_10h40.57.117,MST_task,2024.2.0,59.87367852004397,2026-01-20 10h41.15.068817 +0530,
,Objects\179a.jpg,26,0,27,,,,,,,None,,,j,1.8001804999657907,None,,,,27,0,26,2868.995410600037,,,,,,,,,,,,,,,,,,,,,,,2868.979359399993,2868.995410600037,2869.4790146999876,,,,,,,,,,,,,,2869.495646400028,,,,,,,,,,,,,2869.4892656000447,2869.495646400028,2869.495646400028,2869.495646400028,2872.495326000033,2872.495326000033,2872.495326000033,2872.4794348000432,shoe,None,,,2872.4794764000108,2874.296095800004,j,2872.495326000033,2872.495326000033,1.8001804999657907,None,,,,,,,,,,00064,001,2026-01-20_10h40.57.117,MST_task,2024.2.0,59.87367852004397,2026-01-20 10h41.15.068817 +0530,
,Objects\049a.jpg,27,0,28,,,,,,,j,1.4673387999646366,0.1434117000317201,None,,,,,,28,0,27,2874.3120643,,,,,,,,,,,,,,,,,,,,,,,2874.2962128000217,2874.3120643,2874.79617700004,,,,,,,,,,,,,,2874.812371500011,,,,,,,,,,,,,2874.8065212999936,2874.812371500011,2874.812371500011,2874.812371500011,2877.8117823000066,2877.8117823000066,2877.8117823000066,2877.7958408000413,shoe,j,1.4673387999646366,0.1434117000317201,2877.795911699999,2877.79592470004,None,,,,,,,,,,,,,,00064,001,2026-01-20_10h40.57.117,MST_task,2024.2.0,59.87367852004397,2026-01-20 10h41.15.068817 +0530,
,Objects\276a.jpg,28,0,29,,,,,,,f,2.295694199972786,0.15198640001472086,None,,,,,,29,0,28,2877.8117823000066,,,,,,,,,,,,,,,,,,,,,,,2877.795993900043,2877.8117823000066,2878.2960016000434,,,,,,,,,,,,,,2878.3120938999928,,,,,,,,,,,,,2878.307015700033,2878.3120938999928,2878.3120938999928,2878.3120938999928,2881.3119708999875,2881.3119708999875,2881.3119708999875,2881.2960950999986,indoor,f,2.295694199972786,0.15198640001472086,2881.297762500006,2881.2977814000333,None,,,,,,,,,,,,,,00064,001,2026-01-20_10h40.57.117,MST_task,2024.2.0,59.87367852004397,2026-01-20 10h41.15.068817 +0530,
,Objects\007a.jpg,29,0,30,,,,,,,f,2.1786766999866813,0.14433440001448616,None,,,,,,30,0,29,2881.3119708999875,,,,,,,,,,,,,,,,,,,,,,,2881.297850400035,2881.3119708999875,2881.7955850000144,,,,,,,,,,,,,,2881.8122805000166,,,,,,,,,,,,,2881.805128600041,2881.8122805000166,2881.8122805000166,2881.8122805000166,2884.8119142000214,2884.8119142000214,2884.8119142000214,2884.7957636000356,indoor,f,2.1786766999866813,0.14433440001448616,2884.7958108999883,2884.795822300017,None,,,,,,,,,,,,,,00064,001,2026-01-20_10h40.57.117,MST_task,2024.2.0,59.87367852004397,2026-01-20 10h41.15.068817 +0530,
,Objects\038a.jpg,30,0,31,,,,,,,f,1.8869797000079416,0.15197369997622445,None,,,,,,31,0,30,2884.8119142000214,,,,,,,,,,,,,,,,,,,,,,,2884.7958863000385,2884.8119142000214,2885.295727799996,,,,,,,,,,,,,,2885.312130400038,,,,,,,,,,,,,2885.305339100014,2885.312130400038,2885.312130400038,2885.312130400038,2888.312005100015,2888.312005100015,2888.312005100015,2888.296025399992,indoor,f,1.8869797000079416,0.15197369997622445,2888.296070899989,2888.296083000023,None,,,,,,,,,,,,,,00064,001,2026-01-20_10h40.57.117,MST_task,2024.2.0,59.87367852004397,2026-01-20 10h41.15.068817 +0530,
,Objects\231a.jpg,31,0,32,,,,,,,j,1.0187567999819294,0.1919824000215158,None,,,,,,32,0,31,2888.312005100015,,,,,,,,,,,,,,,,,,,,,,,2888.29614749999,2888.312005100015,2888.795626200037,,,,,,,,,,,,,,2888.812235200021,,,,,,,,,,,,,2888.805716200033,2888.812235200021,2888.812235200021,2888.812235200021,2891.811835200002,2891.811835200002,2891.811835200002,2891.7958622000297,indoor,j,1.0187567999819294,0.1919824000215158,2891.795905100007,2891.7959162000334,None,,,,,,,,,,,,,,00064,001,2026-01-20_10h40.57.117,MST_task,2024.2.0,59.87367852004397,2026-01-20 10h41.15.068817 +0530,
,Objects\156a.jpg,32,0,33,,,,,,,None,,,f,0.4310515000252053,None,,,,33,0,32,2891.811835200002,,,,,,,,,,,,,,,,,,,,,,,2891.7959790999885,2891.811835200002,2892.2955498000374,,,,,,,,,,,,,,2892.312127000012,,,,,,,,,,,,,2892.3056050000014,2892.312127000012,2892.312127000012,2892.312127000012,2895.3119325000443,2895.3119325000443,2895.3119325000443,2895.295850900002,indoor,None,,,2895.2958896000055,2895.7461094000028,f,2895.3119325000443,2895.3119325000443,0.4310515000252053,None,,,,,,,,,,00064,001,2026-01-20_10h40.57.117,MST_task,2024.2.0,59.87367852004397,2026-01-20 10h41.15.068817 +0530,
,Objects\078a.jpg,33,0,34,,,,,,,j,1.777112899988424,0.17677700001513585,None,,,,,,34,0,33,2895.7619079000433,,,,,,,,,,,,,,,,,,,,,,,2895.7462084,2895.7619079000433,2896.246410200023,,,,,,,,,,,,,,,,,,,,,,,,,,,2896.255722800037,2896.2623134999885,2896.2623134999885,2896.2623134999885,2899.2618173999945,2899.2618173999945,2899.2618173999945,2899.245870899991,indoor,j,1.777112899988424,0.17677700001513585,2899.2459126000176,2899.245923999988,None,,,,,,,,,,,,,,00064,001,2026-01-20_10h40.57.117,MST_task,2024.2.0,59.87367852004397,2026-01-20 10h41.15.068817 +0530,
,Objects\069a.jpg,34,0,35,,,,,,,j,2.292972999974154,0.12090959999477491,None,,,,,,35,0,34,2899.2618173999945,,,,,,,,,,,,,,,,,,,,,,,2899.2459884000127,2899.2618173999945,2899.7455670000054,,,,,,,,,,,,,,2899.762027400022,,,,,,,,,,,,,2899.756293100014,2899.762027400022,2899.762027400022,2899.762027400022,2902.7618935999926,2902.7618935999926,2902.7618935999926,2902.7460476999986,indoor,j,2.292972999974154,0.12090959999477491,2902.7460945000057,2902.746106900042,None,,,,,,,,,,,,,,00064,001,2026-01-20_10h40.57.117,MST_task,2024.2.0,59.87367852004397,2026-01-20 10h41.15.068817 +0530,
,Objects\014a.jpg,35,0,36,,,,,,,None,,,f,1.2499229999957606,None,,,,36,0,35,2902.7618935999926,,,,,,,,,,,,,,,,,,,,,,,2902.746174800035,2902.7618935999926,2903.2456929000327,,,,,,,,,,,,,,2903.262096100021,,,,,,,,,,,,,2903.257687300036,2903.262096100021,2903.262096100021,2903.262096100021,2906.2618598000263,2906.2618598000263,2906.2618598000263,2906.2461257000105,shoe,None,,,2906.248380300007,2907.512480400037,f,2906.2618598000263,2906.2618598000263,1.2499229999957606,None,,,,,,,,,,00064,001,2026-01-20_10h40.57.117,MST_task,2024.2.0,59.87367852004397,2026-01-20 10h41.15.068817 +0530,
,Objects\250a.jpg,36,0,37,,,,,,,None,,,f,0.4993009999743663,None,,,,37,0,36,2907.5286576999933,,,,,,,,,,,,,,,,,,,,,,,2907.512602700037,2907.5286576999933,2908.0120884000207,,,,,,,,,,,,,,2908.0290680000326,,,,,,,,,,,,,2908.021885199996,2908.0290680000326,2908.0290680000326,2908.0290680000326,2911.0287510000053,2911.0287510000053,2911.0287510000053,2911.012375399994,shoe,None,,,2911.0124129999895,2911.529314299987,f,2911.0287510000053,2911.0287510000053,0.4993009999743663,None,,,,,,,,,,00064,001,2026-01-20_10h40.57.117,MST_task,2024.2.0,59.87367852004397,2026-01-20 10h41.15.068817 +0530,
,Objects\167a.jpg,37,0,38,,,,,,,f,1.922583100036718,0.1835208999691531,None,,,,,,38,0,37,2911.5453079,,,,,,,,,,,,,,,,,,,,,,,2911.529400600004,2911.5453079,2912.0288168000407,,,,,,,,,,,,,,2912.0456783000263,,,,,,,,,,,,,2912.039173300029,2912.0456783000263,2912.0456783000263,2912.0456783000263,2915.045314399991,2915.045314399991,2915.045314399991,2915.0291347000166,shoe,f,1.922583100036718,0.1835208999691531,2915.0291773999925,2915.029189300025,None,,,,,,,,,,,,,,00064,001,2026-01-20_10h40.57.117,MST_task,2024.2.0,59.87367852004397,2026-01-20 10h41.15.068817 +0530,
,Objects\175a.jpg,38,0,39,,,,,,,j,1.7017093999893405,0.19201920001069084,None,,,,,,39,0,38,2915.045314399991,,,,,,,,,,,,,,,,,,,,,,,2915.029253799992,2915.045314399991,2915.5288188999984,,,,,,,,,,,,,,2915.545513499994,,,,,,,,,,,,,2915.5387248999905,2915.545513499994,2915.545513499994,2915.545513499994,2918.545377500006,2918.545377500006,2918.545377500006,2918.529453299998,shoe,j,1.7017093999893405,0.19201920001069084,2918.529501400015,2918.529514099995,None,,,,,,,,,,,,,,00064,001,2026-01-20_10h40.57.117,MST_task,2024.2.0,59.87367852004397,2026-01-20 10h41.15.068817 +0530,
,Objects\380a.jpg,39,0,40,,,,,,,j,1.9375326000154018,0.19309489999432117,None,,,,,,40,0,39,2918.545377500006,,,,,,,,,,,,,,,,,,,,,,,2918.5295811000396,2918.545377500006,2919.0291181000066,,,,,,,,,,,,,,2919.0455592999933,,,,,,,,,,,,,2919.0398543000338,2919.0455592999933,2919.0455592999933,2919.0455592999933,2922.0452873000177,2922.0452873000177,2922.0452873000177,2922.0294490000233,shoe,j,1.9375326000154018,0.19309489999432117,2922.029501000012,2922.0295149000012,None,,,,,,,,,,,,,,00064,001,2026-01-20_10h40.57.117,MST_task,2024.2.0,59.87367852004397,2026-01-20 10h41.15.068817 +0530,
,Objects\371a.jpg,40,0,41,,,,,,,j,1.9735568999894895,0.17605140001978725,None,,,,,,41,0,40,2922.0452873000177,,,,,,,,,,,,,,,,,,,,,,,2922.0295812000404,2922.0452873000177,2922.528920700017,,,,,,,,,,,,,,2922.54573860002,,,,,,,,,,,,,2922.5395594,2922.54573860002,2922.54573860002,2922.54573860002,2925.5453587000375,2925.5453587000375,2925.5453587000375,2925.529715200013,shoe,j,1.9735568999894895,0.17605140001978725,2925.5297718000365,2925.529785300023,None,,,,,,,,,,,,,,00064,001,2026-01-20_10h40.57.117,MST_task,2024.2.0,59.87367852004397,2026-01-20 10h41.15.068817 +0530,
,Objects\353a.jpg,41,0,42,,,,,,,None,,,f,1.3220099000027403,None,,,,42,0,41,2925.5453587000375,,,,,,,,,,,,,,,,,,,,,,,2925.529905800009,2925.5453587000375,2926.0290104000014,,,,,,,,,,,,,,2926.0456873000367,,,,,,,,,,,,,2926.039065900026,2926.0456873000367,2926.0456873000367,2926.0456873000367,2929.0452803000226,2929.0452803000226,2929.0452803000226,2929.029202000005,shoe,None,,,2929.029239800002,2930.3790281999973,f,2929.0452803000226,2929.0452803000226,1.3220099000027403,None,,,,,,,,,,00064,001,2026-01-20_10h40.57.117,MST_task,2024.2.0,59.87367852004397,2026-01-20 10h41.15.068817 +0530,
,Objects\370a.jpg,42,0,43,,,,,,,f,1.9358547999872826,0.1679957000305876,None,,,,,,43,0,42,2930.3953263000003,,,,,,,,,,,,,,,,,,,,,,,2930.3791151000187,2930.3953263000003,2930.8788978999946,,,,,,,,,,,,,,2930.895696200023,,,,,,,,,,,,,2930.891850600019,2930.895696200023,2930.895696200023,2930.895696200023,2933.8953321000445,2933.8953321000445,2933.8953321000445,2933.879239800037,indoor,f,1.9358547999872826,0.1679957000305876,2933.8809178000083,2933.8809377000434,None,,,,,,,,,,,,,,00064,001,2026-01-20_10h40.57.117,MST_task,2024.2.0,59.87367852004397,2026-01-20 10h41.15.068817 +0530,
,Objects\177a.jpg,43,0,44,,,,,,,None,,,j,1.7564007000182755,None,,,,44,0,43,2933.8953321000445,,,,,,,,,,,,,,,,,,,,,,,2933.8810053000343,2933.8953321000445,2934.3791498999926,,,,,,,,,,,,,,2934.3957171000075,,,,,,,,,,,,,2934.3896673000418,2934.3957171000075,2934.3957171000075,2934.3957171000075,2937.395288800006,2937.395288800006,2937.395288800006,2937.3792341999942,indoor,None,,,2937.379274100007,2939.162258600001,j,2937.395288800006,2937.395288800006,1.7564007000182755,None,,,,,,,,,,00064,001,2026-01-20_10h40.57.117,MST_task,2024.2.0,59.87367852004397,2026-01-20 10h41.15.068817 +0530,
,Objects\332a.jpg,44,0,45,,,,,,,j,1.4164034000132233,0.16007069998886436,None,,,,,,45,0,44,2939.178675400035,,,,,,,,,,,,,,,,,,,,,,,2939.1623488999903,2939.178675400035,2939.6622549000313,,,,,,,,,,,,,,2939.6791084000142,,,,,,,,,,,,,2939.6729388000094,2939.6791084000142,2939.6791084000142,2939.6791084000142,2942.678666200023,2942.678666200023,2942.678666200023,2942.662511100003,indoor,j,1.4164034000132233,0.16007069998886436,2942.662555399991,2942.6625681000296,None,,,,,,,,,,,,,,00064,001,2026-01-20_10h40.57.117,MST_task,2024.2.0,59.87367852004397,2026-01-20 10h41.15.068817 +0530,
,Objects\240a.jpg,45,0,46,,,,,,,None,,,f,1.2845814999891445,None,,,,46,0,45,2942.678666200023,,,,,,,,,,,,,,,,,,,,,,,2942.662638500042,2942.678666200023,2943.1623319000355,,,,,,,,,,,,,,2943.179127899988,,,,,,,,,,,,,2943.173074099992,2943.179127899988,2943.179127899988,2943.179127899988,2946.1788173000095,2946.1788173000095,2946.1788173000095,2946.1626283000223,indoor,None,,,2946.162667000026,2947.479167799989,f,2946.1788173000095,2946.1788173000095,1.2845814999891445,None,,,,,,,,,,00064,001,2026-01-20_10h40.57.117,MST_task,2024.2.0,59.87367852004397,2026-01-20 10h41.15.068817 +0530,
,Objects\304a.jpg,46,0,47,,,,,,,f,2.6113030000124127,0.15201019996311516,None,,,,,,47,0,46,2947.4953920000116,,,,,,,,,,,,,,,,,,,,,,,2947.479256300023,2947.4953920000116,2947.979326800036,,,,,,,,,,,,,,2947.995815400034,,,,,,,,,,,,,2947.9891762000043,2947.995815400034,2947.995815400034,2947.995815400034,2950.9953534000088,2950.9953534000088,2950.9953534000088,2950.9793605000013,indoor,f,2.6113030000124127,0.15201019996311516,2950.9794032000354,2950.979415300011,None,,,,,,,,,,,,,,00064,001,2026-01-20_10h40.57.117,MST_task,2024.2.0,59.87367852004397,2026-01-20 10h41.15.068817 +0530,
,Objects\229a.jpg,47,0,48,,,,,,,f,2.911601999949198,None,None,,,,,,48,0,47,2950.9953534000088,,,,,,,,,,,,,,,,,,,,,,,2950.9794777000207,2950.9953534000088,2951.478988800023,,,,,,,,,,,,,,2951.4957958000014,,,,,,,,,,,,,2951.489673700009,2951.4957958000014,2951.4957958000014,2951.4957958000014,,,,2954.4794532000087,indoor,f,2.911601999949198,None,2954.4794970999938,2954.4795093000284,None,,,,,,,,,,,,,,00064,001,2026-01-20_10h40.57.117,MST_task,2024.2.0,59.87367852004397,2026-01-20 10h41.15.068817 +0530,
,Objects\174a.jpg,48,0,49,,,,,,,f,2.4366301000118256,0.1993530999752693,None,,,,,,49,0,48,2954.495411300042,,,,,,,,,,,,,,,,,,,,,,,2954.4795801000437,2954.495411300042,2954.9791213000426,,,,,,,,,,,,,,2954.9957421,,,,,,,,,,,,,2954.989295300038,2954.9957421,2954.9957421,2954.9957421,2957.995405599999,2957.995405599999,2957.995405599999,2957.979453900014,indoor,f,2.4366301000118256,0.1993530999752693,2957.979503700044,2957.9795155000174,None,,,,,,,,,,,,,,00064,001,2026-01-20_10h40.57.117,MST_task,2024.2.0,59.87367852004397,2026-01-20 10h41.15.068817 +0530,
,Objects\173a.jpg,49,0,50,,,,,,,f,2.1605703000095673,0.2147489000344649,None,,,,,,50,0,49,2957.995405599999,,,,,,,,,,,,,,,,,,,,,,,2957.97958069999,2957.995405599999,2958.4790300999884,,,,,,,,,,,,,,2958.4956182999886,,,,,,,,,,,,,2958.4911043000175,2958.4956182999886,2958.4956182999886,2958.4956182999886,2961.495569700026,2961.495569700026,2961.495569700026,2961.479562500026,shoe,f,2.1605703000095673,0.2147489000344649,2961.4818420000374,2961.4818615000113,None,,,,,,,,,,,,,,00064,001,2026-01-20_10h40.57.117,MST_task,2024.2.0,59.87367852004397,2026-01-20 10h41.15.068817 +0530,
,Objects\346a.jpg,50,0,51,,,,,,,j,1.7637762000085786,0.2234020999749191,None,,,,,,51,0,50,2961.495569700026,,,,,,,,,,,,,,,,,,,,,,,2961.481979700038,2961.495569700026,2961.979000099993,,,,,,,,,,,,,,2961.9957487999927,,,,,,,,,,,,,2961.9895192999975,2961.9957487999927,2961.9957487999927,2961.9957487999927,2964.995400600019,2964.995400600019,2964.995400600019,2964.979331600014,shoe,j,1.7637762000085786,0.2234020999749191,2964.9793730000383,2964.979384700011,None,,,,,,,,,,,,,,00064,001,2026-01-20_10h40.57.117,MST_task,2024.2.0,59.87367852004397,2026-01-20 10h41.15.068817 +0530,
,Objects\200a.jpg,51,0,52,,,,,,,f,2.6160983000299893,None,None,,,,,,52,0,51,2964.995400600019,,,,,,,,,,,,,,,,,,,,,,,2964.979481199989,2964.995400600019,2965.4791675999877,,,,,,,,,,,,,,2965.4958574000048,,,,,,,,,,,,,2965.4884628000436,2965.4958574000048,2965.4958574000048,2965.4958574000048,2968.4954902000027,2968.4954902000027,2968.4954902000027,2968.47926490003,shoe,f,2.6160983000299893,None,2968.4793091000174,2968.479321599996,None,,,,,,,,,,,,,,00064,001,2026-01-20_10h40.57.117,MST_task,2024.2.0,59.87367852004397,2026-01-20 10h41.15.068817 +0530,
,Objects\132a.jpg,52,0,53,,,,,,,None,,,f,0.30052540003089234,None,,,,53,0,52,2968.4954902000027,,,,,,,,,,,,,,,,,,,,,,,2968.479385200015,2968.4954902000027,2968.97908379999,,,,,,,,,,,,,,2968.995889200014,,,,,,,,,,,,,2968.9891737000435,2968.995889200014,2968.995889200014,2968.995889200014,2971.9954595000017,2971.9954595000017,2971.9954595000017,2971.9792183000245,shoe,None,,,2971.979261600005,2972.3124497000244,f,2971.9954595000017,2971.9954595000017,0.30052540003089234,None,,,,,,,,,,00064,001,2026-01-20_10h40.57.117,MST_task,2024.2.0,59.87367852004397,2026-01-20 10h41.15.068817 +0530,
,Objects\145a.jpg,53,0,54,,,,,,,f,1.8509167999727651,0.1589815000188537,None,,,,,,54,0,53,2972.32877240004,,,,,,,,,,,,,,,,,,,,,,,2972.312569200003,2972.32877240004,2972.8124529999914,,,,,,,,,,,,,,2972.8290194,,,,,,,,,,,,,2972.8227636000374,2972.8290194,2972.8290194,2972.8290194,2975.8286421000375,2975.8286421000375,2975.8286421000375,2975.812567999994,shoe,f,1.8509167999727651,0.1589815000188537,2975.8126140999957,2975.812626100029,None,,,,,,,,,,,,,,00064,001,2026-01-20_10h40.57.117,MST_task,2024.2.0,59.87367852004397,2026-01-20 10h41.15.068817 +0530,
,Objects\002a.jpg,54,0,55,,,,,,,f,1.7740608000312932,0.21584159997291863,None,,,,,,55,0,54,2975.8286421000375,,,,,,,,,,,,,,,,,,,,,,,2975.8127262000344,2975.8286421000375,2976.3122055000276,,,,,,,,,,,,,,2976.328940300038,,,,,,,,,,,,,2976.3223138999892,2976.328940300038,2976.328940300038,2976.328940300038,2979.328780300042,2979.328780300042,2979.328780300042,2979.312490799988,shoe,f,1.7740608000312932,0.21584159997291863,2979.3125391000067,2979.312551400042,None,,,,,,,,,,,,,,00064,001,2026-01-20_10h40.57.117,MST_task,2024.2.0,59.87367852004397,2026-01-20 10h41.15.068817 +0530,
,Objects\073a.jpg,55,0,56,,,,,,,f,2.5546415999997407,0.20799219998298213,None,,,,,,56,0,55,2979.328780300042,,,,,,,,,,,,,,,,,,,,,,,2979.312647600018,2979.328780300042,2979.8122446000343,,,,,,,,,,,,,,2979.8290196000016,,,,,,,,,,,,,2979.8231975000235,2979.8290196000016,2979.8290196000016,2979.8290196000016,2982.8287714000326,2982.8287714000326,2982.8287714000326,2982.8126417000312,shoe,f,2.5546415999997407,0.20799219998298213,2982.8126820999896,2982.812694000022,None,,,,,,,,,,,,,,00064,001,2026-01-20_10h40.57.117,MST_task,2024.2.0,59.87367852004397,2026-01-20 10h41.15.068817 +0530,
,Objects\142a.jpg,56,0,57,,,,,,,f,2.2938737999647856,0.17648670001653954,None,,,,,,57,0,56,2982.8287714000326,,,,,,,,,,,,,,,,,,,,,,,2982.812788600044,2982.8287714000326,2983.312361599994,,,,,,,,,,,,,,2983.3290520000155,,,,,,,,,,,,,2983.3235443999874,2983.3290520000155,2983.3290520000155,2983.3290520000155,2986.328690800001,2986.328690800001,2986.328690800001,2986.3127398000215,indoor,f,2.2938737999647856,0.17648670001653954,2986.3145266000065,2986.3145448000287,None,,,,,,,,,,,,,,00064,001,2026-01-20_10h40.57.117,MST_task,2024.2.0,59.87367852004397,2026-01-20 10h41.15.068817 +0530,
,Objects\260a.jpg,57,0,58,,,,,,,f,2.0826303999638185,0.17560970003250986,None,,,,,,58,0,57,2986.328690800001,,,,,,,,,,,,,,,,,,,,,,,2986.3146356000216,2986.328690800001,2986.8122490000096,,,,,,,,,,,,,,2986.8290511000087,,,,,,,,,,,,,2986.8231216000277,2986.8290511000087,2986.8290511000087,2986.8290511000087,2989.828713900002,2989.828713900002,2989.828713900002,2989.8124790000147,indoor,f,2.0826303999638185,0.17560970003250986,2989.812523300003,2989.812535200035,None,,,,,,,,,,,,,,00064,001,2026-01-20_10h40.57.117,MST_task,2024.2.0,59.87367852004397,2026-01-20 10h41.15.068817 +0530,
,Objects\178a.jpg,58,0,59,,,,,,,j,2.0139691999647766,0.16801180003676564,None,,,,,,59,0,58,2989.828713900002,,,,,,,,,,,,,,,,,,,,,,,2989.8126237000106,2989.828713900002,2990.3123908000416,,,,,,,,,,,,,,2990.3291485999944,,,,,,,,,,,,,2990.3235967000364,2990.3291485999944,2990.3291485999944,2990.3291485999944,2993.328866099997,2993.328866099997,2993.328866099997,2993.3125365999877,indoor,j,2.0139691999647766,0.16801180003676564,2993.3125794000225,2993.312591599999,None,,,,,,,,,,,,,,00064,001,2026-01-20_10h40.57.117,MST_task,2024.2.0,59.87367852004397,2026-01-20 10h41.15.068817 +0530,
,Objects\324a.jpg,59,0,60,,,,,,,f,1.6982066999771632,0.16807700000936165,None,,,,,,60,0,59,2993.328866099997,,,,,,,,,,,,,,,,,,,,,,,2993.3126573000336,2993.328866099997,2993.81229120004,,,,,,,,,,,,,,2993.829021900019,,,,,,,,,,,,,2993.823006200022,2993.829021900019,2993.829021900019,2993.829021900019,2996.828716000018,2996.828716000018,2996.828716000018,2996.812650600041,indoor,f,1.6982066999771632,0.16807700000936165,2996.8126939000213,2996.812705199991,None,,,,,,,,,,,,,,00064,001,2026-01-20_10h40.57.117,MST_task,2024.2.0,59.87367852004397,2026-01-20 10h41.15.068817 +0530,
,Objects\296a.jpg,60,0,61,,,,,,,f,2.8626188000198454,None,None,,,,,,61,0,60,2996.828716000018,,,,,,,,,,,,,,,,,,,,,,,2996.812768200005,2996.828716000018,2997.3123295000405,,,,,,,,,,,,,,2997.3291481999913,,,,,,,,,,,,,2997.3224973999895,2997.3291481999913,2997.3291481999913,2997.3291481999913,3000.328782800003,3000.328782800003,3000.328782800003,3000.3125939000165,indoor,f,2.8626188000198454,None,3000.312637099996,3000.312648500025,None,,,,,,,,,,,,,,00064,001,2026-01-20_10h40.57.117,MST_task,2024.2.0,59.87367852004397,2026-01-20 10h41.15.068817 +0530,
,Objects\067a.jpg,61,0,62,,,,,,,f,2.6909325000015087,0.13599699997575954,None,,,,,,62,0,61,3000.328782800003,,,,,,,,,,,,,,,,,,,,,,,3000.312711000035,3000.328782800003,3000.812158900022,,,,,,,,,,,,,,3000.8290384000284,,,,,,,,,,,,,3000.8220730000176,3000.8290384000284,3000.8290384000284,3000.8290384000284,3003.828682799998,3003.828682799998,3003.828682799998,3003.8123793000123,indoor,f,2.6909325000015087,0.13599699997575954,3003.812421999988,3003.8124335000175,None,,,,,,,,,,,,,,00064,001,2026-01-20_10h40.57.117,MST_task,2024.2.0,59.87367852004397,2026-01-20 10h41.15.068817 +0530,
,Objects\068a.jpg,62,0,63,,,,,,,None,,,f,1.278442199982237,None,,,,63,0,62,3003.828682799998,,,,,,,,,,,,,,,,,,,,,,,3003.812497100036,3003.828682799998,3004.312204100017,,,,,,,,,,,,,,3004.3288893999998,,,,,,,,,,,,,3004.3223837999976,3004.3288893999998,3004.3288893999998,3004.3288893999998,3007.328700300015,3007.328700300015,3007.328700300015,3007.3124443000415,indoor,None,,,3007.312493000005,3008.612348099996,f,3007.328700300015,3007.328700300015,1.278442199982237,None,,,,,,,,,,00064,001,2026-01-20_10h40.57.117,MST_task,2024.2.0,59.87367852004397,2026-01-20 10h41.15.068817 +0530,
,Objects\243a.jpg,63,0,64,,,,,,,None,,,f,0.5424302000319585,None,,,,64,0,63,3008.6286642000196,,,,,,,,,,,,,,,,,,,,,,,3008.6124333000043,3008.6286642000196,3009.1122659000102,,,,,,,,,,,,,,3009.129098000005,,,,,,,,,,,,,3009.1246056000236,3009.129098000005,3009.129098000005,3009.129098000005,3012.128684700001,3012.128684700001,3012.128684700001,3012.112454199989,shoe,None,,,3012.1146901000175,3012.679057200032,f,3012.128684700001,3012.128684700001,0.5424302000319585,None,,,,,,,,,,00064,001,2026-01-20_10h40.57.117,MST_task,2024.2.0,59.87367852004397,2026-01-20 10h41.15.068817 +0530,
,Objects\362a.jpg,64,0,65,,,,,,,f,2.235457300033886,0.19997749995673075,None,,,,,,65,0,64,3012.6952876000432,,,,,,,,,,,,,,,,,,,,,,,3012.679154500016,3012.6952876000432,3013.1797491000034,,,,,,,,,,,,,,,,,,,,,,,,,,,3013.189695900015,3013.1957682000357,3013.1957682000357,3013.1957682000357,3016.1952812999953,3016.1952812999953,3016.1952812999953,3016.1791249000235,shoe,f,2.235457300033886,0.19997749995673075,3016.179166099988,3016.1791774000158,None,,,,,,,,,,,,,,00064,001,2026-01-20_10h40.57.117,MST_task,2024.2.0,59.87367852004397,2026-01-20 10h41.15.068817 +0530,
,Objects\195a.jpg,65,0,66,,,,,,,j,2.0075015000184067,0.1923399000079371,None,,,,,,66,0,65,3016.1952812999953,,,,,,,,,,,,,,,,,,,,,,,3016.1792429999914,3016.1952812999953,3016.678897600039,,,,,,,,,,,,,,3016.6956547000445,,,,,,,,,,,,,3016.6893753000186,3016.6956547000445,3016.6956547000445,3016.6956547000445,3019.6954392000334,3019.6954392000334,3019.6954392000334,3019.6794404000393,shoe,j,2.0075015000184067,0.1923399000079371,3019.679488199996,3019.6795009000343,None,,,,,,,,,,,,,,00064,001,2026-01-20_10h40.57.117,MST_task,2024.2.0,59.87367852004397,2026-01-20 10h41.15.068817 +0530,
,Objects\221a.jpg,66,0,67,,,,,,,j,2.7401346000260673,0.167976800003089,None,,,,,,67,0,66,3019.6954392000334,,,,,,,,,,,,,,,,,,,,,,,3019.6795663000084,3019.6954392000334,3020.1791337000323,,,,,,,,,,,,,,3020.1957847999875,,,,,,,,,,,,,3020.189706700039,3020.1957847999875,3020.1957847999875,3020.1957847999875,3023.1953503999976,3023.1953503999976,3023.1953503999976,3023.179250699992,shoe,j,2.7401346000260673,0.167976800003089,3023.1792931000236,3023.1793046999956,None,,,,,,,,,,,,,,00064,001,2026-01-20_10h40.57.117,MST_task,2024.2.0,59.87367852004397,2026-01-20 10h41.15.068817 +0530,
,Objects\117a.jpg,67,0,68,,,,,,,f,1.6239862000220455,0.17540060001192614,None,,,,,,68,0,67,3023.1953503999976,,,,,,,,,,,,,,,,,,,,,,,3023.1793678000104,3023.1953503999976,3023.678961800004,,,,,,,,,,,,,,3023.695731899992,,,,,,,,,,,,,3023.6893475000397,3023.695731899992,3023.695731899992,3023.695731899992,3026.6952987000113,3026.6952987000113,3026.6952987000113,3026.679246900021,shoe,f,1.6239862000220455,0.17540060001192614,3026.679287500039,3026.679299600015,None,,,,,,,,,,,,,,00064,001,2026-01-20_10h40.57.117,MST_task,2024.2.0,59.87367852004397,2026-01-20 10h41.15.068817 +0530,
,Objects\020a.jpg,68,0,69,,,,,,,f,2.812281600025017,0.136118299968075,None,,,,,,69,0,68,3026.6952987000113,,,,,,,,,,,,,,,,,,,,,,,3026.679363800038,3026.6952987000113,3027.1791344000376,,,,,,,,,,,,,,3027.195535100007,,,,,,,,,,,,,3027.188551500032,3027.195535100007,3027.195535100007,3027.195535100007,3030.1953372000135,3030.1953372000135,3030.1953372000135,3030.1794379000203,shoe,f,2.812281600025017,0.136118299968075,3030.179484100023,3030.1794961999985,None,,,,,,,,,,,,,,00064,001,2026-01-20_10h40.57.117,MST_task,2024.2.0,59.87367852004397,2026-01-20 10h41.15.068817 +0530,
,Objects\191a.jpg,69,0,70,,,,,,,f,1.7274610999738798,0.15244800003711134,None,,,,,,70,0,69,3030.1953372000135,,,,,,,,,,,,,,,,,,,,,,,3030.17960470001,3030.1953372000135,3030.678922699997,,,,,,,,,,,,,,3030.6956075000344,,,,,,,,,,,,,3030.6883275000146,3030.6956075000344,3030.6956075000344,3030.6956075000344,3033.695328200003,3033.695328200003,3033.695328200003,3033.6793694000226,shoe,f,1.7274610999738798,0.15244800003711134,3033.6794149000198,3033.679427700001,None,,,,,,,,,,,,,,00064,001,2026-01-20_10h40.57.117,MST_task,2024.2.0,59.87367852004397,2026-01-20 10h41.15.068817 +0530,
,Objects\021a.jpg,70,0,71,,,,,,,f,2.4519929999951273,0.1840004000114277,None,,,,,,71,0,70,3033.695328200003,,,,,,,,,,,,,,,,,,,,,,,3033.6795293000177,3033.695328200003,3034.179372100043,,,,,,,,,,,,,,3034.1956078000367,,,,,,,,,,,,,3034.1905901000137,3034.1956078000367,3034.1956078000367,3034.1956078000367,3037.1953534000204,3037.1953534000204,3037.1953534000204,3037.1792766000144,indoor,f,2.4519929999951273,0.1840004000114277,3037.1809181999997,3037.1809350000112,None,,,,,,,,,,,,,,00064,001,2026-01-20_10h40.57.117,MST_task,2024.2.0,59.87367852004397,2026-01-20 10h41.15.068817 +0530,
,Objects\118a.jpg,71,0,72,,,,,,,f,2.951463900040835,None,None,,,,,,72,0,71,3037.1953534000204,,,,,,,,,,,,,,,,,,,,,,,3037.181003500009,3037.1953534000204,3037.6789363000426,,,,,,,,,,,,,,3037.6955320000416,,,,,,,,,,,,,3037.689297200006,3037.6955320000416,3037.6955320000416,3037.6955320000416,3040.695356500044,3040.695356500044,3040.695356500044,3040.6796102999942,indoor,f,2.951463900040835,None,3040.679656399996,3040.6796688000322,None,,,,,,,,,,,,,,00064,001,2026-01-20_10h40.57.117,MST_task,2024.2.0,59.87367852004397,2026-01-20 10h41.15.068817 +0530,
,Objects\234a.jpg,72,0,73,,,,,,,None,,,f,0.40376289997948334,None,,,,73,0,72,3040.695356500044,,,,,,,,,,,,,,,,,,,,,,,3040.679732699995,3040.695356500044,3041.178902000014,,,,,,,,,,,,,,3041.1956116000074,,,,,,,,,,,,,3041.190094700025,3041.1956116000074,3041.1956116000074,3041.1956116000074,3044.1953019000357,3044.1953019000357,3044.1953019000357,3044.1792724000406,indoor,None,,,3044.1793109000428,3044.6122723000008,f,3044.1953019000357,3044.1953019000357,0.40376289997948334,None,,,,,,,,,,00064,001,2026-01-20_10h40.57.117,MST_task,2024.2.0,59.87367852004397,2026-01-20 10h41.15.068817 +0530,
,Objects\160a.jpg,73,0,74,,,,,,,f,2.5660627000033855,0.17599900002824143,None,,,,,,74,0,73,3044.6286928000045,,,,,,,,,,,,,,,,,,,,,,,3044.612358800019,3044.6286928000045,3045.1124481000006,,,,,,,,,,,,,,3045.1291078000213,,,,,,,,,,,,,3045.123430000036,3045.1291078000213,3045.1291078000213,3045.1291078000213,3048.1287041000323,3048.1287041000323,3048.1287041000323,3048.1125161999953,indoor,f,2.5660627000033855,0.17599900002824143,3048.1125605000416,3048.112573200022,None,,,,,,,,,,,,,,00064,001,2026-01-20_10h40.57.117,MST_task,2024.2.0,59.87367852004397,2026-01-20 10h41.15.068817 +0530,
,Objects\255a.jpg,74,0,75,,,,,,,f,2.5780969000188634,0.1763787999516353,None,,,,,,75,0,74,3048.1287041000323,,,,,,,,,,,,,,,,,,,,,,,3048.112637100043,3048.1287041000323,3048.6121581000043,,,,,,,,,,,,,,3048.6290469000232,,,,,,,,,,,,,3048.622455200006,3048.6290469000232,3048.6290469000232,3048.6290469000232,3051.6286384999985,3051.6286384999985,3051.6286384999985,3051.6123784999945,indoor,f,2.5780969000188634,0.1763787999516353,3051.6124309000443,3051.612443400023,None,,,,,,,,,,,,,,00064,001,2026-01-20_10h40.57.117,MST_task,2024.2.0,59.87367852004397,2026-01-20 10h41.15.068817 +0530,
,Objects\113a.jpg,75,0,76,,,,,,,f,2.5342562000150792,0.19299860001774505,None,,,,,,76,0,75,3051.6286384999985,,,,,,,,,,,,,,,,,,,,,,,3051.612507699989,3051.6286384999985,3052.1139705000096,,,,,,,,,,,,,,3052.129121100006,,,,,,,,,,,,,3052.1248813000275,3052.129121100006,3052.129121100006,3052.129121100006,3055.1286484000157,3055.1286484000157,3055.1286484000157,3055.1125096000032,indoor,f,2.5342562000150792,0.19299860001774505,3055.1125523000374,3055.112566100026,None,,,,,,,,,,,,,,00064,001,2026-01-20_10h40.57.117,MST_task,2024.2.0,59.87367852004397,2026-01-20 10h41.15.068817 +0530,
,Objects\244a.jpg,76,0,77,,,,,,,f,2.3146222999785095,0.14391149999573827,None,,,,,,77,0,76,3055.1286484000157,,,,,,,,,,,,,,,,,,,,,,,3055.1126305999933,3055.1286484000157,3055.6121883000014,,,,,,,,,,,,,,3055.6290850000223,,,,,,,,,,,,,3055.62127350003,3055.6290850000223,3055.6290850000223,3055.6290850000223,3058.628742400033,3058.628742400033,3058.628742400033,3058.612662600004,indoor,f,2.3146222999785095,0.14391149999573827,3058.612712900038,3058.612725200015,None,,,,,,,,,,,,,,00064,001,2026-01-20_10h40.57.117,MST_task,2024.2.0,59.87367852004397,2026-01-20 10h41.15.068817 +0530,
,Objects\228a.jpg,77,0,78,,,,,,,None,,,f,0.18235379998805,None,,,,78,0,77,3058.628742400033,,,,,,,,,,,,,,,,,,,,,,,3058.6127925000037,3058.628742400033,3059.11230670003,,,,,,,,,,,,,,3059.1290249000303,,,,,,,,,,,,,3059.125308900024,3059.1290249000303,3059.1290249000303,3059.1290249000303,3062.1287287999876,3062.1287287999876,3062.1287287999876,3062.1124278000207,shoe,None,,,3062.1145839000237,3062.3124985999893,f,3062.1287287999876,3062.1287287999876,0.18235379998805,None,,,,,,,,,,00064,001,2026-01-20_10h40.57.117,MST_task,2024.2.0,59.87367852004397,2026-01-20 10h41.15.068817 +0530,
,Objects\154a.jpg,78,0,79,,,,,,,None,,,j,0.20223709999118,None,,,,79,0,78,3062.328687900037,,,,,,,,,,,,,,,,,,,,,,,3062.312584200001,3062.328687900037,3062.812192100042,,,,,,,,,,,,,,3062.8289433000027,,,,,,,,,,,,,3062.821871399996,3062.8289433000027,3062.8289433000027,3062.8289433000027,3065.828831700026,3065.828831700026,3065.828831700026,3065.8125438000425,shoe,None,,,3065.812583699997,3066.0458145000157,j,3065.828831700026,3065.828831700026,0.20223709999118,None,,,,,,,,,,00064,001,2026-01-20_10h40.57.117,MST_task,2024.2.0,59.87367852004397,2026-01-20 10h41.15.068817 +0530,
,Objects\199a.jpg,79,0,80,,,,,,,None,,,f,1.717110900033731,None,,,,80,0,79,3066.062049400003,,,,,,,,,,,,,,,,,,,,,,,3066.045934099995,3066.062049400003,3066.5456743999966,,,,,,,,,,,,,,3066.5624352000304,,,,,,,,,,,,,3066.5556768000242,3066.5624352000304,3066.5624352000304,3066.5624352000304,3069.5620734000113,3069.5620734000113,3069.5620734000113,3069.546221000026,shoe,None,,,3069.546265400015,3071.2957843000186,f,3069.5620734000113,3069.5620734000113,1.717110900033731,None,,,,,,,,,,00064,001,2026-01-20_10h40.57.117,MST_task,2024.2.0,59.87367852004397,2026-01-20 10h41.15.068817 +0530,
,Objects\164a.jpg,80,0,81,,,,,,,None,,,f,1.1473548000212759,None,,,,81,0,80,3071.3121403999976,,,,,,,,,,,,,,,,,,,,,,,3071.295869500027,3071.3121403999976,3071.795640400029,,,,,,,,,,,,,,3071.8123207000317,,,,,,,,,,,,,3071.806191699987,3071.8123207000317,3071.8123207000317,3071.8123207000317,3074.8121078000404,3074.8121078000404,3074.8121078000404,3074.796011600003,shoe,None,,,3074.796050200006,3075.96262190002,f,3074.8121078000404,3074.8121078000404,1.1473548000212759,None,,,,,,,,,,00064,001,2026-01-20_10h40.57.117,MST_task,2024.2.0,59.87367852004397,2026-01-20 10h41.15.068817 +0530,
,Objects\165a.jpg,81,0,82,,,,,,,None,,,f,0.6170975000131875,None,,,,82,0,81,3075.978807700041,,,,,,,,,,,,,,,,,,,,,,,3075.9627406999934,3075.978807700041,3076.462352200004,,,,,,,,,,,,,,3076.479093400005,,,,,,,,,,,,,3076.472157500044,3076.479093400005,3076.479093400005,3076.479093400005,3079.4786820000154,3079.4786820000154,3079.4786820000154,3079.462538200023,shoe,None,,,3079.4625778000336,3080.1124146000366,f,3079.4786820000154,3079.4786820000154,0.6170975000131875,None,,,,,,,,,,00064,001,2026-01-20_10h40.57.117,MST_task,2024.2.0,59.87367852004397,2026-01-20 10h41.15.068817 +0530,
,Objects\213a.jpg,82,0,83,,,,,,,None,,,f,0.9788382999831811,None,,,,83,0,82,3080.128778800019,,,,,,,,,,,,,,,,,,,,,,,3080.1125519000343,3080.128778800019,3080.6123955000076,,,,,,,,,,,,,,3080.62925550004,,,,,,,,,,,,,3080.623244300019,3080.62925550004,3080.62925550004,3080.62925550004,3083.628811600036,3083.628811600036,3083.628811600036,3083.6127838999964,shoe,None,,,3083.6128208000446,3084.6125012999983,f,3083.628811600036,3083.628811600036,0.9788382999831811,None,,,,,,,,,,00064,001,2026-01-20_10h40.57.117,MST_task,2024.2.0,59.87367852004397,2026-01-20 10h41.15.068817 +0530,
,Objects\136a.jpg,83,0,84,,,,,,,None,,,j,1.7183588999905623,None,,,,84,0,83,3084.6290140000056,,,,,,,,,,,,,,,,,,,,,,,3084.61259850004,3084.6290140000056,3085.112387900008,,,,,,,,,,,,,,3085.1293233000324,,,,,,,,,,,,,3085.1226946000243,3085.1293233000324,3085.1293233000324,3085.1293233000324,3088.128814900003,3088.128814900003,3088.128814900003,3088.112516299996,shoe,None,,,3088.1125555000035,3089.8624154000427,j,3088.128814900003,3088.128814900003,1.7183588999905623,None,,,,,,,,,,00064,001,2026-01-20_10h40.57.117,MST_task,2024.2.0,59.87367852004397,2026-01-20 10h41.15.068817 +0530,
,Objects\180a.jpg,84,0,85,,,,,,,None,,,j,1.0042505000019446,None,,,,85,0,84,3089.8786989999935,,,,,,,,,,,,,,,,,,,,,,,3089.8625453000423,3089.8786989999935,3090.362359200022,,,,,,,,,,,,,,3090.3790828000056,,,,,,,,,,,,,3090.374664700008,3090.3790828000056,3090.3790828000056,3090.3790828000056,3093.3787242000108,3093.3787242000108,3093.3787242000108,3093.362666800036,indoor,None,,,3093.3643138000043,3094.395734800026,j,3093.3787242000108,3093.3787242000108,1.0042505000019446,None,,,,,,,,,,00064,001,2026-01-20_10h40.57.117,MST_task,2024.2.0,59.87367852004397,2026-01-20 10h41.15.068817 +0530,
,Objects\311a.jpg,85,0,86,,,,,,,None,,,j,0.8880879000062123,None,,,,86,0,85,3094.411866700044,,,,,,,,,,,,,,,,,,,,,,,3094.39582710003,3094.411866700044,3094.895755800011,,,,,,,,,,,,,,3094.9122858000337,,,,,,,,,,,,,3094.9061796999886,3094.9122858000337,3094.9122858000337,3094.9122858000337,3097.9119795000297,3097.9119795000297,3097.9119795000297,3097.895944799995,indoor,None,,,3097.895987500029,3098.8123046000255,j,3097.9119795000297,3097.9119795000297,0.8880879000062123,None,,,,,,,,,,00064,001,2026-01-20_10h40.57.117,MST_task,2024.2.0,59.87367852004397,2026-01-20 10h41.15.068817 +0530,
,Objects\217a.jpg,86,0,87,,,,,,,f,2.9581238999962807,None,None,,,,,,87,0,86,3098.8287053999957,,,,,,,,,,,,,,,,,,,,,,,3098.8123879000195,3098.8287053999957,3099.312343800033,,,,,,,,,,,,,,3099.3291914000292,,,,,,,,,,,,,3099.325210000039,3099.3291914000292,3099.3291914000292,3099.3291914000292,3102.3287184000365,3102.3287184000365,3102.3287184000365,3102.3125482000178,indoor,f,2.9581238999962807,None,3102.31259039999,3102.312602800026,None,,,,,,,,,,,,,,00064,001,2026-01-20_10h40.57.117,MST_task,2024.2.0,59.87367852004397,2026-01-20 10h41.15.068817 +0530,
,Objects\048a.jpg,87,0,88,,,,,,,f,2.466722499986645,0.16025040001841262,None,,,,,,88,0,87,3102.3287184000365,,,,,,,,,,,,,,,,,,,,,,,3102.3126636000234,3102.3287184000365,3102.8121190000093,,,,,,,,,,,,,,3102.829101500043,,,,,,,,,,,,,3102.8221922999946,3102.829101500043,3102.829101500043,3102.829101500043,3105.8287211999996,3105.8287211999996,3105.8287211999996,3105.81236000004,indoor,f,2.466722499986645,0.16025040001841262,3105.8124016000074,3105.8124133000383,None,,,,,,,,,,,,,,00064,001,2026-01-20_10h40.57.117,MST_task,2024.2.0,59.87367852004397,2026-01-20 10h41.15.068817 +0530,
,Objects\377a.jpg,88,0,89,,,,,,,j,2.134031900030095,0.1277484999736771,None,,,,,,89,0,88,3105.8287211999996,,,,,,,,,,,,,,,,,,,,,,,3105.8124760999926,3105.8287211999996,3106.312199900043,,,,,,,,,,,,,,3106.3292141000275,,,,,,,,,,,,,3106.321977899992,3106.3292141000275,3106.3292141000275,3106.3292141000275,3109.328713900002,3109.328713900002,3109.328713900002,3109.3124312,indoor,j,2.134031900030095,0.1277484999736771,3109.3124741000356,3109.3124862000113,None,,,,,,,,,,,,,,00064,001,2026-01-20_10h40.57.117,MST_task,2024.2.0,59.87367852004397,2026-01-20 10h41.15.068817 +0530,
,Objects\015a.jpg,89,0,90,,,,,,,j,1.8579176999628544,0.18398850003723055,None,,,,,,90,0,89,3109.328713900002,,,,,,,,,,,,,,,,,,,,,,,3109.3125487000216,3109.328713900002,3109.8121772999875,,,,,,,,,,,,,,3109.82905890001,,,,,,,,,,,,,3109.8232689000433,3109.82905890001,3109.82905890001,3109.82905890001,3112.8287060000002,3112.8287060000002,3112.8287060000002,3112.8125082000042,indoor,j,1.8579176999628544,0.18398850003723055,3112.8125540000037,3112.8125658000354,None,,,,,,,,,,,,,,00064,001,2026-01-20_10h40.57.117,MST_task,2024.2.0,59.87367852004397,2026-01-20 10h41.15.068817 +0530,
,Objects\251a.jpg,90,0,91,,,,,,,None,,,j,1.25480900000548,None,,,,91,0,90,3112.8287060000002,,,,,,,,,,,,,,,,,,,,,,,3112.8126311000087,3112.8287060000002,3113.3121438000235,,,,,,,,,,,,,,3113.3290735000046,,,,,,,,,,,,,3113.3221829000395,3113.3290735000046,3113.3290735000046,3113.3290735000046,3116.3287477000267,3116.3287477000267,3116.3287477000267,3116.3125027000206,indoor,None,,,3116.312541900028,3117.5958014000207,j,3116.3287477000267,3116.3287477000267,1.25480900000548,None,,,,,,,,,,00064,001,2026-01-20_10h40.57.117,MST_task,2024.2.0,59.87367852004397,2026-01-20 10h41.15.068817 +0530,
,Objects\182a.jpg,91,0,92,,,,,,,None,,,f,1.0077686000149697,None,,,,92,0,91,3117.6119753000094,,,,,,,,,,,,,,,,,,,,,,,3117.595887100033,3117.6119753000094,3118.095671200019,,,,,,,,,,,,,,3118.1123338000034,,,,,,,,,,,,,3118.1088299000403,3118.1123338000034,3118.1123338000034,3118.1123338000034,3121.111942299991,3121.111942299991,3121.111942299991,3121.096049100044,shoe,None,,,3121.0982061999966,3122.129238100024,f,3121.111942299991,3121.111942299991,1.0077686000149697,None,,,,,,,,,,00064,001,2026-01-20_10h40.57.117,MST_task,2024.2.0,59.87367852004397,2026-01-20 10h41.15.068817 +0530,
,Objects\223a.jpg,92,0,93,,,,,,,j,2.185334099980537,0.1371062000398524,None,,,,,,93,0,92,3122.145429300028,,,,,,,,,,,,,,,,,,,,,,,3122.1293382000295,3122.145429300028,3122.629009300028,,,,,,,,,,,,,,3122.6457212000387,,,,,,,,,,,,,3122.6392314000404,3122.6457212000387,3122.6457212000387,3122.6457212000387,3125.645386899996,3125.645386899996,3125.645386899996,3125.62922599999,shoe,j,2.185334099980537,0.1371062000398524,3125.6292672000127,3125.62927949999,None,,,,,,,,,,,,,,00064,001,2026-01-20_10h40.57.117,MST_task,2024.2.0,59.87367852004397,2026-01-20 10h41.15.068817 +0530,
,Objects\224a.jpg,93,0,94,,,,,,,None,,,f,2.103566299949307,None,,,,94,0,93,3125.645386899996,,,,,,,,,,,,,,,,,,,,,,,3125.6293798999977,3125.645386899996,3126.1293041000026,,,,,,,,,,,,,,3126.145794400014,,,,,,,,,,,,,3126.139959799999,3126.145794400014,3126.145794400014,3126.145794400014,3129.1453320000437,3129.1453320000437,3129.1453320000437,3129.129454000038,shoe,None,,,3129.1294978000224,3131.2623905999935,f,3129.1453320000437,3129.1453320000437,2.103566299949307,None,,,,,,,,,,00064,001,2026-01-20_10h40.57.117,MST_task,2024.2.0,59.87367852004397,2026-01-20 10h41.15.068817 +0530,
,Objects\181a.jpg,94,0,95,,,,,,,None,,,j,0.9411371999885887,None,,,,95,0,94,3131.2786978000076,,,,,,,,,,,,,,,,,,,,,,,3131.2624761000043,3131.2786978000076,3131.7622957000276,,,,,,,,,,,,,,3131.7791781999986,,,,,,,,,,,,,3131.772999800043,3131.7791781999986,3131.7791781999986,3131.7791781999986,3134.7787363000098,3134.7787363000098,3134.7787363000098,3134.7625383000122,shoe,None,,,3134.762576600013,3135.7290592000354,j,3134.7787363000098,3134.7787363000098,0.9411371999885887,None,,,,,,,,,,00064,001,2026-01-20_10h40.57.117,MST_task,2024.2.0,59.87367852004397,2026-01-20 10h41.15.068817 +0530,
,Objects\317a.jpg,95,0,96,,,,,,,None,,,j,1.282349899993278,None,,,,96,0,95,3135.745376000006,,,,,,,,,,,,,,,,,,,,,,,3135.7291449999902,3135.745376000006,3136.229051500035,,,,,,,,,,,,,,3136.245583000011,,,,,,,,,,,,,3136.2387886000215,3136.245583000011,3136.245583000011,3136.245583000011,3139.2453819999937,3139.2453819999937,3139.2453819999937,3139.2294099000283,shoe,None,,,3139.2294510999927,3140.5292854,j,3139.2453819999937,3139.2453819999937,1.282349899993278,None,,,,,,,,,,00064,001,2026-01-20_10h40.57.117,MST_task,2024.2.0,59.87367852004397,2026-01-20 10h41.15.068817 +0530,
,Objects\189a.jpg,96,0,97,,,,,,,j,1.9454684999655,0.14403750002384186,None,,,,,,97,0,96,3140.545386700018,,,,,,,,,,,,,,,,,,,,,,,3140.529405700043,3140.545386700018,3141.028986899997,,,,,,,,,,,,,,3141.0456796000362,,,,,,,,,,,,,3141.0391792000155,3141.0456796000362,3141.0456796000362,3141.0456796000362,3144.045414299995,3144.045414299995,3144.045414299995,3144.029543300043,shoe,j,1.9454684999655,0.14403750002384186,3144.0295887000393,3144.0296063999995,None,,,,,,,,,,,,,,00064,001,2026-01-20_10h40.57.117,MST_task,2024.2.0,59.87367852004397,2026-01-20 10h41.15.068817 +0530,
,Objects\193a.jpg,97,0,98,,,,,,,None,,,f,1.078766499995254,None,,,,98,0,97,3144.045414299995,,,,,,,,,,,,,,,,,,,,,,,3144.029726800043,3144.045414299995,3144.5292032000143,,,,,,,,,,,,,,3144.5456172000268,,,,,,,,,,,,,3144.538934900018,3144.5456172000268,3144.5456172000268,3144.5456172000268,3147.5454017000156,3147.5454017000156,3147.5454017000156,3147.5292004999937,shoe,None,,,3147.529238499992,3148.6295196000137,f,3147.5454017000156,3147.5454017000156,1.078766499995254,None,,,,,,,,,,00064,001,2026-01-20_10h40.57.117,MST_task,2024.2.0,59.87367852004397,2026-01-20 10h41.15.068817 +0530,
,Objects\087a.jpg,98,0,99,,,,,,,j,2.1333134999731556,0.13691830000607297,None,,,,,,99,0,98,3148.6455645000096,,,,,,,,,,,,,,,,,,,,,,,3148.629612700024,3148.6455645000096,3149.128972400038,,,,,,,,,,,,,,3149.1456271000206,,,,,,,,,,,,,3149.140512200014,3149.1456271000206,3149.1456271000206,3149.1456271000206,3152.1455031000078,3152.1455031000078,3152.1455031000078,3152.129719700024,indoor,j,2.1333134999731556,0.13691830000607297,3152.131478400028,3152.1314970999956,None,,,,,,,,,,,,,,00064,001,2026-01-20_10h40.57.117,MST_task,2024.2.0,59.87367852004397,2026-01-20 10h41.15.068817 +0530,
,Objects\203a.jpg,99,0,100,,,,,,,j,1.969836000003852,0.19203079998260364,None,,,,,,100,0,99,3152.1455031000078,,,,,,,,,,,,,,,,,,,,,,,3152.131566600001,3152.1455031000078,3152.628965799988,,,,,,,,,,,,,,3152.645762900007,,,,,,,,,,,,,3152.638608500012,3152.645762900007,3152.645762900007,3152.645762900007,3155.6453756000265,3155.6453756000265,3155.6453756000265,3155.629254600033,indoor,j,1.969836000003852,0.19203079998260364,3155.6293036999996,3155.6293159000343,None,,,,,,,,,,,,,,00064,001,2026-01-20_10h40.57.117,MST_task,2024.2.0,59.87367852004397,2026-01-20 10h41.15.068817 +0530,
,Objects\225a.jpg,100,0,101,,,,,,,None,,,j,1.1259674999746494,None,,,,101,0,100,3155.6453756000265,,,,,,,,,,,,,,,,,,,,,,,3155.6293816000107,3155.6453756000265,3156.12892019999,,,,,,,,,,,,,,3156.1461325000273,,,,,,,,,,,,,3156.1385387000046,3156.1461325000273,3156.1461325000273,3156.1461325000273,3159.1453944999957,3159.1453944999957,3159.1453944999957,3159.129237700021,indoor,None,,,3159.1292748000124,3160.2790999000426,j,3159.1453944999957,3159.1453944999957,1.1259674999746494,None,,,,,,,,,,00064,001,2026-01-20_10h40.57.117,MST_task,2024.2.0,59.87367852004397,2026-01-20 10h41.15.068817 +0530,
,Objects\292a.jpg,101,0,102,,,,,,,None,,,f,1.228067199990619,None,,,,102,0,101,3160.2953955000266,,,,,,,,,,,,,,,,,,,,,,,3160.2791848999914,3160.2953955000266,3160.778977400041,,,,,,,,,,,,,,3160.7958004000247,,,,,,,,,,,,,3160.7898358000093,3160.7958004000247,3160.7958004000247,3160.7958004000247,3163.795410300023,3163.795410300023,3163.795410300023,3163.7792148000444,indoor,None,,,3163.779260200041,3165.0294028000208,f,3163.795410300023,3163.795410300023,1.228067199990619,None,,,,,,,,,,00064,001,2026-01-20_10h40.57.117,MST_task,2024.2.0,59.87367852004397,2026-01-20 10h41.15.068817 +0530,
,Objects\238a.jpg,102,0,103,,,,,,,f,2.9496882999665104,None,None,,,,,,103,0,102,3165.0454212999903,,,,,,,,,,,,,,,,,,,,,,,3165.0294975000434,3165.0454212999903,3165.528889900015,,,,,,,,,,,,,,3165.5456935000257,,,,,,,,,,,,,3165.5392899000435,3165.5456935000257,3165.5456935000257,3165.5456935000257,3168.5454195000348,3168.5454195000348,3168.5454195000348,3168.5292491000146,indoor,f,2.9496882999665104,None,3168.5292995999916,3168.529312000028,None,,,,,,,,,,,,,,00064,001,2026-01-20_10h40.57.117,MST_task,2024.2.0,59.87367852004397,2026-01-20 10h41.15.068817 +0530,
,Objects\358a.jpg,103,0,104,,,,,,,f,2.201377900026273,0.14461299998220056,None,,,,,,104,0,103,3168.5454195000348,,,,,,,,,,,,,,,,,,,,,,,3168.52937579999,3168.5454195000348,3169.028968000028,,,,,,,,,,,,,,3169.045697499998,,,,,,,,,,,,,3169.0395863000304,3169.045697499998,3169.045697499998,3169.045697499998,3172.0457018000307,3172.0457018000307,3172.0457018000307,3172.0292815000284,indoor,f,2.201377900026273,0.14461299998220056,3172.0293235999998,3172.029335600033,None,,,,,,,,,,,,,,00064,001,2026-01-20_10h40.57.117,MST_task,2024.2.0,59.87367852004397,2026-01-20 10h41.15.068817 +0530,
,Objects\360a.jpg,104,0,105,,,,,,,f,1.941841599997133,0.15142890001880005,None,,,,,,105,0,104,3172.0457018000307,,,,,,,,,,,,,,,,,,,,,,,3172.0293994999956,3172.0457018000307,3172.5290186000057,,,,,,,,,,,,,,3172.5458142000134,,,,,,,,,,,,,3172.5386992000276,3172.5458142000134,3172.5458142000134,3172.5458142000134,3175.54532080004,3175.54532080004,3175.54532080004,3175.5298421999905,indoor,f,1.941841599997133,0.15142890001880005,3175.529887599987,3175.529899300018,None,,,,,,,,,,,,,,00064,001,2026-01-20_10h40.57.117,MST_task,2024.2.0,59.87367852004397,2026-01-20 10h41.15.068817 +0530,
,Objects\288a.jpg,105,0,106,,,,,,,None,,,f,1.570440499985125,None,,,,106,0,105,3175.54532080004,,,,,,,,,,,,,,,,,,,,,,,3175.529975900019,3175.54532080004,3176.029039099987,,,,,,,,,,,,,,3176.0457827000064,,,,,,,,,,,,,3176.041572200018,3176.0457827000064,3176.0457827000064,3176.0457827000064,3179.0453591000405,3179.0453591000405,3179.0453591000405,3179.029392800003,shoe,None,,,3179.0315101000015,3180.6291980000096,f,3179.0453591000405,3179.0453591000405,1.570440499985125,None,,,,,,,,,,00064,001,2026-01-20_10h40.57.117,MST_task,2024.2.0,59.87367852004397,2026-01-20 10h41.15.068817 +0530,
,Objects\184a.jpg,106,0,107,,,,,,,j,2.2616397000383586,0.15200109995203093,None,,,,,,107,0,106,3180.64541430003,,,,,,,,,,,,,,,,,,,,,,,3180.629295999999,3180.64541430003,3181.129122800019,,,,,,,,,,,,,,3181.1457463999977,,,,,,,,,,,,,3181.1398438999895,3181.1457463999977,3181.1457463999977,3181.1457463999977,3184.1455252000014,3184.1455252000014,3184.1455252000014,3184.1292799999937,shoe,j,2.2616397000383586,0.15200109995203093,3184.1293216000195,3184.1293330999906,None,,,,,,,,,,,,,,00064,001,2026-01-20_10h40.57.117,MST_task,2024.2.0,59.87367852004397,2026-01-20 10h41.15.068817 +0530,
,Objects\088a.jpg,107,0,108,,,,,,,j,1.9691839999868535,0.15319340000860393,None,,,,,,108,0,107,3184.1455252000014,,,,,,,,,,,,,,,,,,,,,,,3184.129426600004,3184.1455252000014,3184.629151900008,,,,,,,,,,,,,,3184.645769900002,,,,,,,,,,,,,3184.640768799989,3184.645769900002,3184.645769900002,3184.645769900002,3187.6454357000184,3187.6454357000184,3187.6454357000184,3187.6292804999975,shoe,j,1.9691839999868535,0.15319340000860393,3187.629321400018,3187.629333299992,None,,,,,,,,,,,,,,00064,001,2026-01-20_10h40.57.117,MST_task,2024.2.0,59.87367852004397,2026-01-20 10h41.15.068817 +0530,
,Objects\168a.jpg,108,0,109,,,,,,,None,,,j,2.0620169999892823,None,,,,109,0,108,3187.6454357000184,,,,,,,,,,,,,,,,,,,,,,,3187.6294269000064,3187.6454357000184,3188.1291586000007,,,,,,,,,,,,,,3188.1456873000134,,,,,,,,,,,,,3188.1392254999955,3188.1456873000134,3188.1456873000134,3188.1456873000134,3191.1454999000416,3191.1454999000416,3191.1454999000416,3191.1293080000323,shoe,None,,,3191.129346300033,3193.2124250000343,j,3191.1454999000416,3191.1454999000416,2.0620169999892823,None,,,,,,,,,,00064,001,2026-01-20_10h40.57.117,MST_task,2024.2.0,59.87367852004397,2026-01-20 10h41.15.068817 +0530,
,Objects\335a.jpg,109,0,110,,,,,,,j,1.9418226000270806,0.1684362999512814,None,,,,,,110,0,109,3193.228688800009,,,,,,,,,,,,,,,,,,,,,,,3193.212558200001,3193.228688800009,3193.7125691000256,,,,,,,,,,,,,,3193.729374699993,,,,,,,,,,,,,3193.7234450000105,3193.729374699993,3193.729374699993,3193.729374699993,3196.728926800017,3196.728926800017,3196.728926800017,3196.712667900021,shoe,j,1.9418226000270806,0.1684362999512814,3196.7127143000253,3196.7127266000025,None,,,,,,,,,,,,,,00064,001,2026-01-20_10h40.57.117,MST_task,2024.2.0,59.87367852004397,2026-01-20 10h41.15.068817 +0530,
,Objects\148a.jpg,110,0,111,,,,,,,None,,,j,1.378782699990552,None,,,,111,0,110,3196.728926800017,,,,,,,,,,,,,,,,,,,,,,,3196.712827900017,3196.728926800017,3197.212371300033,,,,,,,,,,,,,,3197.229260699998,,,,,,,,,,,,,3197.222470000037,3197.229260699998,3197.229260699998,3197.229260699998,3200.2287798000034,3200.2287798000034,3200.2287798000034,3200.212742600008,shoe,None,,,3200.212778999994,3201.612669599999,j,3200.2287798000034,3200.2287798000034,1.378782699990552,None,,,,,,,,,,00064,001,2026-01-20_10h40.57.117,MST_task,2024.2.0,59.87367852004397,2026-01-20 10h41.15.068817 +0530,
,Objects\303a.jpg,111,0,112,,,,,,,j,1.5983687000116333,0.1603084999951534,None,,,,,,112,0,111,3201.628761300002,,,,,,,,,,,,,,,,,,,,,,,3201.6127637000172,3201.628761300002,3202.1124156999867,,,,,,,,,,,,,,3202.1291364000062,,,,,,,,,,,,,3202.124459600018,3202.1291364000062,3202.1291364000062,3202.1291364000062,3205.128912000044,3205.128912000044,3205.128912000044,3205.1129293999984,shoe,j,1.5983687000116333,0.1603084999951534,3205.112985600019,3205.1129980999976,None,,,,,,,,,,,,,,00064,001,2026-01-20_10h40.57.117,MST_task,2024.2.0,59.87367852004397,2026-01-20 10h41.15.068817 +0530,
,Objects\369a.jpg,112,0,113,,,,,,,f,1.5461309000384063,0.14357630000449717,None,,,,,,113,0,112,3205.128912000044,,,,,,,,,,,,,,,,,,,,,,,3205.1130642000353,3205.128912000044,3205.6123985000304,,,,,,,,,,,,,,3205.6292557000415,,,,,,,,,,,,,3205.6237963000312,3205.6292557000415,3205.6292557000415,3205.6292557000415,3208.6288383000065,3208.6288383000065,3208.6288383000065,3208.612877000007,indoor,f,1.5461309000384063,0.14357630000449717,3208.6146021999884,3208.6146196000045,None,,,,,,,,,,,,,,00064,001,2026-01-20_10h40.57.117,MST_task,2024.2.0,59.87367852004397,2026-01-20 10h41.15.068817 +0530,
,Objects\109a.jpg,113,0,114,,,,,,,f,1.5830336999497376,0.12702250003349036,None,,,,,,114,0,113,3208.6288383000065,,,,,,,,,,,,,,,,,,,,,,,3208.6146870999946,3208.6288383000065,3209.1123854999896,,,,,,,,,,,,,,3209.1290239000227,,,,,,,,,,,,,3209.1230210000067,3209.1290239000227,3209.1290239000227,3209.1290239000227,3212.1288785000215,3212.1288785000215,3212.1288785000215,3212.1126011000015,indoor,f,1.5830336999497376,0.12702250003349036,3212.112642700027,3212.1126583000296,None,,,,,,,,,,,,,,00064,001,2026-01-20_10h40.57.117,MST_task,2024.2.0,59.87367852004397,2026-01-20 10h41.15.068817 +0530,
,Objects\280a.jpg,114,0,115,,,,,,,f,2.706530900031794,0.0879970999667421,None,,,,,,115,0,114,3212.1288785000215,,,,,,,,,,,,,,,,,,,,,,,3212.1127232,3212.1288785000215,3212.612289200013,,,,,,,,,,,,,,3212.629091800016,,,,,,,,,,,,,3212.6216445000027,3212.629091800016,3212.629091800016,3212.629091800016,3215.6287659000373,3215.6287659000373,3215.6287659000373,3215.612731900008,indoor,f,2.706530900031794,0.0879970999667421,3215.612774100038,3215.6127859000117,None,,,,,,,,,,,,,,00064,001,2026-01-20_10h40.57.117,MST_task,2024.2.0,59.87367852004397,2026-01-20 10h41.15.068817 +0530,
,Objects\036a.jpg,115,0,116,,,,,,,f,2.0784194999723695,0.12008000002242625,None,,,,,,116,0,115,3215.6287659000373,,,,,,,,,,,,,,,,,,,,,,,3215.6128511000425,3215.6287659000373,3216.1124090999947,,,,,,,,,,,,,,3216.1289381000097,,,,,,,,,,,,,3216.122257500014,3216.1289381000097,3216.1289381000097,3216.1289381000097,3219.128701800015,3219.128701800015,3219.128701800015,3219.112560999987,indoor,f,2.0784194999723695,0.12008000002242625,3219.1126066000434,3219.1126190000214,None,,,,,,,,,,,,,,00064,001,2026-01-20_10h40.57.117,MST_task,2024.2.0,59.87367852004397,2026-01-20 10h41.15.068817 +0530,
,Objects\159a.jpg,116,0,117,,,,,,,None,,,f,0.09062830003676936,None,,,,117,0,116,3219.128701800015,,,,,,,,,,,,,,,,,,,,,,,3219.112685500004,3219.128701800015,3219.612413500028,,,,,,,,,,,,,,3219.6290890999953,,,,,,,,,,,,,3219.623968800006,3219.6290890999953,3219.6290890999953,3219.6290890999953,3222.628870500019,3222.628870500019,3222.628870500019,3222.6127022000146,indoor,None,,,3222.612739300006,3222.7292443999904,f,3222.628870500019,3222.628870500019,0.09062830003676936,None,,,,,,,,,,00064,001,2026-01-20_10h40.57.117,MST_task,2024.2.0,59.87367852004397,2026-01-20 10h41.15.068817 +0530,
,Objects\201a.jpg,117,0,118,,,,,,,f,1.857921599992551,0.20008639997104183,None,,,,,,118,0,117,3222.7455221000127,,,,,,,,,,,,,,,,,,,,,,,3222.7293253000244,3222.7455221000127,3223.229066000029,,,,,,,,,,,,,,3223.2459504000144,,,,,,,,,,,,,3223.2406687000184,3223.2459504000144,3223.2459504000144,3223.2459504000144,3226.245490000001,3226.245490000001,3226.245490000001,3226.229440200026,indoor,f,1.857921599992551,0.20008639997104183,3226.2294818999944,3226.229493300023,None,,,,,,,,,,,,,,00064,001,2026-01-20_10h40.57.117,MST_task,2024.2.0,59.87367852004397,2026-01-20 10h41.15.068817 +0530,
,Objects\077a.jpg,118,0,119,,,,,,,None,,,f,0.08613940002396703,None,,,,119,0,118,3226.245490000001,,,,,,,,,,,,,,,,,,,,,,,3226.2295569000416,3226.245490000001,3226.729103300022,,,,,,,,,,,,,,3226.7459184000036,,,,,,,,,,,,,3226.7400585000287,3226.7459184000036,3226.7459184000036,3226.7459184000036,3229.745490100002,3229.745490100002,3229.745490100002,3229.7295320000267,indoor,None,,,3229.7295794000383,3229.845879600034,f,3229.745490100002,3229.745490100002,0.08613940002396703,None,,,,,,,,,,00064,001,2026-01-20_10h40.57.117,MST_task,2024.2.0,59.87367852004397,2026-01-20 10h41.15.068817 +0530,
,Objects\204a.jpg,119,0,120,,,,,,,j,2.73333990003448,0.2000020999694243,None,,,,,,120,0,119,3229.862012700003,,,,,,,,,,,,,,,,,,,,,,,3229.8459651999874,3229.862012700003,3230.3457579000387,,,,,,,,,,,,,,3230.362284600036,,,,,,,,,,,,,3230.3575557000004,3230.362284600036,3230.362284600036,3230.362284600036,3233.3621764000272,3233.3621764000272,3233.3621764000272,3233.3460204000003,shoe,j,2.73333990003448,0.2000020999694243,3233.348132700019,3233.3481514999876,None,,,,,,,,,,,,,,00064,001,2026-01-20_10h40.57.117,MST_task,2024.2.0,59.87367852004397,2026-01-20 10h41.15.068817 +0530,
,Objects\025a.jpg,120,0,121,,,,,,,None,,,j,1.113328899955377,None,,,,121,0,120,3233.3621764000272,,,,,,,,,,,,,,,,,,,,,,,3233.348220199987,3233.3621764000272,3233.8458060999983,,,,,,,,,,,,,,3233.8624311999884,,,,,,,,,,,,,3233.8557764000143,3233.8624311999884,3233.8624311999884,3233.8624311999884,3236.861952600011,3236.861952600011,3236.861952600011,3236.8459664999973,shoe,None,,,3236.846009400033,3237.9792192000314,j,3236.861952600011,3236.861952600011,1.113328899955377,None,,,,,,,,,,00064,001,2026-01-20_10h40.57.117,MST_task,2024.2.0,59.87367852004397,2026-01-20 10h41.15.068817 +0530,
,Objects\381a.jpg,121,0,122,,,,,,,j,1.855167799978517,0.1522601000033319,None,,,,,,122,0,121,3237.9954924000194,,,,,,,,,,,,,,,,,,,,,,,3237.9793496000348,3237.9954924000194,3238.479120800039,,,,,,,,,,,,,,3238.4959524000296,,,,,,,,,,,,,3238.489268300007,3238.4959524000296,3238.4959524000296,3238.4959524000296,3241.4955255000386,3241.4955255000386,3241.4955255000386,3241.47934369999,shoe,j,1.855167799978517,0.1522601000033319,3241.4793874000316,3241.4794006000157,None,,,,,,,,,,,,,,00064,001,2026-01-20_10h40.57.117,MST_task,2024.2.0,59.87367852004397,2026-01-20 10h41.15.068817 +0530,
,Objects\008a.jpg,122,0,123,,,,,,,f,1.5313991999719292,0.1440444000181742,None,,,,,,123,0,122,3241.4955255000386,,,,,,,,,,,,,,,,,,,,,,,3241.4795045999927,3241.4955255000386,3241.979018700018,,,,,,,,,,,,,,3241.995772299997,,,,,,,,,,,,,3241.9895372000174,3241.995772299997,3241.995772299997,3241.995772299997,3244.995471100032,3244.995471100032,3244.995471100032,3244.979275699996,shoe,f,1.5313991999719292,0.1440444000181742,3244.97931840003,3244.9793301000027,None,,,,,,,,,,,,,,00064,001,2026-01-20_10h40.57.117,MST_task,2024.2.0,59.87367852004397,2026-01-20 10h41.15.068817 +0530,
,Objects\355a.jpg,123,0,124,,,,,,,f,1.8007796000456437,0.1270766999805346,None,,,,,,124,0,123,3244.995471100032,,,,,,,,,,,,,,,,,,,,,,,3244.9794361999957,3244.995471100032,3245.4790829000412,,,,,,,,,,,,,,3245.495779399993,,,,,,,,,,,,,3245.4886664000223,3245.495779399993,3245.495779399993,3245.495779399993,3248.4953587999917,3248.4953587999917,3248.4953587999917,3248.4792934000143,shoe,f,1.8007796000456437,0.1270766999805346,3248.47933370003,3248.479344899999,None,,,,,,,,,,,,,,00064,001,2026-01-20_10h40.57.117,MST_task,2024.2.0,59.87367852004397,2026-01-20 10h41.15.068817 +0530,
,Objects\101a.jpg,124,0,125,,,,,,,None,,,f,0.067595100030303,None,,,,125,0,124,3248.4953587999917,,,,,,,,,,,,,,,,,,,,,,,3248.4794076000107,3248.4953587999917,3248.9789926999947,,,,,,,,,,,,,,3248.9958539000363,,,,,,,,,,,,,3248.9891800000332,3248.9958539000363,3248.9958539000363,3248.9958539000363,3251.9954206999973,3251.9954206999973,3251.9954206999973,3251.9792862000177,shoe,None,,,3251.979324200016,3252.07915960002,f,3251.9954206999973,3251.9954206999973,0.067595100030303,None,,,,,,,,,,00064,001,2026-01-20_10h40.57.117,MST_task,2024.2.0,59.87367852004397,2026-01-20 10h41.15.068817 +0530,
,Objects\268a.jpg,125,0,126,,,,,,,f,2.909166000026744,None,None,,,,,,126,0,125,3252.0953965000226,,,,,,,,,,,,,,,,,,,,,,,3252.079242800013,3252.0953965000226,3252.579215200036,,,,,,,,,,,,,,3252.5957650000346,,,,,,,,,,,,,3252.5888799999957,3252.5957650000346,3252.5957650000346,3252.5957650000346,3255.5954018000048,3255.5954018000048,3255.5954018000048,3255.579609600012,shoe,f,2.909166000026744,None,3255.579657000024,3255.579669700004,None,,,,,,,,,,,,,,00064,001,2026-01-20_10h40.57.117,MST_task,2024.2.0,59.87367852004397,2026-01-20 10h41.15.068817 +0530,
,Objects\285a.jpg,126,0,127,,,,,,,f,2.695949000015389,0.14405770000303164,None,,,,,,127,0,126,3255.5954018000048,,,,,,,,,,,,,,,,,,,,,,,3255.579735800042,3255.5954018000048,3256.079230500036,,,,,,,,,,,,,,3256.095835999993,,,,,,,,,,,,,3256.091844800045,3256.095835999993,3256.095835999993,3256.095835999993,3259.0954479000065,3259.0954479000065,3259.0954479000065,3259.0794569000136,indoor,f,2.695949000015389,0.14405770000303164,3259.0811550000217,3259.0811729000416,None,,,,,,,,,,,,,,00064,001,2026-01-20_10h40.57.117,MST_task,2024.2.0,59.87367852004397,2026-01-20 10h41.15.068817 +0530,
,Objects\241a.jpg,127,0,128,,,,,,,f,2.6917627999791875,0.12803720001829788,None,,,,,,128,0,127,3259.0954479000065,,,,,,,,,,,,,,,,,,,,,,,3259.081240700034,3259.0954479000065,3259.5790275000036,,,,,,,,,,,,,,3259.5956614000024,,,,,,,,,,,,,3259.588725999987,3259.5956614000024,3259.5956614000024,3259.5956614000024,3262.5954248000053,3262.5954248000053,3262.5954248000053,3262.5792762000347,indoor,f,2.6917627999791875,0.12803720001829788,3262.5793177000014,3262.5793292000308,None,,,,,,,,,,,,,,00064,001,2026-01-20_10h40.57.117,MST_task,2024.2.0,59.87367852004397,2026-01-20 10h41.15.068817 +0530,
,Objects\340a.jpg,128,0,129,,,,,,,f,2.759771799959708,0.14341900002909824,None,,,,,,129,0,128,3262.5954248000053,,,,,,,,,,,,,,,,,,,,,,,3262.5794044000213,3262.5954248000053,3263.079264800006,,,,,,,,,,,,,,3263.0958273000433,,,,,,,,,,,,,3263.0884536000085,3263.0958273000433,3263.0958273000433,3263.0958273000433,3266.095460200042,3266.095460200042,3266.095460200042,3266.0795905000414,indoor,f,2.759771799959708,0.14341900002909824,3266.079636700044,3266.079649000021,None,,,,,,,,,,,,,,00064,001,2026-01-20_10h40.57.117,MST_task,2024.2.0,59.87367852004397,2026-01-20 10h41.15.068817 +0530,
,Objects\153a.jpg,129,0,130,,,,,,,f,1.5872910000034608,0.17589300003601238,None,,,,,,130,0,129,3266.095460200042,,,,,,,,,,,,,,,,,,,,,,,3266.079727100034,3266.095460200042,3266.5791406999924,,,,,,,,,,,,,,3266.595848600031,,,,,,,,,,,,,3266.589787600038,3266.595848600031,3266.595848600031,3266.595848600031,3269.595384299988,3269.595384299988,3269.595384299988,3269.5793391999905,indoor,f,1.5872910000034608,0.17589300003601238,3269.579381800024,3269.5793935999973,None,,,,,,,,,,,,,,00064,001,2026-01-20_10h40.57.117,MST_task,2024.2.0,59.87367852004397,2026-01-20 10h41.15.068817 +0530,
,Objects\215a.jpg,130,0,131,,,,,,,f,2.3275182000361383,0.2240176000050269,None,,,,,,131,0,130,3269.595384299988,,,,,,,,,,,,,,,,,,,,,,,3269.5794594000326,3269.595384299988,3270.078942399996,,,,,,,,,,,,,,3270.095623000001,,,,,,,,,,,,,3270.088538300013,3270.095623000001,3270.095623000001,3270.095623000001,3273.0953489000094,3273.0953489000094,3273.0953489000094,3273.079241200001,indoor,f,2.3275182000361383,0.2240176000050269,3273.0792896000203,3273.079301299993,None,,,,,,,,,,,,,,00064,001,2026-01-20_10h40.57.117,MST_task,2024.2.0,59.87367852004397,2026-01-20 10h41.15.068817 +0530,
,Objects\149a.jpg,131,0,132,,,,,,,f,1.0280413999571465,0.24800070002675056,None,,,,,,132,0,131,3273.0953489000094,,,,,,,,,,,,,,,,,,,,,,,3273.0793665000238,3273.0953489000094,3273.5791406999924,,,,,,,,,,,,,,3273.595626000024,,,,,,,,,,,,,3273.588682200003,3273.595626000024,3273.595626000024,3273.595626000024,3276.5955670000403,3276.5955670000403,3276.5955670000403,3276.5792274000123,indoor,f,1.0280413999571465,0.24800070002675056,3276.579270999995,3276.5792828000267,None,,,,,,,,,,,,,,00064,001,2026-01-20_10h40.57.117,MST_task,2024.2.0,59.87367852004397,2026-01-20 10h41.15.068817 +0530,
,Objects\363a.jpg,132,0,133,,,,,,,f,1.89580419997219,0.16038210003171116,None,,,,,,133,0,132,3276.5955670000403,,,,,,,,,,,,,,,,,,,,,,,3276.5793541999883,3276.5955670000403,3277.0789439000073,,,,,,,,,,,,,,3277.0956962000346,,,,,,,,,,,,,3277.088558699994,3277.0956962000346,3277.0956962000346,3277.0956962000346,3280.095405900036,3280.095405900036,3280.095405900036,3280.0793645000085,indoor,f,1.89580419997219,0.16038210003171116,3280.079409500002,3280.0794213000336,None,,,,,,,,,,,,,,00064,001,2026-01-20_10h40.57.117,MST_task,2024.2.0,59.87367852004397,2026-01-20 10h41.15.068817 +0530,
,Objects\341a.jpg,133,0,134,,,,,,,f,2.8123015000019222,0.15202749997843057,None,,,,,,134,0,133,3280.095405900036,,,,,,,,,,,,,,,,,,,,,,,3280.079485299997,3280.095405900036,3280.578993000032,,,,,,,,,,,,,,3280.595670700015,,,,,,,,,,,,,3280.593346400012,3280.595670700015,3280.595670700015,3280.595670700015,3283.5953703999985,3283.5953703999985,3283.5953703999985,3283.579417000001,shoe,f,2.8123015000019222,0.15202749997843057,3283.5818291000323,3283.581847499998,None,,,,,,,,,,,,,,00064,001,2026-01-20_10h40.57.117,MST_task,2024.2.0,59.87367852004397,2026-01-20 10h41.15.068817 +0530,
,Objects\150a.jpg,134,0,135,,,,,,,None,,,f,0.3037712999503128,None,,,,135,0,134,3283.5953703999985,,,,,,,,,,,,,,,,,,,,,,,3283.5819313999964,3283.5953703999985,3284.079285899992,,,,,,,,,,,,,,3284.0956402000156,,,,,,,,,,,,,3284.0911029000417,3284.0956402000156,3284.0956402000156,3284.0956402000156,3287.09558990004,3287.09558990004,3287.09558990004,3287.0794872000115,shoe,None,,,3287.079543800035,3287.4124723999994,f,3287.09558990004,3287.09558990004,0.3037712999503128,None,,,,,,,,,,00064,001,2026-01-20_10h40.57.117,MST_task,2024.2.0,59.87367852004397,2026-01-20 10h41.15.068817 +0530,
,Objects\170a.jpg,135,0,136,,,,,,,None,,,j,0.12632560002384707,None,,,,136,0,135,3287.428714800044,,,,,,,,,,,,,,,,,,,,,,,3287.412559300021,3287.428714800044,3287.9122693000245,,,,,,,,,,,,,,3287.928997400042,,,,,,,,,,,,,3287.92178959999,3287.928997400042,3287.928997400042,3287.928997400042,3290.928778100002,3290.928778100002,3290.928778100002,3290.912521100021,shoe,None,,,3290.9125610000337,3291.0623589000315,j,3290.928778100002,3290.928778100002,0.12632560002384707,None,,,,,,,,,,00064,001,2026-01-20_10h40.57.117,MST_task,2024.2.0,59.87367852004397,2026-01-20 10h41.15.068817 +0530,
,Objects\056a.jpg,136,0,137,,,,,,,j,2.300303000025451,0.16796759999124333,None,,,,,,137,0,136,3291.078751199995,,,,,,,,,,,,,,,,,,,,,,,3291.06244150002,3291.078751199995,3291.562183300033,,,,,,,,,,,,,,3291.579010699992,,,,,,,,,,,,,3291.5718526000273,3291.579010699992,3291.579010699992,3291.579010699992,3294.57883459999,3294.57883459999,3294.57883459999,3294.562746200012,shoe,j,2.300303000025451,0.16796759999124333,3294.56279679999,3294.562809200026,None,,,,,,,,,,,,,,00064,001,2026-01-20_10h40.57.117,MST_task,2024.2.0,59.87367852004397,2026-01-20 10h41.15.068817 +0530,
,Objects\248a.jpg,137,0,138,,,,,,,f,2.3201812999905087,0.1849824000382796,None,,,,,,138,0,137,3294.57883459999,,,,,,,,,,,,,,,,,,,,,,,3294.562874700001,3294.57883459999,3295.0622656000196,,,,,,,,,,,,,,3295.0793769999873,,,,,,,,,,,,,3295.0743183000013,3295.0793769999873,3295.0793769999873,3295.0793769999873,3298.078763800033,3298.078763800033,3298.078763800033,3298.062519600033,shoe,f,2.3201812999905087,0.1849824000382796,3298.0625629000133,3298.0625747999875,None,,,,,,,,,,,,,,00064,001,2026-01-20_10h40.57.117,MST_task,2024.2.0,59.87367852004397,2026-01-20 10h41.15.068817 +0530,
,Objects\044a.jpg,138,0,139,,,,,,,None,,,f,1.252589000039734,None,,,,139,0,138,3298.078763800033,,,,,,,,,,,,,,,,,,,,,,,3298.062639200012,3298.078763800033,3298.5622967000236,,,,,,,,,,,,,,3298.5791829000227,,,,,,,,,,,,,3298.5725705000223,3298.5791829000227,3298.5791829000227,3298.5791829000227,3301.5787058999995,3301.5787058999995,3301.5787058999995,3301.5626207999885,shoe,None,,,3301.5626644000295,3302.845860100002,f,3301.5787058999995,3301.5787058999995,1.252589000039734,None,,,,,,,,,,00064,001,2026-01-20_10h40.57.117,MST_task,2024.2.0,59.87367852004397,2026-01-20 10h41.15.068817 +0530,
,Objects\122a.jpg,139,0,140,,,,,,,f,2.172940699965693,0.19998959999065846,None,,,,,,140,0,139,3302.8621683000238,,,,,,,,,,,,,,,,,,,,,,,3302.8459469000227,3302.8621683000238,3303.3457940000226,,,,,,,,,,,,,,3303.3625953000155,,,,,,,,,,,,,3303.355807600019,3303.3625953000155,3303.3625953000155,3303.3625953000155,3306.3623209000216,3306.3623209000216,3306.3623209000216,3306.346117200039,shoe,f,2.172940699965693,0.19998959999065846,3306.346162300033,3306.3461753000156,None,,,,,,,,,,,,,,00064,001,2026-01-20_10h40.57.117,MST_task,2024.2.0,59.87367852004397,2026-01-20 10h41.15.068817 +0530,
,Objects\342a.jpg,140,0,141,,,,,,,None,,,f,0.4089821000234224,None,,,,141,0,140,3306.3623209000216,,,,,,,,,,,,,,,,,,,,,,,3306.3462396000396,3306.3623209000216,3306.845806700003,,,,,,,,,,,,,,3306.862428900029,,,,,,,,,,,,,3306.8568742999923,3306.862428900029,3306.862428900029,3306.862428900029,3309.8621883000014,3309.8621883000014,3309.8621883000014,3309.846598800039,indoor,None,,,3309.848362000019,3310.279388200026,f,3309.8621883000014,3309.8621883000014,0.4089821000234224,None,,,,,,,,,,00064,001,2026-01-20_10h40.57.117,MST_task,2024.2.0,59.87367852004397,2026-01-20 10h41.15.068817 +0530,
,Objects\042a.jpg,141,0,142,,,,,,,f,2.3634466999792494,0.17619420000119135,None,,,,,,142,0,141,3310.295584800013,,,,,,,,,,,,,,,,,,,,,,,3310.27950970002,3310.295584800013,3310.779175200034,,,,,,,,,,,,,,3310.7961312000407,,,,,,,,,,,,,3310.789178100007,3310.7961312000407,3310.7961312000407,3310.7961312000407,3313.7955602,3313.7955602,3313.7955602,3313.77933759999,indoor,f,2.3634466999792494,0.17619420000119135,3313.7793796000187,3313.7793916999944,None,,,,,,,,,,,,,,00064,001,2026-01-20_10h40.57.117,MST_task,2024.2.0,59.87367852004397,2026-01-20 10h41.15.068817 +0530,
,Objects\188a.jpg,142,0,143,,,,,,,f,2.1271967999637127,0.17598610004642978,None,,,,,,143,0,142,3313.7955602,,,,,,,,,,,,,,,,,,,,,,,3313.7794546000077,3313.7955602,3314.279058200016,,,,,,,,,,,,,,3314.2958021000377,,,,,,,,,,,,,3314.288840699999,3314.2958021000377,3314.2958021000377,3314.2958021000377,3317.295559099992,3317.295559099992,3317.295559099992,3317.279328500037,indoor,f,2.1271967999637127,0.17598610004642978,3317.279369600001,3317.2793809000286,None,,,,,,,,,,,,,,00064,001,2026-01-20_10h40.57.117,MST_task,2024.2.0,59.87367852004397,2026-01-20 10h41.15.068817 +0530,
,Objects\062a.jpg,143,0,144,,,,,,,None,,,f,0.5083244999987073,None,,,,144,0,143,3317.295559099992,,,,,,,,,,,,,,,,,,,,,,,3317.279443400039,3317.295559099992,3317.7793134000385,,,,,,,,,,,,,,3317.795731400023,,,,,,,,,,,,,3317.7890530999866,3317.795731400023,3317.795731400023,3317.795731400023,3320.795547800022,3320.795547800022,3320.795547800022,3320.779377900006,indoor,None,,,3320.7794165000087,3321.312581300037,f,3320.795547800022,3320.795547800022,0.5083244999987073,None,,,,,,,,,,00064,001,2026-01-20_10h40.57.117,MST_task,2024.2.0,59.87367852004397,2026-01-20 10h41.15.068817 +0530,
,Objects\046a.jpg,144,0,145,,,,,,,f,2.4664700999855995,0.185042200027965,None,,,,,,145,0,144,3321.328857699991,,,,,,,,,,,,,,,,,,,,,,,3321.312672900036,3321.328857699991,3321.8124414000195,,,,,,,,,,,,,,3321.829166100011,,,,,,,,,,,,,3321.82166950003,3321.829166100011,3321.829166100011,3321.829166100011,3324.8289292000118,3324.8289292000118,3324.8289292000118,3324.8127521999995,indoor,f,2.4664700999855995,0.185042200027965,3324.8128000000142,3324.812812999997,None,,,,,,,,,,,,,,00064,001,2026-01-20_10h40.57.117,MST_task,2024.2.0,59.87367852004397,2026-01-20 10h41.15.068817 +0530,
,Objects\033a.jpg,145,0,146,,,,,,,f,1.821994199999608,0.16858529997989535,None,,,,,,146,0,145,3324.8289292000118,,,,,,,,,,,,,,,,,,,,,,,3324.8128775000223,3324.8289292000118,3325.312539800012,,,,,,,,,,,,,,3325.3291017999873,,,,,,,,,,,,,3325.322371600021,3325.3291017999873,3325.3291017999873,3325.3291017999873,3328.329028500011,3328.329028500011,3328.329028500011,3328.3126809000387,indoor,f,1.821994199999608,0.16858529997989535,3328.3127244000207,3328.312735499989,None,,,,,,,,,,,,,,00064,001,2026-01-20_10h40.57.117,MST_task,2024.2.0,59.87367852004397,2026-01-20 10h41.15.068817 +0530,
,Objects\235a.jpg,146,0,147,,,,,,,f,2.0426017999998294,0.15915940003469586,None,,,,,,147,0,146,3328.329028500011,,,,,,,,,,,,,,,,,,,,,,,3328.3128003000165,3328.329028500011,3328.812641400029,,,,,,,,,,,,,,3328.8292655000114,,,,,,,,,,,,,3328.823968700017,3328.8292655000114,3328.8292655000114,3328.8292655000114,3331.8289373000152,3331.8289373000152,3331.8289373000152,3331.812671600026,indoor,f,2.0426017999998294,0.15915940003469586,3331.8127135999966,3331.812725100026,None,,,,,,,,,,,,,,00064,001,2026-01-20_10h40.57.117,MST_task,2024.2.0,59.87367852004397,2026-01-20 10h41.15.068817 +0530,
,Objects\357a.jpg,147,0,148,,,,,,,j,2.7738853999762796,0.17582250002305955,None,,,,,,148,0,147,3331.8289373000152,,,,,,,,,,,,,,,,,,,,,,,3331.812789699994,3331.8289373000152,3332.31233710004,,,,,,,,,,,,,,3332.329238400038,,,,,,,,,,,,,3332.3259945000173,3332.329238400038,3332.329238400038,3332.329238400038,3335.3288622000255,3335.3288622000255,3335.3288622000255,3335.312630200002,shoe,j,2.7738853999762796,0.17582250002305955,3335.3147806000197,3335.3147977000335,None,,,,,,,,,,,,,,00064,001,2026-01-20_10h40.57.117,MST_task,2024.2.0,59.87367852004397,2026-01-20 10h41.15.068817 +0530,
,Objects\039a.jpg,148,0,149,,,,,,,j,2.810605900012888,0.1523274999926798,None,,,,,,149,0,148,3335.3288622000255,,,,,,,,,,,,,,,,,,,,,,,3335.3148674000404,3335.3288622000255,3335.812372400018,,,,,,,,,,,,,,3335.8290428000037,,,,,,,,,,,,,3335.8227369000087,3335.8290428000037,3335.8290428000037,3335.8290428000037,3338.8288020000327,3338.8288020000327,3338.8288020000327,3338.8127972999937,shoe,j,2.810605900012888,0.1523274999926798,3338.812847700028,3338.8128612000146,None,,,,,,,,,,,,,,00064,001,2026-01-20_10h40.57.117,MST_task,2024.2.0,59.87367852004397,2026-01-20 10h41.15.068817 +0530,
,Objects\163a.jpg,149,0,150,,,,,,,f,2.151124600030016,0.15909189998637885,None,,,,,,150,0,149,3338.8288020000327,,,,,,,,,,,,,,,,,,,,,,,3338.8129781000316,3338.8288020000327,3339.312360400043,,,,,,,,,,,,,,3339.329003299994,,,,,,,,,,,,,3339.321925700002,3339.329003299994,3339.329003299994,3339.329003299994,,,,3342.313642300025,shoe,f,2.151124600030016,0.15909189998637885,3342.3136831000447,3342.3136955000227,None,,,,,,,,,,,,,,00064,001,2026-01-20_10h40.57.117,MST_task,2024.2.0,59.87367852004397,2026-01-20 10h41.15.068817 +0530,
,Objects\144a.jpg,150,0,151,,,,,,,j,2.163007600000128,0.11989779997384176,None,,,,,,151,0,150,3342.328916200029,,,,,,,,,,,,,,,,,,,,,,,3342.3137618000037,3342.328916200029,3342.8123643000145,,,,,,,,,,,,,,3342.8291021999903,,,,,,,,,,,,,3342.824668199988,3342.8291021999903,3342.8291021999903,3342.8291021999903,3345.828792300017,3345.828792300017,3345.828792300017,3345.813024300034,shoe,j,2.163007600000128,0.11989779997384176,3345.813074500009,3345.8130870999885,None,,,,,,,,,,,,,,00064,001,2026-01-20_10h40.57.117,MST_task,2024.2.0,59.87367852004397,2026-01-20 10h41.15.068817 +0530,
,Objects\211a.jpg,151,0,152,,,,,,,None,,,j,1.1827366999932565,None,,,,152,0,151,3345.828792300017,,,,,,,,,,,,,,,,,,,,,,,3345.813228300016,3345.828792300017,3346.312442100025,,,,,,,,,,,,,,3346.3293363000266,,,,,,,,,,,,,3346.3230496000033,3346.3293363000266,3346.3293363000266,3346.3293363000266,3349.328874300001,3349.328874300001,3349.328874300001,3349.312831700023,shoe,None,,,3349.3128769000177,3350.5125648000394,j,3349.328874300001,3349.328874300001,1.1827366999932565,None,,,,,,,,,,00064,001,2026-01-20_10h40.57.117,MST_task,2024.2.0,59.87367852004397,2026-01-20 10h41.15.068817 +0530,
,Objects\264a.jpg,152,0,153,,,,,,,f,2.010085900023114,0.1919660999556072,None,,,,,,153,0,152,3350.5288322000415,,,,,,,,,,,,,,,,,,,,,,,3350.512660600012,3350.5288322000415,3351.012296400033,,,,,,,,,,,,,,3351.029093499994,,,,,,,,,,,,,3351.022827000008,3351.029093499994,3351.029093499994,3351.029093499994,3354.028925599996,3354.028925599996,3354.028925599996,3354.012581499992,shoe,f,2.010085900023114,0.1919660999556072,3354.0126276999945,3354.0126406000345,None,,,,,,,,,,,,,,00064,001,2026-01-20_10h40.57.117,MST_task,2024.2.0,59.87367852004397,2026-01-20 10h41.15.068817 +0530,
,Objects\301a.jpg,153,0,154,,,,,,,j,2.4858662000042386,0.1359208999783732,None,,,,,,154,0,153,3354.028925599996,,,,,,,,,,,,,,,,,,,,,,,3354.0127060000086,3354.028925599996,3354.512441000028,,,,,,,,,,,,,,3354.5293676000438,,,,,,,,,,,,,3354.523258900037,3354.5293676000438,3354.5293676000438,3354.5293676000438,3357.528837300022,3357.528837300022,3357.528837300022,3357.512696199992,shoe,j,2.4858662000042386,0.1359208999783732,3357.512737300014,3357.512748999987,None,,,,,,,,,,,,,,00064,001,2026-01-20_10h40.57.117,MST_task,2024.2.0,59.87367852004397,2026-01-20 10h41.15.068817 +0530,
,Objects\216a.jpg,154,0,155,,,,,,,f,2.618393000040669,0.08890029997564852,None,,,,,,155,0,154,3357.528837300022,,,,,,,,,,,,,,,,,,,,,,,3357.512812700006,3357.528837300022,3358.012368900003,,,,,,,,,,,,,,3358.029137400037,,,,,,,,,,,,,3358.023325600021,3358.029137400037,3358.029137400037,3358.029137400037,3361.0288513000123,3361.0288513000123,3361.0288513000123,3361.013031600043,indoor,f,2.618393000040669,0.08890029997564852,3361.014828100044,3361.0148472000146,None,,,,,,,,,,,,,,00064,001,2026-01-20_10h40.57.117,MST_task,2024.2.0,59.87367852004397,2026-01-20 10h41.15.068817 +0530,
,Objects\018a.jpg,155,0,156,,,,,,,f,1.9180427999817766,0.12089540000306442,None,,,,,,156,0,155,3361.0288513000123,,,,,,,,,,,,,,,,,,,,,,,3361.0149213999975,3361.0288513000123,3361.512464300031,,,,,,,,,,,,,,3361.5290912000346,,,,,,,,,,,,,3361.522885100043,3361.5290912000346,3361.5290912000346,3361.5290912000346,3364.5287832000176,3364.5287832000176,3364.5287832000176,3364.512406199996,indoor,f,1.9180427999817766,0.12089540000306442,3364.512447300018,3364.512458400044,None,,,,,,,,,,,,,,00064,001,2026-01-20_10h40.57.117,MST_task,2024.2.0,59.87367852004397,2026-01-20 10h41.15.068817 +0530,
