Sl_no,image_path,thisN,thisTrialN,thisRepN,key_resp_5.keys,key_resp_5.rt,key_resp_5.duration,key_resp_7.keys,key_resp_9.keys,key_resp_9.rt,key_resp_9.duration,key_resp_8.keys,key_resp_8.rt,key_resp_8.duration,practice.thisRepN,practice.thisTrialN,practice.thisN,trials.thisRepN,trials.thisTrialN,trials.thisN,thisRow.t,notes,welcome_page.started,text.started,key_resp.started,welcome_page.stopped,key_resp.keys,key_resp.rt,key_resp.duration,instructions.started,ins.started,key_resp_2.started,instructions.stopped,key_resp_2.keys,key_resp_2.rt,key_resp_2.duration,objects_only_instruction.started,text_3.started,key_resp_3.started,objects_only_instruction.stopped,key_resp_3.keys,key_resp_3.rt,key_resp_3.duration,ISI.started,text_4.started,ISI.stopped,practice_block.started,image.started,key_resp_5.started,text_5.started,practice_block.stopped,practice.key_resp_5.keys,practice.key_resp_5.rt,practice.key_resp_5.duration,indoor_outdoor.started,indoor_outdoor.stopped,practice.key_resp_7.keys,text_4.stopped,practice_to_main.started,text_2.started,key_resp_4.started,practice_to_main.stopped,key_resp_4.keys,key_resp_4.rt,key_resp_4.duration,objects.started,image_2.started,text_9.started,key_resp_9.started,objects.stopped,category,trials.key_resp_9.keys,trials.key_resp_9.rt,trials.key_resp_9.duration,encoding_task.started,encoding_task.stopped,trials.key_resp_8.keys,text_8.started,key_resp_8.started,trials.key_resp_8.rt,trials.key_resp_8.duration,end_experiment.started,text_6.started,key_resp_6.started,end_experiment.stopped,key_resp_6.keys,key_resp_6.rt,key_resp_6.duration,list_of_stimuli,encoding_task_accuracy,participant,session,date,expName,psychopyVersion,frameRate,expStart,
,,,,,,,,,,,,,,,,,,,,,,,0.0014380000000073778,0.06310529999996106,0.06310529999996106,2253.7334385,space,2253.6684679,None,,,,,,,,,,,,,,,,,,,,,,,,,,,,,,,,,,,,,,,,,,,,,,,,,,,,,,,,,,,,,,00031,001,2026-01-16_10h19.28.668,MST_task,2024.2.0,59.93410844118395,2026-01-16 10h21.13.689909 +0530,
,,,,,,,,,,,,,,,,,,,,,,,,,,,,,,2253.7336182,2253.7846433,2253.7846433,2281.0000978,space,27.21109420000039,None,,,,,,,,,,,,,,,,,,,,,,,,,,,,,,,,,,,,,,,,,,,,,,,,,,,,,,,00031,001,2026-01-16_10h19.28.668,MST_task,2024.2.0,59.93410844118395,2026-01-16 10h21.13.689909 +0530,
,,,,,,,,,,,,,,,,,,,,,,,,,,,,,,,,,,,,,2281.0002418999998,2281.0175487,2281.0175487,2284.9993697,space,3.9711591999998745,None,,,,,,,,,,,,,,,,,,,,,,,,,,,,,,,,,,,,,,,,,,,,,,,,00031,001,2026-01-16_10h19.28.668,MST_task,2024.2.0,59.93410844118395,2026-01-16 10h21.13.689909 +0530,
3,practice_images/037a.jpg,0,0,1,f,1.9310531000000992,0.14344429999982822,None,,,,,,,1,0,0,,,,2285.1213919,,,,,,,,,,,,,,,,,,,,,,,2285.1175745,2285.1213919,2285.5150565999998,2285.6593453,2285.7210498,2285.7210498,2285.7210498,2288.5155621999997,f,1.9310531000000992,0.14344429999982822,2288.5203218,2288.5203769,None,,,,,,,,,,,,,,,,,,,,,,,,,,,,,,,,,,00031,001,2026-01-16_10h19.28.668,MST_task,2024.2.0,59.93410844118395,2026-01-16 10h21.13.689909 +0530,
8,practice_images/178a.jpg,1,1,1,j,1.8466475999998693,0.19331080000029033,None,,,,,,,1,1,1,,,,2288.5315105,,,,,,,,,,,,,,,,,,,,,,,2288.5205928,2288.5315105,2289.016005,2289.0573987,2289.0611244,2289.0611244,2289.0611244,2292.0319715,j,1.8466475999998693,0.19331080000029033,2292.0320817,2292.0321288,None,2289.0611244,,,,,,,,,,,,,,,,,,,,,,,,,,,,,,,,,00031,001,2026-01-16_10h19.28.668,MST_task,2024.2.0,59.93410844118395,2026-01-16 10h21.13.689909 +0530,
2,practice_images/031a.jpg,2,2,1,f,0.9697194000000309,0.15992430000005697,None,,,,,,,1,2,2,,,,2292.0482036,,,,,,,,,,,,,,,,,,,,,,,2292.0323571,2292.0482036,2292.5326039,2292.5838624,2292.5861754,2292.5861754,2292.5861754,2295.548416,f,0.9697194000000309,0.15992430000005697,2295.5485407,2295.5485991,None,2292.5861754,,,,,,,,,,,,,,,,,,,,,,,,,,,,,,,,,00031,001,2026-01-16_10h19.28.668,MST_task,2024.2.0,59.93410844118395,2026-01-16 10h21.13.689909 +0530,
5,practice_images/139a.jpg,3,3,1,j,1.4912736999999652,0.19323540000004868,None,,,,,,,1,3,3,,,,2295.5646453,,,,,,,,,,,,,,,,,,,,,,,2295.5488724,2295.5646453,2296.0491087,2296.1092641,2296.1122418,2296.1122418,2296.1122418,2299.0652345,j,1.4912736999999652,0.19323540000004868,2299.0653527,2299.0654068,None,2296.1122418,,,,,,,,,,,,,,,,,,,,,,,,,,,,,,,,,00031,001,2026-01-16_10h19.28.668,MST_task,2024.2.0,59.93410844118395,2026-01-16 10h21.13.689909 +0530,
1,practice_images/013a.jpg,4,4,1,j,1.2342733999998927,0.17546429999993052,None,,,,,,,1,4,4,,,,2299.0815389,,,,,,,,,,,,,,,,,,,,,,,2299.0656201,2299.0815389,2299.5658595,2299.63062,2299.6338878,2299.6338878,2299.6338878,2302.5820509,j,1.2342733999998927,0.17546429999993052,2302.5822358,2302.5823052,None,2299.6338878,,,,,,,,,,,,,,,,,,,,,,,,,,,,,,,,,00031,001,2026-01-16_10h19.28.668,MST_task,2024.2.0,59.93410844118395,2026-01-16 10h21.13.689909 +0530,
4,practice_images/002b.jpg,5,5,1,j,2.1278072999998585,0.14343659999985903,None,,,,,,,1,5,5,,,,2302.5984878,,,,,,,,,,,,,,,,,,,,,,,2302.5826343999997,2302.5984878,2303.0827974999997,2303.1307552,2303.1327603,2303.1327603,2303.1327603,2306.0985926,j,2.1278072999998585,0.14343659999985903,2306.1010778,2306.101112,None,2303.1327603,,,,,,,,,,,,,,,,,,,,,,,,,,,,,,,,,00031,001,2026-01-16_10h19.28.668,MST_task,2024.2.0,59.93410844118395,2026-01-16 10h21.13.689909 +0530,
9,practice_images/180a.jpg,6,6,1,j,0.8981637000001683,0.15216609999970387,None,,,,,,,1,6,6,,,,2306.1146669,,,,,,,,,,,,,,,,,,,,,,,2306.1012259999998,2306.1146669,2306.5994034,2306.6631248,2306.6656568,2306.6656568,2306.6656568,2309.6154429,j,0.8981637000001683,0.15216609999970387,2309.6155470999997,2309.6155903999997,None,2306.6656568,,,,,,,,,,,,,,,,,,,,,,,,,,,,,,,,,00031,001,2026-01-16_10h19.28.668,MST_task,2024.2.0,59.93410844118395,2026-01-16 10h21.13.689909 +0530,
6,practice_images/158a.jpg,7,7,1,j,1.2541900000001078,0.18377830000008544,None,,,,,,,1,7,7,,,,2309.6315245,,,,,,,,,,,,,,,,,,,,,,,2309.6157869,2309.6315245,2310.1159926,2310.1546084,2310.1580295999997,2310.1580295999997,2310.1580295999997,2313.1320276,j,1.2541900000001078,0.18377830000008544,2313.1321749,2313.1322237,None,2310.1580295999997,,,,,,,,,,,,,,,,,,,,,,,,,,,,,,,,,00031,001,2026-01-16_10h19.28.668,MST_task,2024.2.0,59.93410844118395,2026-01-16 10h21.13.689909 +0530,
7,practice_images/166a.jpg,8,8,1,f,2.744104899999911,0.16894019999972443,None,,,,,,,1,8,8,,,,2313.1482306,,,,,,,,,,,,,,,,,,,,,,,2313.1324507,2313.1482306,2313.6327763,2313.6969229,2313.6995083,2313.6995083,2313.6995083,2316.6485173,f,2.744104899999911,0.16894019999972443,2316.6486463,2316.6486935,None,2313.6995083,,,,,,,,,,,,,,,,,,,,,,,,,,,,,,,,,00031,001,2026-01-16_10h19.28.668,MST_task,2024.2.0,59.93410844118395,2026-01-16 10h21.13.689909 +0530,
10,practice_images/182a.jpg,9,9,1,f,0.8911309999998593,0.14387840000017604,None,,,,,,,1,9,9,,,,2316.6648189,,,,,,,,,,,,,,,,,,,,,,,2316.6489291,2316.6648189,2317.1494689,2317.1900456,2317.1928884,2317.1928884,2317.1928884,2320.1653445,f,0.8911309999998593,0.14387840000017604,2320.1655023,2320.1655744,None,2317.1928884,,,,,,,,,,,,,,,,,,,,,,,,,,,,,,,,,00031,001,2026-01-16_10h19.28.668,MST_task,2024.2.0,59.93410844118395,2026-01-16 10h21.13.689909 +0530,
,,,,,,,,,,,,,,,,,,,,,,,,,,,,,,,,,,,,,,,,,,,,,,,,,,,,,,,,,,,2320.1657935,2320.1816889,2320.1816889,2342.7169166,space,22.518547899999703,None,,,,,,,,,,,,,,,,,,,,,,,,,,00031,001,2026-01-16_10h19.28.668,MST_task,2024.2.0,59.93410844118395,2026-01-16 10h21.13.689909 +0530,
,Objects\291a.jpg,0,0,1,,,,,f,1.7192269999995915,0.16774160000022675,None,,,,,,1,0,0,2342.731437,,,,,,,,,,,,,,,,,,,,,,,2342.7184323,2342.731437,2343.2159143999997,,,,,,,,,,,,2343.3244111999998,,,,,,,,2343.3199669,2343.3244111999998,2343.3244111999998,2343.3244111999998,2346.2320175,shoe,f,1.7192269999995915,0.16774160000022675,2346.2380352,2346.2380773,None,,,,,,,,,,,,,,00031,001,2026-01-16_10h19.28.668,MST_task,2024.2.0,59.93410844118395,2026-01-16 10h21.13.689909 +0530,
,Objects\046a.jpg,1,0,2,,,,,f,1.2697078000001056,0.17692989999977726,None,,,,,,2,0,1,2346.2480814,,,,,,,,,,,,,,,,,,,,,,,2346.2382374999997,2346.2480814,2346.732685,,,,,,,,,,,,2346.7899788,,,,,,,,2346.7872231,2346.7899788,2346.7899788,2346.7899788,2349.7486889,shoe,f,1.2697078000001056,0.17692989999977726,2349.7488118,2349.7488556,None,,,,,,,,,,,,,,00031,001,2026-01-16_10h19.28.668,MST_task,2024.2.0,59.93410844118395,2026-01-16 10h21.13.689909 +0530,
,Objects\222a.jpg,2,0,3,,,,,j,0.996947099999943,0.26492959999995946,None,,,,,,3,0,2,2349.7647972,,,,,,,,,,,,,,,,,,,,,,,2349.7490734,2349.7647972,2350.2494206,,,,,,,,,,,,2350.2946539,,,,,,,,2350.2919045,2350.2946539,2350.2946539,2350.2946539,2353.265272,shoe,j,0.996947099999943,0.26492959999995946,2353.2654717,2353.2655385,None,,,,,,,,,,,,,,00031,001,2026-01-16_10h19.28.668,MST_task,2024.2.0,59.93410844118395,2026-01-16 10h21.13.689909 +0530,
,Objects\125a.jpg,3,0,4,,,,,j,1.3351713000001837,0.19115319999991698,None,,,,,,4,0,3,2353.2816288999998,,,,,,,,,,,,,,,,,,,,,,,2353.2658576,2353.2816288999998,2353.766014,,,,,,,,,,,,2353.8051196,,,,,,,,2353.8021625,2353.8051196,2353.8051196,2353.8051196,2356.7820232,shoe,j,1.3351713000001837,0.19115319999991698,2356.7821681,2356.7822212,None,,,,,,,,,,,,,,00031,001,2026-01-16_10h19.28.668,MST_task,2024.2.0,59.93410844118395,2026-01-16 10h21.13.689909 +0530,
,Objects\241a.jpg,4,0,5,,,,,f,1.4268505000000005,0.1762951000000612,None,,,,,,5,0,4,2356.7982865999998,,,,,,,,,,,,,,,,,,,,,,,2356.7825832,2356.7982865999998,2357.2826173,,,,,,,,,,,,2357.3293194,,,,,,,,2357.3258054,2357.3293194,2357.3293194,2357.3293194,2360.298572,shoe,f,1.4268505000000005,0.1762951000000612,2360.2987473,2360.2988163,None,,,,,,,,,,,,,,00031,001,2026-01-16_10h19.28.668,MST_task,2024.2.0,59.93410844118395,2026-01-16 10h21.13.689909 +0530,
,Objects\292a.jpg,5,0,6,,,,,f,2.0135725000000093,0.19112949999998818,None,,,,,,6,0,5,2360.3148765,,,,,,,,,,,,,,,,,,,,,,,2360.2991238,2360.3148765,2360.7993301,,,,,,,,,,,,2360.9432041,,,,,,,,2360.9392966,2360.9432041,2360.9432041,2360.9432041,2363.8152741,shoe,f,2.0135725000000093,0.19112949999998818,2363.8154298,2363.8154841,None,,,,,,,,,,,,,,00031,001,2026-01-16_10h19.28.668,MST_task,2024.2.0,59.93410844118395,2026-01-16 10h21.13.689909 +0530,
,Objects\192a.jpg,6,0,7,,,,,f,0.633597799999734,0.14285960000006526,None,,,,,,7,0,6,2363.8316129,,,,,,,,,,,,,,,,,,,,,,,2363.8157381,2363.8316129,2364.3157424,,,,,,,,,,,,2364.3708673,,,,,,,,2364.3677165999998,2364.3708673,2364.3708673,2364.3708673,2367.3318017,shoe,f,0.633597799999734,0.14285960000006526,2367.3319538,2367.3319932,None,,,,,,,,,,,,,,00031,001,2026-01-16_10h19.28.668,MST_task,2024.2.0,59.93410844118395,2026-01-16 10h21.13.689909 +0530,
,Objects\031a.jpg,7,0,8,,,,,f,2.3078190999999606,0.15245679999998174,None,,,,,,8,0,7,2367.3483407999997,,,,,,,,,,,,,,,,,,,,,,,2367.3321762,2367.3483407999997,2367.8326013,,,,,,,,,,,,2367.9684279,,,,,,,,2367.9655109,2367.9684279,2367.9684279,2367.9684279,2370.8487429,indoor,f,2.3078190999999606,0.15245679999998174,2370.8532473,2370.8533033999997,None,,,,,,,,,,,,,,00031,001,2026-01-16_10h19.28.668,MST_task,2024.2.0,59.93410844118395,2026-01-16 10h21.13.689909 +0530,
,Objects\001a.jpg,8,0,9,,,,,f,2.5147578999999496,0.18464810000023135,None,,,,,,9,0,8,2370.8648891,,,,,,,,,,,,,,,,,,,,,,,2370.8535342,2370.8648891,2371.3492957,,,,,,,,,,,,2371.3932354,,,,,,,,2371.3904072,2371.3932354,2371.3932354,2371.3932354,2374.3653238,indoor,f,2.5147578999999496,0.18464810000023135,2374.3654953,2374.3655583,None,,,,,,,,,,,,,,00031,001,2026-01-16_10h19.28.668,MST_task,2024.2.0,59.93410844118395,2026-01-16 10h21.13.689909 +0530,
,Objects\088a.jpg,9,0,10,,,,,f,1.0067242000000078,0.15244590000020253,None,,,,,,10,0,9,2374.3813219999997,,,,,,,,,,,,,,,,,,,,,,,2374.3658211,2374.3813219999997,2374.8661246,,,,,,,,,,,,2374.9334789,,,,,,,,2374.9309491999998,2374.9334789,2374.9334789,2374.9334789,2377.8820948,indoor,f,1.0067242000000078,0.15244590000020253,2377.8822727,2377.8823168999998,None,,,,,,,,,,,,,,00031,001,2026-01-16_10h19.28.668,MST_task,2024.2.0,59.93410844118395,2026-01-16 10h21.13.689909 +0530,
,Objects\009a.jpg,10,0,11,,,,,f,0.8014615000001868,0.14349700000002485,None,,,,,,11,0,10,2377.8981989,,,,,,,,,,,,,,,,,,,,,,,2377.8825226999998,2377.8981989,2378.3828128,,,,,,,,,,,,2378.4343801,,,,,,,,2378.4315351,2378.4343801,2378.4343801,2378.4343801,2381.3986041,indoor,f,0.8014615000001868,0.14349700000002485,2381.3987928,2381.398855,None,,,,,,,,,,,,,,00031,001,2026-01-16_10h19.28.668,MST_task,2024.2.0,59.93410844118395,2026-01-16 10h21.13.689909 +0530,
,Objects\286a.jpg,11,0,12,,,,,f,1.3153926999998475,0.16792100000020582,None,,,,,,12,0,11,2381.4148346,,,,,,,,,,,,,,,,,,,,,,,2381.399116,2381.4148346,2381.8992748,,,,,,,,,,,,2381.9527961999997,,,,,,,,2381.9502284,2381.9527961999997,2381.9527961999997,2381.9527961999997,2384.9153112999998,indoor,f,1.3153926999998475,0.16792100000020582,2384.9154938,2384.9155629,None,,,,,,,,,,,,,,00031,001,2026-01-16_10h19.28.668,MST_task,2024.2.0,59.93410844118395,2026-01-16 10h21.13.689909 +0530,
,Objects\248a.jpg,12,0,13,,,,,f,1.7355351999999584,0.1517311000002337,None,,,,,,13,0,12,2384.9315704,,,,,,,,,,,,,,,,,,,,,,,2384.9157946,2384.9315704,2385.4158259,,,,,,,,,,,,2385.4850678,,,,,,,,2385.4821852,2385.4850678,2385.4850678,2385.4850678,2388.4317776,indoor,f,1.7355351999999584,0.1517311000002337,2388.4319436,2388.4319824,None,,,,,,,,,,,,,,00031,001,2026-01-16_10h19.28.668,MST_task,2024.2.0,59.93410844118395,2026-01-16 10h21.13.689909 +0530,
,Objects\177a.jpg,13,0,14,,,,,j,1.4852864000004047,0.1758826999998746,None,,,,,,14,0,13,2388.4482164,,,,,,,,,,,,,,,,,,,,,,,2388.4321657,2388.4482164,2388.932615,,,,,,,,,,,,2389.022632,,,,,,,,2389.0197584,2389.022632,2389.022632,2389.022632,2391.948554,indoor,j,1.4852864000004047,0.1758826999998746,2391.9487497,2391.9488133,None,,,,,,,,,,,,,,00031,001,2026-01-16_10h19.28.668,MST_task,2024.2.0,59.93410844118395,2026-01-16 10h21.13.689909 +0530,
,Objects\093a.jpg,14,0,15,,,,,j,1.4955298999998377,0.1989714000001186,None,,,,,,15,0,14,2391.9649495,,,,,,,,,,,,,,,,,,,,,,,2391.9490197,2391.9649495,2392.44935,,,,,,,,,,,,2392.5170067999998,,,,,,,,2392.514207,2392.5170067999998,2392.5170067999998,2392.5170067999998,2395.4652909,shoe,j,1.4955298999998377,0.1989714000001186,2395.4678601,2395.4678857999997,None,,,,,,,,,,,,,,00031,001,2026-01-16_10h19.28.668,MST_task,2024.2.0,59.93410844118395,2026-01-16 10h21.13.689909 +0530,
,Objects\217a.jpg,15,0,16,,,,,j,1.5069906000003357,0.17481249999991633,None,,,,,,16,0,15,2395.4815213,,,,,,,,,,,,,,,,,,,,,,,2395.4679892,2395.4815213,2395.965868,,,,,,,,,,,,2396.0094082,,,,,,,,2396.0058811,2396.0094082,2396.0094082,2396.0094082,2398.9820898,shoe,j,1.5069906000003357,0.17481249999991633,2398.9822923,2398.9823576,None,,,,,,,,,,,,,,00031,001,2026-01-16_10h19.28.668,MST_task,2024.2.0,59.93410844118395,2026-01-16 10h21.13.689909 +0530,
,Objects\191a.jpg,16,0,17,,,,,f,2.425528100000065,0.16743410000026415,None,,,,,,17,0,16,2398.9977572,,,,,,,,,,,,,,,,,,,,,,,2398.9825943,2398.9977572,2399.4826662,,,,,,,,,,,,2399.515018,,,,,,,,2399.5121168,2399.515018,2399.515018,2399.515018,2402.4985318,shoe,f,2.425528100000065,0.16743410000026415,2402.4987459999998,2402.4988156,None,,,,,,,,,,,,,,00031,001,2026-01-16_10h19.28.668,MST_task,2024.2.0,59.93410844118395,2026-01-16 10h21.13.689909 +0530,
,Objects\228a.jpg,17,0,18,,,,,f,2.40319320000026,0.16836919999968813,None,,,,,,18,0,17,2402.5147765,,,,,,,,,,,,,,,,,,,,,,,2402.4991156,2402.5147765,2402.9996183,,,,,,,,,,,,2403.0410426,,,,,,,,2403.0385739,2403.0410426,2403.0410426,2403.0410426,2406.0151321,shoe,f,2.40319320000026,0.16836919999968813,2406.0152872,2406.0153437999998,None,,,,,,,,,,,,,,00031,001,2026-01-16_10h19.28.668,MST_task,2024.2.0,59.93410844118395,2026-01-16 10h21.13.689909 +0530,
,Objects\220a.jpg,18,0,19,,,,,f,1.7236361999998735,0.16869339999993826,None,,,,,,19,0,18,2406.0315301,,,,,,,,,,,,,,,,,,,,,,,2406.0156180999998,2406.0315301,2406.5159163,,,,,,,,,,,,2406.5677775999998,,,,,,,,2406.5645792,2406.5677775999998,2406.5677775999998,2406.5677775999998,2409.5318374,shoe,f,1.7236361999998735,0.16869339999993826,2409.5319982,2409.5320567999997,None,,,,,,,,,,,,,,00031,001,2026-01-16_10h19.28.668,MST_task,2024.2.0,59.93410844118395,2026-01-16 10h21.13.689909 +0530,
,Objects\071a.jpg,19,0,20,,,,,j,1.9974888000001556,0.24648999999999432,None,,,,,,20,0,19,2409.5481035,,,,,,,,,,,,,,,,,,,,,,,2409.5323251,2409.5481035,2410.0324262,,,,,,,,,,,,2410.0871798,,,,,,,,2410.0836292999998,2410.0871798,2410.0871798,2410.0871798,2413.0483836,shoe,j,1.9974888000001556,0.24648999999999432,2413.0485316,2413.048586,None,,,,,,,,,,,,,,00031,001,2026-01-16_10h19.28.668,MST_task,2024.2.0,59.93410844118395,2026-01-16 10h21.13.689909 +0530,
,Objects\366a.jpg,20,0,21,,,,,j,1.3566364000002977,0.23240679999980784,None,,,,,,21,0,20,2413.064883,,,,,,,,,,,,,,,,,,,,,,,2413.0489506999998,2413.064883,2413.5492415,,,,,,,,,,,,2413.6155642999997,,,,,,,,2413.6111356,2413.6155642999997,2413.6155642999997,2413.6155642999997,2416.5652768,shoe,j,1.3566364000002977,0.23240679999980784,2416.5654543,2416.5655235,None,,,,,,,,,,,,,,00031,001,2026-01-16_10h19.28.668,MST_task,2024.2.0,59.93410844118395,2026-01-16 10h21.13.689909 +0530,
,Objects\121a.jpg,21,0,22,,,,,None,,,f,0.8104232999999113,None,,,,22,0,21,2416.5815318,,,,,,,,,,,,,,,,,,,,,,,2416.565846,2416.5815318,2417.0658737,,,,,,,,,,,,2417.1317356,,,,,,,,2417.1291493999997,2417.1317356,2417.1317356,2417.1317356,2420.0820119,indoor,None,,,2420.0862288,2420.9165041,f,2420.0981986,2420.0981986,0.8104232999999113,None,,,,,,,,,,00031,001,2026-01-16_10h19.28.668,MST_task,2024.2.0,59.93410844118395,2026-01-16 10h21.13.689909 +0530,
,Objects\350a.jpg,22,0,23,,,,,j,1.016707000000224,0.1675740999999107,None,,,,,,23,0,22,2420.9316253,,,,,,,,,,,,,,,,,,,,,,,2420.9167956,2420.9316253,2421.4156417,,,,,,,,,,,,2421.466997,,,,,,,,2421.4633736,2421.466997,2421.466997,2421.466997,2424.4319026,indoor,j,1.016707000000224,0.1675740999999107,2424.4320374,2424.4320795999997,None,,,,,,,,,,,,,,00031,001,2026-01-16_10h19.28.668,MST_task,2024.2.0,59.93410844118395,2026-01-16 10h21.13.689909 +0530,
,Objects\326a.jpg,23,0,24,,,,,f,1.7111743999998907,0.1517783999997846,None,,,,,,24,0,23,2424.4483520999997,,,,,,,,,,,,,,,,,,,,,,,2424.4322736999998,2424.4483520999997,2424.9324508,,,,,,,,,,,,2424.9972686,,,,,,,,2424.993726,2424.9972686,2424.9972686,2424.9972686,2427.9487384999998,indoor,f,1.7111743999998907,0.1517783999997846,2427.9488256,2427.9488551,None,,,,,,,,,,,,,,00031,001,2026-01-16_10h19.28.668,MST_task,2024.2.0,59.93410844118395,2026-01-16 10h21.13.689909 +0530,
,Objects\204a.jpg,24,0,25,,,,,j,1.1038056000002143,0.19204149999995934,None,,,,,,25,0,24,2427.9647933,,,,,,,,,,,,,,,,,,,,,,,2427.9489918,2427.9647933,2428.4492354,,,,,,,,,,,,2428.5156656,,,,,,,,2428.5128526,2428.5156656,2428.5156656,2428.5156656,2431.4652697,indoor,j,1.1038056000002143,0.19204149999995934,2431.4654522,2431.4655202999998,None,,,,,,,,,,,,,,00031,001,2026-01-16_10h19.28.668,MST_task,2024.2.0,59.93410844118395,2026-01-16 10h21.13.689909 +0530,
,Objects\070a.jpg,25,0,26,,,,,None,,,j,3.074543899999753,None,,,,26,0,25,2431.4815541,,,,,,,,,,,,,,,,,,,,,,,2431.4657656,2431.4815541,2431.9658429,,,,,,,,,,,,2437.3213133,,,,,,,,2437.3184853,,,,2437.3185215,indoor,None,,,2437.3185954,2440.4005392,j,2437.3213133,2437.3213133,3.074543899999753,None,,,,,,,,,,00031,001,2026-01-16_10h19.28.668,MST_task,2024.2.0,59.93410844118395,2026-01-16 10h21.13.689909 +0530,
,Objects\338a.jpg,26,0,27,,,,,f,2.3779002999999648,0.17615040000009685,None,,,,,,27,0,26,2440.4148367,,,,,,,,,,,,,,,,,,,,,,,2440.4009471,2440.4148367,2440.8992762,,,,,,,,,,,,2440.9372888,,,,,,,,2440.9337947999998,2440.9372888,2440.9372888,2440.9372888,2443.9153559,indoor,f,2.3779002999999648,0.17615040000009685,2443.915474,2443.915515,None,,,,,,,,,,,,,,00031,001,2026-01-16_10h19.28.668,MST_task,2024.2.0,59.93410844118395,2026-01-16 10h21.13.689909 +0530,
,Objects\056a.jpg,27,0,28,,,,,f,2.6233077000001686,0.20897039999999834,None,,,,,,28,0,27,2443.9316707,,,,,,,,,,,,,,,,,,,,,,,2443.915709,2443.9316707,2444.4157417,,,,,,,,,,,,2444.4441745,,,,,,,,2444.4411625,2444.4441745,2444.4441745,2444.4441745,2447.4319258,indoor,f,2.6233077000001686,0.20897039999999834,2447.4321051,2447.4321732,None,,,,,,,,,,,,,,00031,001,2026-01-16_10h19.28.668,MST_task,2024.2.0,59.93410844118395,2026-01-16 10h21.13.689909 +0530,
,Objects\187a.jpg,28,0,29,,,,,f,1.5845844000000398,0.1922972000002119,None,,,,,,29,0,28,2447.4481934,,,,,,,,,,,,,,,,,,,,,,,2447.4324856,2447.4481934,2447.9322031,,,,,,,,,,,,2448.0747741,,,,,,,,2448.0719105,2448.0747741,2448.0747741,2448.0747741,2450.9485808,shoe,f,1.5845844000000398,0.1922972000002119,2450.9527888,2450.952821,None,,,,,,,,,,,,,,00031,001,2026-01-16_10h19.28.668,MST_task,2024.2.0,59.93410844118395,2026-01-16 10h21.13.689909 +0530,
,Objects\066a.jpg,29,0,30,,,,,f,1.9715034999999261,0.2155206000002181,None,,,,,,30,0,29,2450.9649847,,,,,,,,,,,,,,,,,,,,,,,2450.9529979,2450.9649847,2451.4493347,,,,,,,,,,,,2451.5603726,,,,,,,,2451.5577282,2451.5603726,2451.5603726,2451.5603726,2454.4652618,shoe,f,1.9715034999999261,0.2155206000002181,2454.4654458,2454.4655128,None,,,,,,,,,,,,,,00031,001,2026-01-16_10h19.28.668,MST_task,2024.2.0,59.93410844118395,2026-01-16 10h21.13.689909 +0530,
,Objects\231a.jpg,30,0,31,,,,,j,0.89389970000002,0.24745329999996102,None,,,,,,31,0,30,2454.4813645,,,,,,,,,,,,,,,,,,,,,,,2454.4657676,2454.4813645,2454.9659034,,,,,,,,,,,,2455.0140644,,,,,,,,2455.0107081,2455.0140644,2455.0140644,2455.0140644,2457.9818400999998,shoe,j,0.89389970000002,0.24745329999996102,2457.981965,2457.9820093,None,,,,,,,,,,,,,,00031,001,2026-01-16_10h19.28.668,MST_task,2024.2.0,59.93410844118395,2026-01-16 10h21.13.689909 +0530,
,Objects\360a.jpg,31,0,32,,,,,f,0.9491203000002315,0.21533419999968828,None,,,,,,32,0,31,2457.9979115,,,,,,,,,,,,,,,,,,,,,,,2457.9822137,2457.9979115,2458.4826276,,,,,,,,,,,,2458.5431860999997,,,,,,,,2458.5403986,2458.5431860999997,2458.5431860999997,2458.5431860999997,2461.4986642,shoe,f,0.9491203000002315,0.21533419999968828,2461.4988358,2461.4988826,None,,,,,,,,,,,,,,00031,001,2026-01-16_10h19.28.668,MST_task,2024.2.0,59.93410844118395,2026-01-16 10h21.13.689909 +0530,
,Objects\341a.jpg,32,0,33,,,,,f,0.7994826000003741,0.2163021999999728,None,,,,,,33,0,32,2461.5146637,,,,,,,,,,,,,,,,,,,,,,,2461.4990992,2461.5146637,2461.9991195,,,,,,,,,,,,2462.0524875,,,,,,,,2462.0486123,2462.0524875,2462.0524875,2462.0524875,2465.0151468,shoe,f,0.7994826000003741,0.2163021999999728,2465.0153378,2465.0154059,None,,,,,,,,,,,,,,00031,001,2026-01-16_10h19.28.668,MST_task,2024.2.0,59.93410844118395,2026-01-16 10h21.13.689909 +0530,
,Objects\018a.jpg,33,0,34,,,,,j,1.0710573999999724,0.2644350000000486,None,,,,,,34,0,33,2465.0314223,,,,,,,,,,,,,,,,,,,,,,,2465.0157163,2465.0314223,2465.5153618,,,,,,,,,,,,2465.5722838,,,,,,,,2465.5683335,2465.5722838,2465.5722838,2465.5722838,2468.5320462,shoe,j,1.0710573999999724,0.2644350000000486,2468.5321607,2468.5322023,None,,,,,,,,,,,,,,00031,001,2026-01-16_10h19.28.668,MST_task,2024.2.0,59.93410844118395,2026-01-16 10h21.13.689909 +0530,
,Objects\206a.jpg,34,0,35,,,,,j,0.8081137999997736,0.26423209999984465,None,,,,,,35,0,34,2468.5482125,,,,,,,,,,,,,,,,,,,,,,,2468.5323995999997,2468.5482125,2469.0327193,,,,,,,,,,,,2469.1640306,,,,,,,,2469.1610863,2469.1640306,2469.1640306,2469.1640306,2472.048541,shoe,j,0.8081137999997736,0.26423209999984465,2472.0487177,2472.0487866,None,,,,,,,,,,,,,,00031,001,2026-01-16_10h19.28.668,MST_task,2024.2.0,59.93410844118395,2026-01-16 10h21.13.689909 +0530,
,Objects\153a.jpg,35,0,36,,,,,f,1.3528144999995675,0.2388832999999977,None,,,,,,36,0,35,2472.0649248,,,,,,,,,,,,,,,,,,,,,,,2472.0490259,2472.0649248,2472.5491244,,,,,,,,,,,,2472.5959097,,,,,,,,2472.5931679,2472.5959097,2472.5959097,2472.5959097,2475.5651841999997,indoor,f,1.3528144999995675,0.2388832999999977,2475.5703679,2475.5704399,None,,,,,,,,,,,,,,00031,001,2026-01-16_10h19.28.668,MST_task,2024.2.0,59.93410844118395,2026-01-16 10h21.13.689909 +0530,
,Objects\238a.jpg,36,0,37,,,,,j,1.240092999999888,0.27949390000003405,None,,,,,,37,0,36,2475.5816907,,,,,,,,,,,,,,,,,,,,,,,2475.5707663,2475.5816907,2476.0659897,,,,,,,,,,,,2476.1236745,,,,,,,,2476.1203548,2476.1236745,2476.1236745,2476.1236745,2479.0818936,indoor,j,1.240092999999888,0.27949390000003405,2479.0820296,2479.0820765,None,,,,,,,,,,,,,,00031,001,2026-01-16_10h19.28.668,MST_task,2024.2.0,59.93410844118395,2026-01-16 10h21.13.689909 +0530,
,Objects\036a.jpg,37,0,38,,,,,f,1.060233799999878,0.21683470000016314,None,,,,,,38,0,37,2479.0982279,,,,,,,,,,,,,,,,,,,,,,,2479.0822955,2479.0982279,2479.5826983,,,,,,,,,,,,2479.6391675,,,,,,,,2479.6362992,2479.6391675,2479.6391675,2479.6391675,2482.5987244,indoor,f,1.060233799999878,0.21683470000016314,2482.5989196,2482.5989879,None,,,,,,,,,,,,,,00031,001,2026-01-16_10h19.28.668,MST_task,2024.2.0,59.93410844118395,2026-01-16 10h21.13.689909 +0530,
,Objects\116a.jpg,38,0,39,,,,,f,1.900216300000011,0.2558410999999978,None,,,,,,39,0,38,2482.6147857,,,,,,,,,,,,,,,,,,,,,,,2482.5993205,2482.6147857,2483.0994522,,,,,,,,,,,,2483.1671047,,,,,,,,2483.1642752,2483.1671047,2483.1671047,2483.1671047,2486.1148708,indoor,f,1.900216300000011,0.2558410999999978,2486.1149441,2486.1149621,None,,,,,,,,,,,,,,00031,001,2026-01-16_10h19.28.668,MST_task,2024.2.0,59.93410844118395,2026-01-16 10h21.13.689909 +0530,
,Objects\112a.jpg,39,0,40,,,,,f,0.7618467000002056,0.24036990000013247,None,,,,,,40,0,39,2486.1313734,,,,,,,,,,,,,,,,,,,,,,,2486.1150755999997,2486.1313734,2486.6158972,,,,,,,,,,,,2486.6663564,,,,,,,,2486.662008,2486.6663564,2486.6663564,2486.6663564,2489.6152962,indoor,f,0.7618467000002056,0.24036990000013247,2489.6154769,2489.6155433,None,,,,,,,,,,,,,,00031,001,2026-01-16_10h19.28.668,MST_task,2024.2.0,59.93410844118395,2026-01-16 10h21.13.689909 +0530,
,Objects\249a.jpg,40,0,41,,,,,j,1.404733700000179,0.24689790000002176,None,,,,,,41,0,40,2489.6314099,,,,,,,,,,,,,,,,,,,,,,,2489.6158597,2489.6314099,2490.1159398,,,,,,,,,,,,2490.175607,,,,,,,,2490.1725191,2490.175607,2490.175607,2490.175607,2493.1323204,indoor,j,1.404733700000179,0.24689790000002176,2493.1324426,2493.1325039,None,,,,,,,,,,,,,,00031,001,2026-01-16_10h19.28.668,MST_task,2024.2.0,59.93410844118395,2026-01-16 10h21.13.689909 +0530,
,Objects\045a.jpg,41,0,42,,,,,f,1.1110508999995545,0.19989340000029188,None,,,,,,42,0,41,2493.1480672,,,,,,,,,,,,,,,,,,,,,,,2493.1327109999997,2493.1480672,2493.6324658,,,,,,,,,,,,2493.6849956,,,,,,,,2493.6818894,2493.6849956,2493.6849956,2493.6849956,2496.6486043,indoor,f,1.1110508999995545,0.19989340000029188,2496.6487813999997,2496.6488163999998,None,,,,,,,,,,,,,,00031,001,2026-01-16_10h19.28.668,MST_task,2024.2.0,59.93410844118395,2026-01-16 10h21.13.689909 +0530,
,Objects\058a.jpg,42,0,43,,,,,f,1.2478844000002027,0.24765329999991081,None,,,,,,43,0,42,2496.6647930999998,,,,,,,,,,,,,,,,,,,,,,,2496.6489828,2496.6647930999998,2497.1492475,,,,,,,,,,,,2497.1879419,,,,,,,,2497.1850847,2497.1879419,2497.1879419,2497.1879419,2500.1491153,shoe,f,1.2478844000002027,0.24765329999991081,2500.1527333,2500.1527659,None,,,,,,,,,,,,,,00031,001,2026-01-16_10h19.28.668,MST_task,2024.2.0,59.93410844118395,2026-01-16 10h21.13.689909 +0530,
,Objects\329a.jpg,43,0,44,,,,,f,2.3766381000000365,0.20035120000011375,None,,,,,,44,0,43,2500.164755,,,,,,,,,,,,,,,,,,,,,,,2500.1528976,2500.164755,2500.649542,,,,,,,,,,,,2500.6903192,,,,,,,,2500.6874119,2500.6903192,2500.6903192,2500.6903192,2503.66513,shoe,f,2.3766381000000365,0.20035120000011375,2503.6652486,2503.6652891,None,,,,,,,,,,,,,,00031,001,2026-01-16_10h19.28.668,MST_task,2024.2.0,59.93410844118395,2026-01-16 10h21.13.689909 +0530,
,Objects\126a.jpg,44,0,45,,,,,f,2.724170100000265,None,None,,,,,,45,0,44,2503.6816484,,,,,,,,,,,,,,,,,,,,,,,2503.665567,2503.6816484,2504.1657394,,,,,,,,,,,,2504.2640297,,,,,,,,2504.2601692,2504.2640297,2504.2640297,2504.2640297,2507.1656075,shoe,f,2.724170100000265,None,2507.1658009,2507.1658702,None,,,,,,,,,,,,,,00031,001,2026-01-16_10h19.28.668,MST_task,2024.2.0,59.93410844118395,2026-01-16 10h21.13.689909 +0530,
,Objects\244a.jpg,45,0,46,,,,,f,2.667505500000061,0.1762245999998413,None,,,,,,46,0,45,2507.1815823,,,,,,,,,,,,,,,,,,,,,,,2507.1661894,2507.1815823,2507.6660174,,,,,,,,,,,,2507.7207307,,,,,,,,2507.7178294,2507.7207307,2507.7207307,2507.7207307,2510.6819753,shoe,f,2.667505500000061,0.1762245999998413,2510.6820768,2510.6821142999997,None,,,,,,,,,,,,,,00031,001,2026-01-16_10h19.28.668,MST_task,2024.2.0,59.93410844118395,2026-01-16 10h21.13.689909 +0530,
,Objects\240a.jpg,46,0,47,,,,,j,2.7766520000000128,None,None,,,,,,47,0,46,2510.6981387,,,,,,,,,,,,,,,,,,,,,,,2510.6824960999998,2510.6981387,2511.182535,,,,,,,,,,,,2511.2429191,,,,,,,,2511.2400086,2511.2429191,2511.2429191,2511.2429191,2514.1986679,shoe,j,2.7766520000000128,None,2514.198845,2514.1989138,None,,,,,,,,,,,,,,00031,001,2026-01-16_10h19.28.668,MST_task,2024.2.0,59.93410844118395,2026-01-16 10h21.13.689909 +0530,
,Objects\343a.jpg,47,0,48,,,,,f,1.699238400000013,0.19353199999977733,None,,,,,,48,0,47,2514.2147946,,,,,,,,,,,,,,,,,,,,,,,2514.199223,2514.2147946,2514.6992489,,,,,,,,,,,,2514.7357203,,,,,,,,2514.7318686,2514.7357203,2514.7357203,2514.7357203,2517.7153233,shoe,f,1.699238400000013,0.19353199999977733,2517.7154565,2517.7155033999998,None,,,,,,,,,,,,,,00031,001,2026-01-16_10h19.28.668,MST_task,2024.2.0,59.93410844118395,2026-01-16 10h21.13.689909 +0530,
,Objects\022a.jpg,48,0,49,,,,,f,1.0531934999999066,0.17662590000009004,None,,,,,,49,0,48,2517.7317202,,,,,,,,,,,,,,,,,,,,,,,2517.715721,2517.7317202,2518.2159209,,,,,,,,,,,,2518.2541005,,,,,,,,2518.2511317,2518.2541005,2518.2541005,2518.2541005,2521.2319135,shoe,f,1.0531934999999066,0.17662590000009004,2521.2320572999997,2521.2321111,None,,,,,,,,,,,,,,00031,001,2026-01-16_10h19.28.668,MST_task,2024.2.0,59.93410844118395,2026-01-16 10h21.13.689909 +0530,
,Objects\128a.jpg,49,0,50,,,,,f,2.787985899999967,None,None,,,,,,50,0,49,2521.2488337,,,,,,,,,,,,,,,,,,,,,,,2521.2323729,2521.2488337,2521.7326784,,,,,,,,,,,,2521.7831727,,,,,,,,2521.7800408,2521.7831727,2521.7831727,2521.7831727,2524.7485622,indoor,f,2.787985899999967,None,2524.7529672,2524.7530136,None,,,,,,,,,,,,,,00031,001,2026-01-16_10h19.28.668,MST_task,2024.2.0,59.93410844118395,2026-01-16 10h21.13.689909 +0530,
,Objects\376a.jpg,50,0,51,,,,,j,1.7752484000002369,0.20085199999994074,None,,,,,,51,0,50,2524.7650092999997,,,,,,,,,,,,,,,,,,,,,,,2524.7531915,2524.7650092999997,2525.2491568,,,,,,,,,,,,2525.3077746,,,,,,,,2525.3039985,2525.3077746,2525.3077746,2525.3077746,2528.2653265999998,indoor,j,1.7752484000002369,0.20085199999994074,2528.2654924,2528.2655389,None,,,,,,,,,,,,,,00031,001,2026-01-16_10h19.28.668,MST_task,2024.2.0,59.93410844118395,2026-01-16 10h21.13.689909 +0530,
,Objects\156a.jpg,51,0,52,,,,,f,1.7324502000001303,0.21669729999985066,None,,,,,,52,0,51,2528.2821617,,,,,,,,,,,,,,,,,,,,,,,2528.2657558,2528.2821617,2528.7659573,,,,,,,,,,,,2528.8161071,,,,,,,,2528.8134571,2528.8161071,2528.8161071,2528.8161071,2531.7818841,indoor,f,1.7324502000001303,0.21669729999985066,2531.7819685,2531.7819974,None,,,,,,,,,,,,,,00031,001,2026-01-16_10h19.28.668,MST_task,2024.2.0,59.93410844118395,2026-01-16 10h21.13.689909 +0530,
,Objects\331a.jpg,52,0,53,,,,,j,2.511166900000262,0.2489197999998396,None,,,,,,53,0,52,2531.7986548,,,,,,,,,,,,,,,,,,,,,,,2531.7821366,2531.7986548,2532.282568,,,,,,,,,,,,2532.3242493,,,,,,,,2532.3215121,2532.3242493,2532.3242493,2532.3242493,2535.2985371,indoor,j,2.511166900000262,0.2489197999998396,2535.298667,2535.2987139,None,,,,,,,,,,,,,,00031,001,2026-01-16_10h19.28.668,MST_task,2024.2.0,59.93410844118395,2026-01-16 10h21.13.689909 +0530,
,Objects\275a.jpg,53,0,54,,,,,j,0.917125599999963,0.28713580000021466,None,,,,,,54,0,53,2535.3146191,,,,,,,,,,,,,,,,,,,,,,,2535.2989953,2535.3146191,2535.7991192,,,,,,,,,,,,2535.8633177,,,,,,,,2535.8595552,2535.8633177,2535.8633177,2535.8633177,2538.8152646,indoor,j,0.917125599999963,0.28713580000021466,2538.815446,2538.8155131,None,,,,,,,,,,,,,,00031,001,2026-01-16_10h19.28.668,MST_task,2024.2.0,59.93410844118395,2026-01-16 10h21.13.689909 +0530,
,Objects\062a.jpg,54,0,55,,,,,f,2.569084499999917,0.24013830000012604,None,,,,,,55,0,54,2538.8314151,,,,,,,,,,,,,,,,,,,,,,,2538.8157614,2538.8314151,2539.3160178,,,,,,,,,,,,2539.3470656,,,,,,,,2539.3442256,2539.3470656,2539.3470656,2539.3470656,2542.3319318,indoor,f,2.569084499999917,0.24013830000012604,2542.3320697,2542.3321195,None,,,,,,,,,,,,,,00031,001,2026-01-16_10h19.28.668,MST_task,2024.2.0,59.93410844118395,2026-01-16 10h21.13.689909 +0530,
,Objects\371a.jpg,55,0,56,,,,,j,1.108993400000145,0.27202559999977893,None,,,,,,56,0,55,2542.34847,,,,,,,,,,,,,,,,,,,,,,,2542.3323657,2542.34847,2542.8322695,,,,,,,,,,,,2542.8630235,,,,,,,,2542.8597362,2542.8630235,2542.8630235,2542.8630235,2545.8485683,indoor,j,1.108993400000145,0.27202559999977893,2545.8487486999998,2545.8488168999997,None,,,,,,,,,,,,,,00031,001,2026-01-16_10h19.28.668,MST_task,2024.2.0,59.93410844118395,2026-01-16 10h21.13.689909 +0530,
,Objects\381a.jpg,56,0,57,,,,,j,1.4488107000001946,0.23279309999998077,None,,,,,,57,0,56,2545.8649001,,,,,,,,,,,,,,,,,,,,,,,2545.8491267,2545.8649001,2546.3491372,,,,,,,,,,,,2546.4182281,,,,,,,,2546.4144256,2546.4182281,2546.4182281,2546.4182281,2549.3652072,shoe,j,1.4488107000001946,0.23279309999998077,2549.3707752,2549.3708358,None,,,,,,,,,,,,,,00031,001,2026-01-16_10h19.28.668,MST_task,2024.2.0,59.93410844118395,2026-01-16 10h21.13.689909 +0530,
,Objects\276a.jpg,57,0,58,,,,,None,,,f,0.04172420000031707,None,,,,58,0,57,2549.3814809,,,,,,,,,,,,,,,,,,,,,,,2549.371188,2549.3814809,2549.8659127,,,,,,,,,,,,2549.9483784,,,,,,,,2549.9453009999997,2549.9483784,2549.9483784,2549.9483784,2552.8821579,shoe,None,,,2552.8823429999998,2552.9500109,f,2552.8986418,2552.8986418,0.04172420000031707,None,,,,,,,,,,00031,001,2026-01-16_10h19.28.668,MST_task,2024.2.0,59.93410844118395,2026-01-16 10h21.13.689909 +0530,
,Objects\078a.jpg,58,0,59,,,,,j,1.116869499999666,0.20120640000004641,None,,,,,,59,0,58,2552.9647413,,,,,,,,,,,,,,,,,,,,,,,2552.9504045,2552.9647413,2553.4493081,,,,,,,,,,,,2553.4782979,,,,,,,,2553.4756196,2553.4782979,2553.4782979,2553.4782979,2556.4653681,shoe,j,1.116869499999666,0.20120640000004641,2556.4655864,2556.4656551,None,,,,,,,,,,,,,,00031,001,2026-01-16_10h19.28.668,MST_task,2024.2.0,59.93410844118395,2026-01-16 10h21.13.689909 +0530,
,Objects\299a.jpg,59,0,60,,,,,j,0.8059540999997807,0.232509200000095,None,,,,,,60,0,59,2556.4815178,,,,,,,,,,,,,,,,,,,,,,,2556.4659687,2556.4815178,2556.9657967,,,,,,,,,,,,2557.0140524,,,,,,,,2557.0110234,2557.0140524,2557.0140524,2557.0140524,2559.965972,shoe,j,0.8059540999997807,0.232509200000095,2559.966144,2559.9662098,None,,,,,,,,,,,,,,00031,001,2026-01-16_10h19.28.668,MST_task,2024.2.0,59.93410844118395,2026-01-16 10h21.13.689909 +0530,
,Objects\118a.jpg,60,0,61,,,,,f,1.3241210999999566,0.19927300000017567,None,,,,,,61,0,60,2559.9814415,,,,,,,,,,,,,,,,,,,,,,,2559.9665131,2559.9814415,2560.4654614,,,,,,,,,,,,2560.5199181,,,,,,,,2560.5166563,2560.5199181,2560.5199181,2560.5199181,2563.4815543,shoe,f,1.3241210999999566,0.19927300000017567,2563.4816616,2563.4816789,None,,,,,,,,,,,,,,00031,001,2026-01-16_10h19.28.668,MST_task,2024.2.0,59.93410844118395,2026-01-16 10h21.13.689909 +0530,
,Objects\199a.jpg,61,0,62,,,,,f,1.5141782000000603,0.21578679999993255,None,,,,,,62,0,61,2563.4979667,,,,,,,,,,,,,,,,,,,,,,,2563.4817669999998,2563.4979667,2563.9826897,,,,,,,,,,,,2564.0336276,,,,,,,,2564.030416,2564.0336276,2564.0336276,2564.0336276,2566.9819056,shoe,f,1.5141782000000603,0.21578679999993255,2566.9820611,2566.9820968,None,,,,,,,,,,,,,,00031,001,2026-01-16_10h19.28.668,MST_task,2024.2.0,59.93410844118395,2026-01-16 10h21.13.689909 +0530,
,Objects\008a.jpg,62,0,63,,,,,f,1.026136299999962,0.21540550000008807,None,,,,,,63,0,62,2566.9986741,,,,,,,,,,,,,,,,,,,,,,,2566.9822613,2566.9986741,2567.482539,,,,,,,,,,,,2567.6094633,,,,,,,,2567.6063652,2567.6094633,2567.6094633,2567.6094633,2570.4984457,shoe,f,1.026136299999962,0.21540550000008807,2570.4986369,2570.4987052,None,,,,,,,,,,,,,,00031,001,2026-01-16_10h19.28.668,MST_task,2024.2.0,59.93410844118395,2026-01-16 10h21.13.689909 +0530,
,Objects\140a.jpg,63,0,64,,,,,f,1.574938100000054,0.21671299999979965,None,,,,,,64,0,63,2570.5155085,,,,,,,,,,,,,,,,,,,,,,,2570.4990424,2570.5155085,2570.9989600999997,,,,,,,,,,,,2571.0681709,,,,,,,,2571.0645401,2571.0681709,2571.0681709,2571.0681709,2574.0149852,indoor,f,1.574938100000054,0.21671299999979965,2574.0183022,2574.018338,None,,,,,,,,,,,,,,00031,001,2026-01-16_10h19.28.668,MST_task,2024.2.0,59.93410844118395,2026-01-16 10h21.13.689909 +0530,
,Objects\076a.jpg,64,0,65,,,,,j,1.3610201999999845,0.23181950000025608,None,,,,,,65,0,64,2574.0311275999998,,,,,,,,,,,,,,,,,,,,,,,2574.0184759999997,2574.0311275999998,2574.5160243,,,,,,,,,,,,2574.7705661,,,,,,,,2574.7675318,2574.7705661,2574.7705661,2574.7705661,2577.5319145,indoor,j,1.3610201999999845,0.23181950000025608,2577.532029,2577.5320752,None,,,,,,,,,,,,,,00031,001,2026-01-16_10h19.28.668,MST_task,2024.2.0,59.93410844118395,2026-01-16 10h21.13.689909 +0530,
,Objects\213a.jpg,65,0,66,,,,,f,0.6859521000001223,0.16773060000014084,None,,,,,,66,0,65,2577.5480305,,,,,,,,,,,,,,,,,,,,,,,2577.532271,2577.5480305,2578.0325236,,,,,,,,,,,,2578.07748,,,,,,,,2578.0744882999998,2578.07748,2578.07748,2578.07748,2581.0484598,indoor,f,0.6859521000001223,0.16773060000014084,2581.0486354,2581.0486861,None,,,,,,,,,,,,,,00031,001,2026-01-16_10h19.28.668,MST_task,2024.2.0,59.93410844118395,2026-01-16 10h21.13.689909 +0530,
,Objects\003a.jpg,66,0,67,,,,,j,1.573667099999966,0.22404980000010255,None,,,,,,67,0,66,2581.0648608,,,,,,,,,,,,,,,,,,,,,,,2581.0489192,2581.0648608,2581.5491217,,,,,,,,,,,,2581.7016226,,,,,,,,2581.6988611,2581.7016226,2581.7016226,2581.7016226,2584.5651942,indoor,j,1.573667099999966,0.22404980000010255,2584.5653608,2584.5654226,None,,,,,,,,,,,,,,00031,001,2026-01-16_10h19.28.668,MST_task,2024.2.0,59.93410844118395,2026-01-16 10h21.13.689909 +0530,
,Objects\091a.jpg,67,0,68,,,,,f,2.107778800000233,0.2163418999998612,None,,,,,,68,0,67,2584.5814127,,,,,,,,,,,,,,,,,,,,,,,2584.5656402,2584.5814127,2585.0657247999998,,,,,,,,,,,,2585.2238033,,,,,,,,2585.2209285999998,2585.2238033,2585.2238033,2585.2238033,2588.0818427,indoor,f,2.107778800000233,0.2163418999998612,2588.0819783,2588.0820621,None,,,,,,,,,,,,,,00031,001,2026-01-16_10h19.28.668,MST_task,2024.2.0,59.93410844118395,2026-01-16 10h21.13.689909 +0530,
,Objects\080a.jpg,68,0,69,,,,,f,0.8888693999997486,0.19116840000015145,None,,,,,,69,0,68,2588.0984073,,,,,,,,,,,,,,,,,,,,,,,2588.0823929,2588.0984073,2588.5821699,,,,,,,,,,,,2588.8192792,,,,,,,,2588.8155867,2588.8192792,2588.8192792,2588.8192792,2591.5985201,indoor,f,0.8888693999997486,0.19116840000015145,2591.5986785,2591.5987414,None,,,,,,,,,,,,,,00031,001,2026-01-16_10h19.28.668,MST_task,2024.2.0,59.93410844118395,2026-01-16 10h21.13.689909 +0530,
,Objects\339a.jpg,69,0,70,,,,,f,2.154597599999761,0.21655050000026677,None,,,,,,70,0,69,2591.6150105,,,,,,,,,,,,,,,,,,,,,,,2591.5990219,2591.6150105,2592.0994359,,,,,,,,,,,,2592.137075,,,,,,,,2592.1341012,2592.137075,2592.137075,2592.137075,2595.1151357,indoor,f,2.154597599999761,0.21655050000026677,2595.1153186,2595.1153867,None,,,,,,,,,,,,,,00031,001,2026-01-16_10h19.28.668,MST_task,2024.2.0,59.93410844118395,2026-01-16 10h21.13.689909 +0530,
,Objects\057a.jpg,70,0,71,,,,,f,1.2758020000001125,0.2083917999998448,None,,,,,,71,0,70,2595.1313872,,,,,,,,,,,,,,,,,,,,,,,2595.1157004,2595.1313872,2595.6154969,,,,,,,,,,,,,,,,,,,,2595.7804281999997,2595.7837767,2595.7837767,2595.7837767,2598.631857,shoe,f,1.2758020000001125,0.2083917999998448,2598.6373717,2598.637421,None,,,,,,,,,,,,,,00031,001,2026-01-16_10h19.28.668,MST_task,2024.2.0,59.93410844118395,2026-01-16 10h21.13.689909 +0530,
,Objects\264a.jpg,71,0,72,,,,,f,0.9145646000001761,0.18382870000004914,None,,,,,,72,0,71,2598.6482257,,,,,,,,,,,,,,,,,,,,,,,2598.6376374,2598.6482257,2599.1325115,,,,,,,,,,,,2599.2654933999997,,,,,,,,2599.2626836,2599.2654933999997,2599.2654933999997,2599.2654933999997,2602.1484983,shoe,f,0.9145646000001761,0.18382870000004914,2602.1486323999998,2602.1486756,None,,,,,,,,,,,,,,00031,001,2026-01-16_10h19.28.668,MST_task,2024.2.0,59.93410844118395,2026-01-16 10h21.13.689909 +0530,
,Objects\305a.jpg,72,0,73,,,,,f,1.0104569000000083,0.1832853000000796,None,,,,,,73,0,72,2602.1646996,,,,,,,,,,,,,,,,,,,,,,,2602.1488912,2602.1646996,2602.6485771,,,,,,,,,,,,2602.6973153999998,,,,,,,,2602.6941899,2602.6973153999998,2602.6973153999998,2602.6973153999998,2605.6652329,shoe,f,1.0104569000000083,0.1832853000000796,2605.6653983,2605.6654611999998,None,,,,,,,,,,,,,,00031,001,2026-01-16_10h19.28.668,MST_task,2024.2.0,59.93410844118395,2026-01-16 10h21.13.689909 +0530,
,Objects\352a.jpg,73,0,74,,,,,f,0.9875013000000763,0.1919233999997232,None,,,,,,74,0,73,2605.6811642,,,,,,,,,,,,,,,,,,,,,,,2605.6657464,2605.6811642,2606.1656487,,,,,,,,,,,,2606.2484665,,,,,,,,2606.2454188,2606.2484665,2606.2484665,2606.2484665,2609.1816991,shoe,f,0.9875013000000763,0.1919233999997232,2609.1818719,2609.1819145,None,,,,,,,,,,,,,,00031,001,2026-01-16_10h19.28.668,MST_task,2024.2.0,59.93410844118395,2026-01-16 10h21.13.689909 +0530,
,Objects\010a.jpg,74,0,75,,,,,f,0.5533571000000848,0.16875479999998788,None,,,,,,75,0,74,2609.1980461,,,,,,,,,,,,,,,,,,,,,,,2609.1821085,2609.1980461,2609.6826359,,,,,,,,,,,,2609.7136858,,,,,,,,2609.7104914,2609.7136858,2609.7136858,2609.7136858,2612.698613,shoe,f,0.5533571000000848,0.16875479999998788,2612.6987252999998,2612.6987659,None,,,,,,,,,,,,,,00031,001,2026-01-16_10h19.28.668,MST_task,2024.2.0,59.93410844118395,2026-01-16 10h21.13.689909 +0530,
,Objects\184a.jpg,75,0,76,,,,,None,,,j,0.9395810000000893,None,,,,76,0,75,2612.7147766,,,,,,,,,,,,,,,,,,,,,,,2612.6989516999997,2612.7147766,2613.1991251,,,,,,,,,,,,2613.6914916,,,,,,,,2613.6882202,2613.6914916,2613.6914916,2613.6914916,2616.2152941,shoe,None,,,2616.2154583,2617.1825225,j,2616.2314119,2616.2314119,0.9395810000000893,None,,,,,,,,,,00031,001,2026-01-16_10h19.28.668,MST_task,2024.2.0,59.93410844118395,2026-01-16 10h21.13.689909 +0530,
,Objects\335a.jpg,76,0,77,,,,,j,1.2150299999998424,0.28816939999978786,None,,,,,,77,0,76,2617.197942,,,,,,,,,,,,,,,,,,,,,,,2617.1826708,2617.197942,2617.6827641,,,,,,,,,,,,2617.7325634,,,,,,,,2617.729274,2617.7325634,2617.7325634,2617.7325634,2620.6984272,shoe,j,1.2150299999998424,0.28816939999978786,2620.6985743,2620.6985995,None,,,,,,,,,,,,,,00031,001,2026-01-16_10h19.28.668,MST_task,2024.2.0,59.93410844118395,2026-01-16 10h21.13.689909 +0530,
,Objects\006a.jpg,77,0,78,,,,,f,0.8496958000000632,1.1514061000002584,None,,,,,,78,0,77,2620.7149375999998,,,,,,,,,,,,,,,,,,,,,,,2620.6987593,2620.7149375999998,2621.1992077,,,,,,,,,,,,2621.2499853,,,,,,,,2621.2463062,2621.2499853,2621.2499853,2621.2499853,2624.2151509,indoor,f,0.8496958000000632,1.1514061000002584,2624.2203578,2624.2204249,None,,,,,,,,,,,,,,00031,001,2026-01-16_10h19.28.668,MST_task,2024.2.0,59.93410844118395,2026-01-16 10h21.13.689909 +0530,
,Objects\151a.jpg,78,0,79,,,,,None,,,f,1.4800184999999146,None,,,,79,0,78,2624.2316096,,,,,,,,,,,,,,,,,,,,,,,2624.2207076,2624.2316096,2624.7158468,,,,,,,,,,,,2627.4162827,,,,,,,,2627.4130955,2627.4162827,2627.4162827,2627.4162827,2627.7316789,indoor,None,,,2627.7317519,2629.2319693,f,2627.748135,2627.748135,1.4800184999999146,None,,,,,,,,,,00031,001,2026-01-16_10h19.28.668,MST_task,2024.2.0,59.93410844118395,2026-01-16 10h21.13.689909 +0530,
,Objects\041a.jpg,79,0,80,,,,,j,1.0909916000000521,0.21596610000005967,None,,,,,,80,0,79,2629.2483616,,,,,,,,,,,,,,,,,,,,,,,2629.2320976,2629.2483616,2629.7320992,,,,,,,,,,,,2629.7603802,,,,,,,,2629.7576166999997,2629.7603802,2629.7603802,2629.7603802,2632.7483033,indoor,j,1.0909916000000521,0.21596610000005967,2632.7484159,2632.7484656,None,,,,,,,,,,,,,,00031,001,2026-01-16_10h19.28.668,MST_task,2024.2.0,59.93410844118395,2026-01-16 10h21.13.689909 +0530,
,Objects\267a.jpg,80,0,81,,,,,j,2.2295743999998194,0.26335900000003676,None,,,,,,81,0,80,2632.7647707,,,,,,,,,,,,,,,,,,,,,,,2632.748654,2632.7647707,2633.2490835,,,,,,,,,,,,2633.3264501,,,,,,,,2633.3230786999998,2633.3264501,2633.3264501,2633.3264501,2636.2488101999998,indoor,j,2.2295743999998194,0.26335900000003676,2636.2489215,2636.2489618,None,,,,,,,,,,,,,,00031,001,2026-01-16_10h19.28.668,MST_task,2024.2.0,59.93410844118395,2026-01-16 10h21.13.689909 +0530,
,Objects\309a.jpg,81,0,82,,,,,f,1.361612100000002,0.24027720000003683,None,,,,,,82,0,81,2636.2647947,,,,,,,,,,,,,,,,,,,,,,,2636.249151,2636.2647947,2636.7492972,,,,,,,,,,,,2636.8419658,,,,,,,,2636.8389810999997,2636.8419658,2636.8419658,2636.8419658,2639.7652791,indoor,f,1.361612100000002,0.24027720000003683,2639.7654334999997,2639.7654914,None,,,,,,,,,,,,,,00031,001,2026-01-16_10h19.28.668,MST_task,2024.2.0,59.93410844118395,2026-01-16 10h21.13.689909 +0530,
,Objects\087a.jpg,82,0,83,,,,,j,1.1842039999996814,0.26410800000030576,None,,,,,,83,0,82,2639.7811686,,,,,,,,,,,,,,,,,,,,,,,2639.7656743,2639.7811686,2640.2658243,,,,,,,,,,,,2640.2988486,,,,,,,,2640.2950315,2640.2988486,2640.2988486,2640.2988486,2643.2817882,indoor,j,1.1842039999996814,0.26410800000030576,2643.2819105,2643.2819517,None,,,,,,,,,,,,,,00031,001,2026-01-16_10h19.28.668,MST_task,2024.2.0,59.93410844118395,2026-01-16 10h21.13.689909 +0530,
,Objects\340a.jpg,83,0,84,,,,,f,1.1199592000002667,0.21491599999990285,None,,,,,,84,0,83,2643.2982581,,,,,,,,,,,,,,,,,,,,,,,2643.2821439,2643.2982581,2643.7824302,,,,,,,,,,,,2643.8203323,,,,,,,,2643.8172217,2643.8203323,2643.8203323,2643.8203323,2646.7986714999997,indoor,f,1.1199592000002667,0.21491599999990285,2646.7988044999997,2646.7988507,None,,,,,,,,,,,,,,00031,001,2026-01-16_10h19.28.668,MST_task,2024.2.0,59.93410844118395,2026-01-16 10h21.13.689909 +0530,
,Objects\347a.jpg,84,0,85,,,,,f,0.932464600000003,0.2159179000000222,None,,,,,,85,0,84,2646.8146647,,,,,,,,,,,,,,,,,,,,,,,2646.7990532999997,2646.8146647,2647.2994681,,,,,,,,,,,,2647.3434187,,,,,,,,2647.339114,2647.3434187,2647.3434187,2647.3434187,2650.3152718,shoe,f,0.932464600000003,0.2159179000000222,2650.3210818,2650.3211515,None,,,,,,,,,,,,,,00031,001,2026-01-16_10h19.28.668,MST_task,2024.2.0,59.93410844118395,2026-01-16 10h21.13.689909 +0530,
,Objects\224a.jpg,85,0,86,,,,,f,2.7052536000001055,None,None,,,,,,86,0,85,2650.3314482,,,,,,,,,,,,,,,,,,,,,,,2650.3214222,2650.3314482,2650.8158689,,,,,,,,,,,,2650.858134,,,,,,,,2650.8549526,2650.858134,2650.858134,2650.858134,2653.8318832,shoe,f,2.7052536000001055,None,2653.832007,2653.8320527,None,,,,,,,,,,,,,,00031,001,2026-01-16_10h19.28.668,MST_task,2024.2.0,59.93410844118395,2026-01-16 10h21.13.689909 +0530,
,Objects\317a.jpg,86,0,87,,,,,None,,,f,0.9026373000001513,None,,,,87,0,86,2653.8485734,,,,,,,,,,,,,,,,,,,,,,,2653.8322695,2653.8485734,2654.33268,,,,,,,,,,,,2654.4482378,,,,,,,,2654.4452399,2654.4482378,2654.4482378,2654.4482378,2657.3485419999997,shoe,None,,,2657.3486381,2658.2830802,f,2657.3647339999998,2657.3647339999998,0.9026373000001513,None,,,,,,,,,,00031,001,2026-01-16_10h19.28.668,MST_task,2024.2.0,59.93410844118395,2026-01-16 10h21.13.689909 +0530,
,Objects\159a.jpg,87,0,88,,,,,f,1.4089045000000624,0.19187990000000354,None,,,,,,88,0,87,2658.2980677,,,,,,,,,,,,,,,,,,,,,,,2658.2834574,2658.2980677,2658.783439,,,,,,,,,,,,2658.8501935,,,,,,,,2658.8471727,2658.8501935,2658.8501935,2658.8501935,2661.7985651,shoe,f,1.4089045000000624,0.19187990000000354,2661.7986755,2661.7987176,None,,,,,,,,,,,,,,00031,001,2026-01-16_10h19.28.668,MST_task,2024.2.0,59.93410844118395,2026-01-16 10h21.13.689909 +0530,
,Objects\218a.jpg,88,0,89,,,,,j,0.7312016000000767,0.2240722999999889,None,,,,,,89,0,88,2661.8148686,,,,,,,,,,,,,,,,,,,,,,,2661.798985,2661.8148686,2662.2991281,,,,,,,,,,,,2662.3527988,,,,,,,,2662.3494534,2662.3527988,2662.3527988,2662.3527988,2665.3153456,shoe,j,0.7312016000000767,0.2240722999999889,2665.3155021,2665.3155508,None,,,,,,,,,,,,,,00031,001,2026-01-16_10h19.28.668,MST_task,2024.2.0,59.93410844118395,2026-01-16 10h21.13.689909 +0530,
,Objects\215a.jpg,89,0,90,,,,,f,0.6855236999999761,0.19280909999997675,None,,,,,,90,0,89,2665.3314685,,,,,,,,,,,,,,,,,,,,,,,2665.3159341,2665.3314685,2665.8157966,,,,,,,,,,,,2665.8536781,,,,,,,,2665.8508403,2665.8536781,2665.8536781,2665.8536781,2668.8320282,shoe,f,0.6855236999999761,0.19280909999997675,2668.8322165,2668.8322841,None,,,,,,,,,,,,,,00031,001,2026-01-16_10h19.28.668,MST_task,2024.2.0,59.93410844118395,2026-01-16 10h21.13.689909 +0530,
,Objects\005a.jpg,90,0,91,,,,,f,0.8873508000001493,0.1909442000001036,None,,,,,,91,0,90,2668.8481219,,,,,,,,,,,,,,,,,,,,,,,2668.8325973,2668.8481219,2669.33247,,,,,,,,,,,,2669.3888395999998,,,,,,,,2669.3859027,2669.3888395999998,2669.3888395999998,2669.3888395999998,2672.3484797,shoe,f,0.8873508000001493,0.1909442000001036,2672.3485852,2672.3486239999997,None,,,,,,,,,,,,,,00031,001,2026-01-16_10h19.28.668,MST_task,2024.2.0,59.93410844118395,2026-01-16 10h21.13.689909 +0530,
,Objects\265a.jpg,91,0,92,,,,,j,1.4241609000000608,0.21622930000012275,None,,,,,,92,0,91,2672.3647206,,,,,,,,,,,,,,,,,,,,,,,2672.3488734,2672.3647206,2672.8492901,,,,,,,,,,,,2672.891616,,,,,,,,2672.888141,2672.891616,2672.891616,2672.891616,2675.8652139,indoor,j,1.4241609000000608,0.21622930000012275,2675.8690329,2675.8690684,None,,,,,,,,,,,,,,00031,001,2026-01-16_10h19.28.668,MST_task,2024.2.0,59.93410844118395,2026-01-16 10h21.13.689909 +0530,
,Objects\273a.jpg,92,0,93,,,,,f,1.485591099999965,0.2307199000001674,None,,,,,,93,0,92,2675.8814251,,,,,,,,,,,,,,,,,,,,,,,2675.8692118,2675.8814251,2676.3662324,,,,,,,,,,,,2676.4787766,,,,,,,,2676.4749054999997,2676.4787766,2676.4787766,2676.4787766,2679.3817937,indoor,f,1.485591099999965,0.2307199000001674,2679.3819877,2679.382054,None,,,,,,,,,,,,,,00031,001,2026-01-16_10h19.28.668,MST_task,2024.2.0,59.93410844118395,2026-01-16 10h21.13.689909 +0530,
,Objects\077a.jpg,93,0,94,,,,,j,0.9259618000000955,0.26376429999982065,None,,,,,,94,0,93,2679.3982981,,,,,,,,,,,,,,,,,,,,,,,2679.3824219,2679.3982981,2679.8826484,,,,,,,,,,,,2680.0292491,,,,,,,,2680.0256223,2680.0292491,2680.0292491,2680.0292491,2682.8986046,indoor,j,0.9259618000000955,0.26376429999982065,2682.8987428,2682.8987898,None,,,,,,,,,,,,,,00031,001,2026-01-16_10h19.28.668,MST_task,2024.2.0,59.93410844118395,2026-01-16 10h21.13.689909 +0530,
,Objects\324a.jpg,94,0,95,,,,,f,2.0417967000003046,0.19992359999969267,None,,,,,,95,0,94,2682.9149457,,,,,,,,,,,,,,,,,,,,,,,2682.8990143,2682.9149457,2683.3991215,,,,,,,,,,,,2683.4739954,,,,,,,,2683.4699173,2683.4739954,2683.4739954,2683.4739954,2686.4150876999997,indoor,f,2.0417967000003046,0.19992359999969267,2686.4152004,2686.4152415,None,,,,,,,,,,,,,,00031,001,2026-01-16_10h19.28.668,MST_task,2024.2.0,59.93410844118395,2026-01-16 10h21.13.689909 +0530,
,Objects\346a.jpg,95,0,96,,,,,f,1.1047542999999678,0.19199609999986933,None,,,,,,96,0,95,2686.4314687,,,,,,,,,,,,,,,,,,,,,,,2686.4154337,2686.4314687,2686.9157252,,,,,,,,,,,,2687.0824145,,,,,,,,2687.0790816,2687.0824145,2687.0824145,2687.0824145,2689.9318639,indoor,f,1.1047542999999678,0.19199609999986933,2689.9319975,2689.9320443,None,,,,,,,,,,,,,,00031,001,2026-01-16_10h19.28.668,MST_task,2024.2.0,59.93410844118395,2026-01-16 10h21.13.689909 +0530,
,Objects\223a.jpg,96,0,97,,,,,j,0.9512161000002379,0.2639902000000802,None,,,,,,97,0,96,2689.948026,,,,,,,,,,,,,,,,,,,,,,,2689.9322601999997,2689.948026,2690.4325206,,,,,,,,,,,,2690.7559578,,,,,,,,2690.7524238,2690.7559578,2690.7559578,2690.7559578,2693.4485912,indoor,j,0.9512161000002379,0.2639902000000802,2693.4487687,2693.4488123,None,,,,,,,,,,,,,,00031,001,2026-01-16_10h19.28.668,MST_task,2024.2.0,59.93410844118395,2026-01-16 10h21.13.689909 +0530,
,Objects\174a.jpg,97,0,98,,,,,f,1.2791956999999456,0.22335259999999835,None,,,,,,98,0,97,2693.4651118,,,,,,,,,,,,,,,,,,,,,,,2693.4490137,2693.4651118,2693.9491014,,,,,,,,,,,,2693.9805079,,,,,,,,2693.9771723,2693.9805079,2693.9805079,2693.9805079,2696.965073,indoor,f,1.2791956999999456,0.22335259999999835,2696.9652413999997,2696.9653021999998,None,,,,,,,,,,,,,,00031,001,2026-01-16_10h19.28.668,MST_task,2024.2.0,59.93410844118395,2026-01-16 10h21.13.689909 +0530,
,Objects\113a.jpg,98,0,99,,,,,f,1.0602671000001465,0.17671130000007906,None,,,,,,99,0,98,2696.9812174999997,,,,,,,,,,,,,,,,,,,,,,,2696.9655474,2696.9812174999997,2697.4659873,,,,,,,,,,,,2697.5107869,,,,,,,,2697.5077026999998,2697.5107869,2697.5107869,2697.5107869,2700.4820852,shoe,f,1.0602671000001465,0.17671130000007906,2700.4864456,2700.4864863,None,,,,,,,,,,,,,,00031,001,2026-01-16_10h19.28.668,MST_task,2024.2.0,59.93410844118395,2026-01-16 10h21.13.689909 +0530,
,Objects\193a.jpg,99,0,100,,,,,f,0.7102171000001363,0.1683445999997275,None,,,,,,100,0,99,2700.4981288,,,,,,,,,,,,,,,,,,,,,,,2700.4866254,2700.4981288,2700.9823779,,,,,,,,,,,,2701.0529871999997,,,,,,,,2701.0496752999998,2701.0529871999997,2701.0529871999997,2701.0529871999997,2703.9984937,shoe,f,0.7102171000001363,0.1683445999997275,2703.9986668,2703.9987327,None,,,,,,,,,,,,,,00031,001,2026-01-16_10h19.28.668,MST_task,2024.2.0,59.93410844118395,2026-01-16 10h21.13.689909 +0530,
,Objects\049a.jpg,100,0,101,,,,,f,0.8319047999998475,0.19279180000012275,None,,,,,,101,0,100,2704.0146372,,,,,,,,,,,,,,,,,,,,,,,2703.9990493,2704.0146372,2704.4990008,,,,,,,,,,,,2704.5550934,,,,,,,,2704.5510907,2704.5550934,2704.5550934,2704.5550934,2707.5150618,shoe,f,0.8319047999998475,0.19279180000012275,2707.5151759,2707.5152172,None,,,,,,,,,,,,,,00031,001,2026-01-16_10h19.28.668,MST_task,2024.2.0,59.93410844118395,2026-01-16 10h21.13.689909 +0530,
,Objects\365a.jpg,101,0,102,,,,,f,0.9057501000002048,0.20013960000005682,None,,,,,,102,0,101,2707.5313547,,,,,,,,,,,,,,,,,,,,,,,2707.515409,2707.5313547,2708.0158844,,,,,,,,,,,,2708.1296305,,,,,,,,2708.126201,2708.1296305,2708.1296305,2708.1296305,2711.0318443,shoe,f,0.9057501000002048,0.20013960000005682,2711.0319741,2711.0320207,None,,,,,,,,,,,,,,00031,001,2026-01-16_10h19.28.668,MST_task,2024.2.0,59.93410844118395,2026-01-16 10h21.13.689909 +0530,
,Objects\306a.jpg,102,0,103,,,,,f,0.6836342000001423,0.17597109999996974,None,,,,,,103,0,102,2711.0480708,,,,,,,,,,,,,,,,,,,,,,,2711.0322606,2711.0480708,2711.5324265,,,,,,,,,,,,2711.5913685,,,,,,,,2711.587633,2711.5913685,2711.5913685,2711.5913685,2714.5485959,shoe,f,0.6836342000001423,0.17597109999996974,2714.5487505,2714.5487915,None,,,,,,,,,,,,,,00031,001,2026-01-16_10h19.28.668,MST_task,2024.2.0,59.93410844118395,2026-01-16 10h21.13.689909 +0530,
,Objects\311a.jpg,103,0,104,,,,,j,2.0526780000000144,0.3127452000003359,None,,,,,,104,0,103,2714.5647402,,,,,,,,,,,,,,,,,,,,,,,2714.5490553,2714.5647402,2715.0492304,,,,,,,,,,,,2715.1262717,,,,,,,,2715.1231927999997,2715.1262717,2715.1262717,2715.1262717,2718.0652388,shoe,j,2.0526780000000144,0.3127452000003359,2718.0654034,2718.0654645,None,,,,,,,,,,,,,,00031,001,2026-01-16_10h19.28.668,MST_task,2024.2.0,59.93410844118395,2026-01-16 10h21.13.689909 +0530,
,Objects\380a.jpg,104,0,105,,,,,j,1.224803200000224,0.2639190999998391,None,,,,,,105,0,104,2718.0815208999998,,,,,,,,,,,,,,,,,,,,,,,2718.0656718,2718.0815208999998,2718.5656394,,,,,,,,,,,,2719.7622619999997,,,,,,,,2719.7581311,2719.7622619999997,2719.7622619999997,2719.7622619999997,2721.5821132,shoe,j,1.224803200000224,0.2639190999998391,2721.5823596,2721.5824423999998,None,,,,,,,,,,,,,,00031,001,2026-01-16_10h19.28.668,MST_task,2024.2.0,59.93410844118395,2026-01-16 10h21.13.689909 +0530,
,Objects\131a.jpg,105,0,106,,,,,f,2.070512300000246,0.18456319999995685,None,,,,,,106,0,105,2721.5980601,,,,,,,,,,,,,,,,,,,,,,,2721.5827337,2721.5980601,2722.0825639,,,,,,,,,,,,2722.1321533,,,,,,,,2722.1290762,2722.1321533,2722.1321533,2722.1321533,2725.098609,indoor,f,2.070512300000246,0.18456319999995685,2725.1041709,2725.104244,None,,,,,,,,,,,,,,00031,001,2026-01-16_10h19.28.668,MST_task,2024.2.0,59.93410844118395,2026-01-16 10h21.13.689909 +0530,
,Objects\321a.jpg,106,0,107,,,,,f,0.6646928000000116,0.1748803999998927,None,,,,,,107,0,106,2725.1152939,,,,,,,,,,,,,,,,,,,,,,,2725.1045111,2725.1152939,2725.5989703,,,,,,,,,,,,2725.643347,,,,,,,,2725.6398467,2725.643347,2725.643347,2725.643347,2728.6149021,indoor,f,0.6646928000000116,0.1748803999998927,2728.6150076,2728.6150463,None,,,,,,,,,,,,,,00031,001,2026-01-16_10h19.28.668,MST_task,2024.2.0,59.93410844118395,2026-01-16 10h21.13.689909 +0530,
,Objects\114a.jpg,107,0,108,,,,,f,0.7037829000000784,0.175557900000058,None,,,,,,108,0,107,2728.6313176999997,,,,,,,,,,,,,,,,,,,,,,,2728.6151736,2728.6313176999997,2729.116089,,,,,,,,,,,,2729.1556468,,,,,,,,2729.1526857999997,2729.1556468,2729.1556468,2729.1556468,2732.1320907,indoor,f,0.7037829000000784,0.175557900000058,2732.1321932,2732.1322471,None,,,,,,,,,,,,,,00031,001,2026-01-16_10h19.28.668,MST_task,2024.2.0,59.93410844118395,2026-01-16 10h21.13.689909 +0530,
,Objects\170a.jpg,108,0,109,,,,,f,2.0665283999996973,0.20764910000025338,None,,,,,,109,0,108,2732.1480140999997,,,,,,,,,,,,,,,,,,,,,,,2732.1324467,2732.1480140999997,2732.6322879,,,,,,,,,,,,2732.6728279999998,,,,,,,,2732.6699645999997,2732.6728279999998,2732.6728279999998,2732.6728279999998,2735.6485009,indoor,f,2.0665283999996973,0.20764910000025338,2735.6486467,2735.6486976,None,,,,,,,,,,,,,,00031,001,2026-01-16_10h19.28.668,MST_task,2024.2.0,59.93410844118395,2026-01-16 10h21.13.689909 +0530,
,Objects\296a.jpg,109,0,110,,,,,j,1.062227200000052,0.16715469999962806,None,,,,,,110,0,109,2735.6646778,,,,,,,,,,,,,,,,,,,,,,,2735.6489309,2735.6646778,2736.14884,,,,,,,,,,,,2736.1895675,,,,,,,,2736.1865439,2736.1895675,2736.1895675,2736.1895675,2739.1650692,indoor,j,1.062227200000052,0.16715469999962806,2739.1652381999997,2739.1652988,None,,,,,,,,,,,,,,00031,001,2026-01-16_10h19.28.668,MST_task,2024.2.0,59.93410844118395,2026-01-16 10h21.13.689909 +0530,
,Objects\165a.jpg,110,0,111,,,,,f,0.771882099999857,0.15261300000020128,None,,,,,,111,0,110,2739.1814541,,,,,,,,,,,,,,,,,,,,,,,2739.1655568,2739.1814541,2739.6661082,,,,,,,,,,,,2739.7195016,,,,,,,,2739.7157005999998,2739.7195016,2739.7195016,2739.7195016,2742.6817408,indoor,f,0.771882099999857,0.15261300000020128,2742.6818825,2742.6819293,None,,,,,,,,,,,,,,00031,001,2026-01-16_10h19.28.668,MST_task,2024.2.0,59.93410844118395,2026-01-16 10h21.13.689909 +0530,
,Objects\043a.jpg,111,0,112,,,,,f,1.5441123000000516,0.20862440000018978,None,,,,,,112,0,111,2742.6980789,,,,,,,,,,,,,,,,,,,,,,,2742.6821439,2742.6980789,2743.1825809,,,,,,,,,,,,2743.2270782,,,,,,,,2743.2240337,2743.2270782,2743.2270782,2743.2270782,2746.1984211,indoor,f,1.5441123000000516,0.20862440000018978,2746.1985556,2746.1986057,None,,,,,,,,,,,,,,00031,001,2026-01-16_10h19.28.668,MST_task,2024.2.0,59.93410844118395,2026-01-16 10h21.13.689909 +0530,
,Objects\099a.jpg,112,0,113,,,,,f,0.9610141999996813,0.19140939999988404,None,,,,,,113,0,112,2746.2145108,,,,,,,,,,,,,,,,,,,,,,,2746.1988384,2746.2145108,2746.6992496,,,,,,,,,,,,2746.7706051,,,,,,,,2746.7678092,2746.7706051,2746.7706051,2746.7706051,2749.7151873,shoe,f,0.9610141999996813,0.19140939999988404,2749.7192774,2749.7193079999997,None,,,,,,,,,,,,,,00031,001,2026-01-16_10h19.28.668,MST_task,2024.2.0,59.93410844118395,2026-01-16 10h21.13.689909 +0530,
,Objects\208a.jpg,113,0,114,,,,,f,0.8594199999997727,0.19156370000018796,None,,,,,,114,0,113,2749.7315267,,,,,,,,,,,,,,,,,,,,,,,2749.7194303,2749.7315267,2750.2156463,,,,,,,,,,,,2750.8317804,,,,,,,,2750.827473,2750.8317804,2750.8317804,2750.8317804,2753.2321311,shoe,f,0.8594199999997727,0.19156370000018796,2753.2322799,2753.2323374,None,,,,,,,,,,,,,,00031,001,2026-01-16_10h19.28.668,MST_task,2024.2.0,59.93410844118395,2026-01-16 10h21.13.689909 +0530,
,Objects\278a.jpg,114,0,115,,,,,f,1.460258099999919,0.20019000000002052,None,,,,,,115,0,114,2753.2481229,,,,,,,,,,,,,,,,,,,,,,,2753.2326577,2753.2481229,2753.7324955,,,,,,,,,,,,2753.9034337,,,,,,,,2753.8998551,2753.9034337,2753.9034337,2753.9034337,2756.7484306,shoe,f,1.460258099999919,0.20019000000002052,2756.7486018,2756.7486593,None,,,,,,,,,,,,,,00031,001,2026-01-16_10h19.28.668,MST_task,2024.2.0,59.93410844118395,2026-01-16 10h21.13.689909 +0530,
,Objects\337a.jpg,115,0,116,,,,,j,0.8477651000002879,0.23207069999989471,None,,,,,,116,0,115,2756.765307,,,,,,,,,,,,,,,,,,,,,,,2756.7489319,2756.765307,2757.2489443,,,,,,,,,,,,2757.3075903,,,,,,,,2757.3038963,2757.3075903,2757.3075903,2757.3075903,2760.2648398,shoe,j,0.8477651000002879,0.23207069999989471,2760.264972,2760.2650227,None,,,,,,,,,,,,,,00031,001,2026-01-16_10h19.28.668,MST_task,2024.2.0,59.93410844118395,2026-01-16 10h21.13.689909 +0530,
,Objects\096a.jpg,116,0,117,,,,,f,1.4401001999999608,0.20033319999993182,None,,,,,,117,0,116,2760.2813402,,,,,,,,,,,,,,,,,,,,,,,2760.2652544,2760.2813402,2760.7651907,,,,,,,,,,,,2760.8113779,,,,,,,,2760.8073192,2760.8113779,2760.8113779,2760.8113779,2763.7651800999997,shoe,f,1.4401001999999608,0.20033319999993182,2763.765343,2763.7653944999997,None,,,,,,,,,,,,,,00031,001,2026-01-16_10h19.28.668,MST_task,2024.2.0,59.93410844118395,2026-01-16 10h21.13.689909 +0530,
,Objects\133a.jpg,117,0,118,,,,,f,0.7199282999999923,0.1684903000000304,None,,,,,,118,0,117,2763.7814122,,,,,,,,,,,,,,,,,,,,,,,2763.7656388,2763.7814122,2764.2657872,,,,,,,,,,,,2764.3149565,,,,,,,,2764.3109676999998,2764.3149565,2764.3149565,2764.3149565,2767.2819166,shoe,f,0.7199282999999923,0.1684903000000304,2767.2820782999997,2767.2821488,None,,,,,,,,,,,,,,00031,001,2026-01-16_10h19.28.668,MST_task,2024.2.0,59.93410844118395,2026-01-16 10h21.13.689909 +0530,
,Objects\136a.jpg,118,0,119,,,,,f,0.7961635999999999,0.14460550000012518,None,,,,,,119,0,118,2767.2982537,,,,,,,,,,,,,,,,,,,,,,,2767.2824101,2767.2982537,2767.7820006,,,,,,,,,,,,2767.8232186,,,,,,,,2767.8199983,2767.8232186,2767.8232186,2767.8232186,2770.798433,shoe,f,0.7961635999999999,0.14460550000012518,2770.7984957999997,2770.7985124,None,,,,,,,,,,,,,,00031,001,2026-01-16_10h19.28.668,MST_task,2024.2.0,59.93410844118395,2026-01-16 10h21.13.689909 +0530,
,Objects\344a.jpg,119,0,120,,,,,f,1.8261201999998775,0.191671800000222,None,,,,,,120,0,119,2770.8147624,,,,,,,,,,,,,,,,,,,,,,,2770.7986499,2770.8147624,2771.2993714,,,,,,,,,,,,2771.3542073,,,,,,,,2771.3499517,2771.3542073,2771.3542073,2771.3542073,2774.315078,indoor,f,1.8261201999998775,0.191671800000222,2774.319995,2774.3200508,None,,,,,,,,,,,,,,00031,001,2026-01-16_10h19.28.668,MST_task,2024.2.0,59.93410844118395,2026-01-16 10h21.13.689909 +0530,
,Objects\059a.jpg,120,0,121,,,,,f,0.9169486000000688,0.19215749999966647,None,,,,,,121,0,120,2774.3315706,,,,,,,,,,,,,,,,,,,,,,,2774.3202773,2774.3315706,2774.8160089,,,,,,,,,,,,2774.8702261,,,,,,,,2774.8672452,2774.8702261,2774.8702261,2774.8702261,2777.8314925,indoor,f,0.9169486000000688,0.19215749999966647,2777.8315493,2777.8315686,None,,,,,,,,,,,,,,00031,001,2026-01-16_10h19.28.668,MST_task,2024.2.0,59.93410844118395,2026-01-16 10h21.13.689909 +0530,
,Objects\033a.jpg,121,0,122,,,,,f,1.3140183999998953,0.16767520000030345,None,,,,,,122,0,121,2777.8479226,,,,,,,,,,,,,,,,,,,,,,,2777.8316814,2777.8479226,2778.3325145,,,,,,,,,,,,2778.4335432,,,,,,,,2778.4304326,2778.4335432,2778.4335432,2778.4335432,2781.3317667,indoor,f,1.3140183999998953,0.16767520000030345,2781.3319209,2781.3319603,None,,,,,,,,,,,,,,00031,001,2026-01-16_10h19.28.668,MST_task,2024.2.0,59.93410844118395,2026-01-16 10h21.13.689909 +0530,
,Objects\333a.jpg,122,0,123,,,,,f,1.189111099999991,0.16085180000027322,None,,,,,,123,0,122,2781.3480653,,,,,,,,,,,,,,,,,,,,,,,2781.3321416999997,2781.3480653,2781.8325885,,,,,,,,,,,,2781.8695728,,,,,,,,2781.8661403,2781.8695728,2781.8695728,2781.8695728,2784.8488194,indoor,f,1.189111099999991,0.16085180000027322,2784.8489159,2784.8489491,None,,,,,,,,,,,,,,00031,001,2026-01-16_10h19.28.668,MST_task,2024.2.0,59.93410844118395,2026-01-16 10h21.13.689909 +0530,
,Objects\234a.jpg,123,0,124,,,,,f,2.1424738000000616,0.1762778000002072,None,,,,,,124,0,123,2784.8646679,,,,,,,,,,,,,,,,,,,,,,,2784.8491053,2784.8646679,2785.3492026,,,,,,,,,,,,2785.709102,,,,,,,,2785.7061535,2785.709102,2785.709102,2785.709102,2788.365281,indoor,f,2.1424738000000616,0.1762778000002072,2788.3654207,2788.3654876,None,,,,,,,,,,,,,,00031,001,2026-01-16_10h19.28.668,MST_task,2024.2.0,59.93410844118395,2026-01-16 10h21.13.689909 +0530,
,Objects\027a.jpg,124,0,125,,,,,f,0.8921361000002435,0.19158359999983077,None,,,,,,125,0,124,2788.3813338,,,,,,,,,,,,,,,,,,,,,,,2788.3657924999998,2788.3813338,2788.8656515,,,,,,,,,,,,2789.383152,,,,,,,,2789.3796704,2789.383152,2789.383152,2789.383152,2791.8822252,indoor,f,0.8921361000002435,0.19158359999983077,2791.8823796,2791.8824247,None,,,,,,,,,,,,,,00031,001,2026-01-16_10h19.28.668,MST_task,2024.2.0,59.93410844118395,2026-01-16 10h21.13.689909 +0530,
,Objects\235a.jpg,125,0,126,,,,,j,2.059421999999813,0.20011060000024372,None,,,,,,126,0,125,2791.8980395,,,,,,,,,,,,,,,,,,,,,,,2791.8826273,2791.8980395,2792.3826255999998,,,,,,,,,,,,2792.7913226,,,,,,,,2792.7875784,2792.7913226,2792.7913226,2792.7913226,2795.398462,indoor,j,2.059421999999813,0.20011060000024372,2795.3985741,2795.3986142,None,,,,,,,,,,,,,,00031,001,2026-01-16_10h19.28.668,MST_task,2024.2.0,59.93410844118395,2026-01-16 10h21.13.689909 +0530,
,Objects\382a.jpg,126,0,127,,,,,j,2.1668635000000904,0.24042039999994813,None,,,,,,127,0,126,2795.4148003,,,,,,,,,,,,,,,,,,,,,,,2795.3988028,2795.4148003,2795.8992407,,,,,,,,,,,,2796.4601054,,,,,,,,2796.4569797999998,2796.4601054,2796.4601054,2796.4601054,2798.915184,shoe,j,2.1668635000000904,0.24042039999994813,2798.9204078,2798.9204626,None,,,,,,,,,,,,,,00031,001,2026-01-16_10h19.28.668,MST_task,2024.2.0,59.93410844118395,2026-01-16 10h21.13.689909 +0530,
,Objects\363a.jpg,127,0,128,,,,,f,0.9652224999999817,0.1685138999996525,None,,,,,,128,0,127,2798.9314332,,,,,,,,,,,,,,,,,,,,,,,2798.9206909,2798.9314332,2799.4158605,,,,,,,,,,,,2799.7735592,,,,,,,,2799.7705777,2799.7735592,2799.7735592,2799.7735592,2802.4317879,shoe,f,0.9652224999999817,0.1685138999996525,2802.4318925,2802.4319272,None,,,,,,,,,,,,,,00031,001,2026-01-16_10h19.28.668,MST_task,2024.2.0,59.93410844118395,2026-01-16 10h21.13.689909 +0530,
,Objects\298a.jpg,128,0,129,,,,,j,1.7016591999999946,0.3194871000000603,None,,,,,,129,0,128,2802.4480281,,,,,,,,,,,,,,,,,,,,,,,2802.4320944,2802.4480281,2802.9325983999997,,,,,,,,,,,,2803.0136575,,,,,,,,2803.0106946,2803.0136575,2803.0136575,2803.0136575,2805.948385,shoe,j,1.7016591999999946,0.3194871000000603,2805.9484985,2805.9485392,None,,,,,,,,,,,,,,00031,001,2026-01-16_10h19.28.668,MST_task,2024.2.0,59.93410844118395,2026-01-16 10h21.13.689909 +0530,
,Objects\086a.jpg,129,0,130,,,,,j,0.9326168000002326,0.20690560000002733,None,,,,,,130,0,129,2805.9646809,,,,,,,,,,,,,,,,,,,,,,,2805.9487322,2805.9646809,2806.4492631,,,,,,,,,,,,2806.5431449,,,,,,,,2806.5398324,2806.5431449,2806.5431449,2806.5431449,2809.464986,shoe,j,0.9326168000002326,0.20690560000002733,2809.4651584,2809.4652241,None,,,,,,,,,,,,,,00031,001,2026-01-16_10h19.28.668,MST_task,2024.2.0,59.93410844118395,2026-01-16 10h21.13.689909 +0530,
,Objects\134a.jpg,130,0,131,,,,,j,1.7252542000001085,0.20829450000019278,None,,,,,,131,0,130,2809.4814681,,,,,,,,,,,,,,,,,,,,,,,2809.4656415,2809.4814681,2809.9655883,,,,,,,,,,,,2810.022507,,,,,,,,2810.0188157,2810.022507,2810.022507,2810.022507,2812.982193,shoe,j,1.7252542000001085,0.20829450000019278,2812.9823422,2812.9824036,None,,,,,,,,,,,,,,00031,001,2026-01-16_10h19.28.668,MST_task,2024.2.0,59.93410844118395,2026-01-16 10h21.13.689909 +0530,
,Objects\044a.jpg,131,0,132,,,,,f,2.2600791999998364,0.20892440000034185,None,,,,,,132,0,131,2812.9981386,,,,,,,,,,,,,,,,,,,,,,,2812.9827464,2812.9981386,2813.4823679,,,,,,,,,,,,2813.5187015,,,,,,,,2813.5157129,2813.5187015,2813.5187015,2813.5187015,2816.4983613,shoe,f,2.2600791999998364,0.20892440000034185,2816.4985108,2816.4985735,None,,,,,,,,,,,,,,00031,001,2026-01-16_10h19.28.668,MST_task,2024.2.0,59.93410844118395,2026-01-16 10h21.13.689909 +0530,
,Objects\047a.jpg,132,0,133,,,,,f,0.8187656000000061,0.19148989999985133,None,,,,,,133,0,132,2816.5146835,,,,,,,,,,,,,,,,,,,,,,,2816.4988574,2816.5146835,2816.9989754,,,,,,,,,,,,2817.0405369,,,,,,,,2817.0372527,2817.0405369,2817.0405369,2817.0405369,2820.0151134,shoe,f,0.8187656000000061,0.19148989999985133,2820.0152883,2820.015358,None,,,,,,,,,,,,,,00031,001,2026-01-16_10h19.28.668,MST_task,2024.2.0,59.93410844118395,2026-01-16 10h21.13.689909 +0530,
,Objects\374a.jpg,133,0,134,,,,,f,1.4871269000000211,0.18302119999998467,None,,,,,,134,0,133,2820.0313605,,,,,,,,,,,,,,,,,,,,,,,2820.0157498,2820.0313605,2820.5156987,,,,,,,,,,,,2820.5729126,,,,,,,,2820.5700176,2820.5729126,2820.5729126,2820.5729126,2823.5318824,indoor,f,1.4871269000000211,0.18302119999998467,2823.535626,2823.5356693,None,,,,,,,,,,,,,,00031,001,2026-01-16_10h19.28.668,MST_task,2024.2.0,59.93410844118395,2026-01-16 10h21.13.689909 +0530,
,Objects\243a.jpg,134,0,135,,,,,f,2.1474216999999953,0.21683540000003632,None,,,,,,135,0,134,2823.5479624,,,,,,,,,,,,,,,,,,,,,,,2823.5358355,2823.5479624,2824.0323714,,,,,,,,,,,,2824.1275103,,,,,,,,2824.1245875,2824.1275103,2824.1275103,2824.1275103,2827.0484048,indoor,f,2.1474216999999953,0.21683540000003632,2827.0485392,2827.048588,None,,,,,,,,,,,,,,00031,001,2026-01-16_10h19.28.668,MST_task,2024.2.0,59.93410844118395,2026-01-16 10h21.13.689909 +0530,
,Objects\020a.jpg,135,0,136,,,,,f,0.7729337999999188,0.23137650000035137,None,,,,,,136,0,135,2827.0646595,,,,,,,,,,,,,,,,,,,,,,,2827.0488205,2827.0646595,2827.5492151,,,,,,,,,,,,2827.5903967,,,,,,,,2827.5868052,2827.5903967,2827.5903967,2827.5903967,2830.5651063,indoor,f,0.7729337999999188,0.23137650000035137,2830.5652771,2830.565344,None,,,,,,,,,,,,,,00031,001,2026-01-16_10h19.28.668,MST_task,2024.2.0,59.93410844118395,2026-01-16 10h21.13.689909 +0530,
,Objects\115a.jpg,136,0,137,,,,,f,1.1807097000000795,0.17633089999981166,None,,,,,,137,0,136,2830.581407,,,,,,,,,,,,,,,,,,,,,,,2830.5655709,2830.581407,2831.065984,,,,,,,,,,,,2831.1350363,,,,,,,,2831.1323353,2831.1350363,2831.1350363,2831.1350363,2834.0820112,indoor,f,1.1807097000000795,0.17633089999981166,2834.0821434,2834.0821932999997,None,,,,,,,,,,,,,,00031,001,2026-01-16_10h19.28.668,MST_task,2024.2.0,59.93410844118395,2026-01-16 10h21.13.689909 +0530,
,Objects\117a.jpg,137,0,138,,,,,f,1.0202438000001166,0.1675199999999677,None,,,,,,138,0,137,2834.0982316,,,,,,,,,,,,,,,,,,,,,,,2834.0824234,2834.0982316,2834.5821369,,,,,,,,,,,,2834.6629414999998,,,,,,,,2834.6597856,2834.6629414999998,2834.6629414999998,2834.6629414999998,2837.5983109999997,indoor,f,1.0202438000001166,0.1675199999999677,2837.5984780999997,2837.5985348,None,,,,,,,,,,,,,,00031,001,2026-01-16_10h19.28.668,MST_task,2024.2.0,59.93410844118395,2026-01-16 10h21.13.689909 +0530,
,Objects\060a.jpg,138,0,139,,,,,f,1.4174646999999823,0.15164899999990666,None,,,,,,139,0,138,2837.6147026999997,,,,,,,,,,,,,,,,,,,,,,,2837.5987950999997,2837.6147026999997,2838.0992574,,,,,,,,,,,,2838.1459713,,,,,,,,2838.14243,2838.1459713,2838.1459713,2838.1459713,2841.1150293,indoor,f,1.4174646999999823,0.15164899999990666,2841.1152037,2841.1152725,None,,,,,,,,,,,,,,00031,001,2026-01-16_10h19.28.668,MST_task,2024.2.0,59.93410844118395,2026-01-16 10h21.13.689909 +0530,
,Objects\144a.jpg,139,0,140,,,,,f,1.378357899999628,0.21633460000020932,None,,,,,,140,0,139,2841.1313738999997,,,,,,,,,,,,,,,,,,,,,,,2841.1155621,2841.1313738999997,2841.6155418,,,,,,,,,,,,2841.6724335,,,,,,,,2841.6691416,2841.6724335,2841.6724335,2841.6724335,2844.631978,indoor,f,1.378357899999628,0.21633460000020932,2844.632087,2844.63213,None,,,,,,,,,,,,,,00031,001,2026-01-16_10h19.28.668,MST_task,2024.2.0,59.93410844118395,2026-01-16 10h21.13.689909 +0530,
,Objects\143a.jpg,140,0,141,,,,,j,1.2952916000003825,0.3276753000000099,None,,,,,,141,0,140,2844.6483301,,,,,,,,,,,,,,,,,,,,,,,2844.6323205,2844.6483301,2845.1324055,,,,,,,,,,,,2845.2520159,,,,,,,,2845.2491507,2845.2520159,2845.2520159,2845.2520159,2848.1483869,shoe,j,1.2952916000003825,0.3276753000000099,2848.1544264,2848.1544666,None,,,,,,,,,,,,,,00031,001,2026-01-16_10h19.28.668,MST_task,2024.2.0,59.93410844118395,2026-01-16 10h21.13.689909 +0530,
,Objects\239a.jpg,141,0,142,,,,,f,1.48663710000028,0.1914398999997502,None,,,,,,142,0,141,2848.1647264,,,,,,,,,,,,,,,,,,,,,,,2848.1546254,2848.1647264,2848.6493923,,,,,,,,,,,,2848.780648,,,,,,,,2848.7764248,2848.780648,2848.780648,2848.780648,2851.6652051,shoe,f,1.48663710000028,0.1914398999997502,2851.6653341,2851.6653804,None,,,,,,,,,,,,,,00031,001,2026-01-16_10h19.28.668,MST_task,2024.2.0,59.93410844118395,2026-01-16 10h21.13.689909 +0530,
,Objects\383a.jpg,142,0,143,,,,,f,1.5019925999999941,0.21579130000009172,None,,,,,,143,0,142,2851.6814666,,,,,,,,,,,,,,,,,,,,,,,2851.6656094,2851.6814666,2852.1657146,,,,,,,,,,,,2852.2215653,,,,,,,,2852.2184518,2852.2215653,2852.2215653,2852.2215653,2855.1815503,shoe,f,1.5019925999999941,0.21579130000009172,2855.1816805,2855.1817275,None,,,,,,,,,,,,,,00031,001,2026-01-16_10h19.28.668,MST_task,2024.2.0,59.93410844118395,2026-01-16 10h21.13.689909 +0530,
,Objects\002a.jpg,143,0,144,,,,,f,0.8739464000000225,0.17541429999982938,None,,,,,,144,0,143,2855.1980322,,,,,,,,,,,,,,,,,,,,,,,2855.1819453,2855.1980322,2855.6825493,,,,,,,,,,,,2855.7456598,,,,,,,,2855.7427489,2855.7456598,2855.7456598,2855.7456598,2858.6983426,shoe,f,0.8739464000000225,0.17541429999982938,2858.6984807999997,2858.6985305,None,,,,,,,,,,,,,,00031,001,2026-01-16_10h19.28.668,MST_task,2024.2.0,59.93410844118395,2026-01-16 10h21.13.689909 +0530,
,Objects\098a.jpg,144,0,145,,,,,f,1.0740574000001288,0.18279500000016924,None,,,,,,145,0,144,2858.7147924,,,,,,,,,,,,,,,,,,,,,,,2858.6989293,2858.7147924,2859.1989666,,,,,,,,,,,,2859.2498725,,,,,,,,2859.2472308,2859.2498725,2859.2498725,2859.2498725,2862.2149931999998,shoe,f,1.0740574000001288,0.18279500000016924,2862.2151613,2862.2152286,None,,,,,,,,,,,,,,00031,001,2026-01-16_10h19.28.668,MST_task,2024.2.0,59.93410844118395,2026-01-16 10h21.13.689909 +0530,
,Objects\357a.jpg,145,0,146,,,,,f,0.7018967999997585,0.20047220000014931,None,,,,,,146,0,145,2862.2314920999997,,,,,,,,,,,,,,,,,,,,,,,2862.2156503,2862.2314920999997,2862.7154666,,,,,,,,,,,,2862.7896613,,,,,,,,2862.7860839,2862.7896613,2862.7896613,2862.7896613,2865.7318691,shoe,f,0.7018967999997585,0.20047220000014931,2865.7320479,2865.7321100999998,None,,,,,,,,,,,,,,00031,001,2026-01-16_10h19.28.668,MST_task,2024.2.0,59.93410844118395,2026-01-16 10h21.13.689909 +0530,
,Objects\210a.jpg,146,0,147,,,,,f,0.6176033000001553,0.19185669999978927,None,,,,,,147,0,146,2865.7478952,,,,,,,,,,,,,,,,,,,,,,,2865.7322745,2865.7478952,2866.2325131,,,,,,,,,,,,2866.3461843,,,,,,,,2866.3423334999998,2866.3461843,2866.3461843,2866.3461843,2869.2484467,shoe,f,0.6176033000001553,0.19185669999978927,2869.2485708,2869.2486172,None,,,,,,,,,,,,,,00031,001,2026-01-16_10h19.28.668,MST_task,2024.2.0,59.93410844118395,2026-01-16 10h21.13.689909 +0530,
,Objects\302a.jpg,147,0,148,,,,,f,1.388646499999595,0.1667167000000518,None,,,,,,148,0,147,2869.2646879,,,,,,,,,,,,,,,,,,,,,,,2869.2488371,2869.2646879,2869.7489682,,,,,,,,,,,,2869.7992986,,,,,,,,2869.7960383,2869.7992986,2869.7992986,2869.7992986,2872.7651927,indoor,f,1.388646499999595,0.1667167000000518,2872.7699411,2872.7699945,None,,,,,,,,,,,,,,00031,001,2026-01-16_10h19.28.668,MST_task,2024.2.0,59.93410844118395,2026-01-16 10h21.13.689909 +0530,
,Objects\259a.jpg,148,0,149,,,,,None,,,f,0.0011088000001109322,None,,,,149,0,148,2872.7813134,,,,,,,,,,,,,,,,,,,,,,,2872.7701988999997,2872.7813134,2873.2656226,,,,,,,,,,,,2873.3288380999998,,,,,,,,2873.3256269,2873.3288380999998,2873.3288380999998,2873.3288380999998,2876.2821512,indoor,None,,,2876.2822717,2876.3013222,f,2876.2980827,2876.2980827,0.0011088000001109322,None,,,,,,,,,,00031,001,2026-01-16_10h19.28.668,MST_task,2024.2.0,59.93410844118395,2026-01-16 10h21.13.689909 +0530,
,Objects\364a.jpg,149,0,150,,,,,j,0.9740830000000642,0.19320090000019263,None,,,,,,150,0,149,2876.3148298,,,,,,,,,,,,,,,,,,,,,,,2876.3015843,2876.3148298,2876.7987121,,,,,,,,,,,,2876.8365452,,,,,,,,2876.8333978,2876.8365452,2876.8365452,2876.8365452,2879.8151812,indoor,j,0.9740830000000642,0.19320090000019263,2879.8153517,2879.8153966,None,,,,,,,,,,,,,,00031,001,2026-01-16_10h19.28.668,MST_task,2024.2.0,59.93410844118395,2026-01-16 10h21.13.689909 +0530,
,Objects\282a.jpg,150,0,151,,,,,f,1.1809261000003062,0.2089043999999376,None,,,,,,151,0,150,2879.8314914,,,,,,,,,,,,,,,,,,,,,,,2879.8155976,2879.8314914,2880.315781,,,,,,,,,,,,2880.3739113,,,,,,,,2880.3711807,2880.3739113,2880.3739113,2880.3739113,2883.3315782,indoor,f,1.1809261000003062,0.2089043999999376,2883.3317491,2883.3318166,None,,,,,,,,,,,,,,00031,001,2026-01-16_10h19.28.668,MST_task,2024.2.0,59.93410844118395,2026-01-16 10h21.13.689909 +0530,
,Objects\186a.jpg,151,0,152,,,,,f,0.8022865999996611,0.1762220000000525,None,,,,,,152,0,151,2883.3479534,,,,,,,,,,,,,,,,,,,,,,,2883.3320955,2883.3479534,2883.8321872,,,,,,,,,,,,2883.8888967,,,,,,,,2883.8859624,2883.8888967,2883.8888967,2883.8888967,2886.848566,indoor,f,0.8022865999996611,0.1762220000000525,2886.8486809,2886.8487219,None,,,,,,,,,,,,,,00031,001,2026-01-16_10h19.28.668,MST_task,2024.2.0,59.93410844118395,2026-01-16 10h21.13.689909 +0530,
,Objects\236a.jpg,152,0,153,,,,,j,1.3041422000001148,0.2789615000001504,None,,,,,,153,0,152,2886.8648562,,,,,,,,,,,,,,,,,,,,,,,2886.8489147,2886.8648562,2887.3490164,,,,,,,,,,,,2887.3795934,,,,,,,,2887.3767051,2887.3795934,2887.3795934,2887.3795934,2890.3651011,indoor,j,1.3041422000001148,0.2789615000001504,2890.3652256,2890.3652681,None,,,,,,,,,,,,,,00031,001,2026-01-16_10h19.28.668,MST_task,2024.2.0,59.93410844118395,2026-01-16 10h21.13.689909 +0530,
,Objects\303a.jpg,153,0,154,,,,,j,1.2147098999998889,0.16830540000000838,None,,,,,,154,0,153,2890.3812084,,,,,,,,,,,,,,,,,,,,,,,2890.3654831999997,2890.3812084,2890.8658678,,,,,,,,,,,,2890.9411126,,,,,,,,2890.9380851,2890.9411126,2890.9411126,2890.9411126,2893.8819812,indoor,j,1.2147098999998889,0.16830540000000838,2893.882162,2893.8822059,None,,,,,,,,,,,,,,00031,001,2026-01-16_10h19.28.668,MST_task,2024.2.0,59.93410844118395,2026-01-16 10h21.13.689909 +0530,
,Objects\261a.jpg,154,0,155,,,,,f,1.2377707999999075,0.14357849999987593,None,,,,,,155,0,154,2893.8982246,,,,,,,,,,,,,,,,,,,,,,,2893.8824132,2893.8982246,2894.3824128,,,,,,,,,,,,2894.4296145,,,,,,,,2894.4262568,2894.4296145,2894.4296145,2894.4296145,2897.3984272,shoe,f,1.2377707999999075,0.14357849999987593,2897.4043715,2897.404438,None,,,,,,,,,,,,,,00031,001,2026-01-16_10h19.28.668,MST_task,2024.2.0,59.93410844118395,2026-01-16 10h21.13.689909 +0530,
,Objects\164a.jpg,155,0,156,,,,,f,0.7616437000001497,0.15952519999973447,None,,,,,,156,0,155,2897.4146918,,,,,,,,,,,,,,,,,,,,,,,2897.4047067,2897.4146918,2897.8995778,,,,,,,,,,,,2897.9536901,,,,,,,,2897.9505872,2897.9536901,2897.9536901,2897.9536901,2900.9152285,shoe,f,0.7616437000001497,0.15952519999973447,2900.9153636,2900.9154135999997,None,,,,,,,,,,,,,,00031,001,2026-01-16_10h19.28.668,MST_task,2024.2.0,59.93410844118395,2026-01-16 10h21.13.689909 +0530,
,Objects\373a.jpg,156,0,157,,,,,j,0.8423912000007476,0.21566039999925124,None,,,,,,157,0,156,2900.9315396,,,,,,,,,,,,,,,,,,,,,,,2900.9157638999995,2900.9315396,2901.4158706,,,,,,,,,,,,2901.4648078,,,,,,,,2901.4615227000004,2901.4648078,2901.4648078,2901.4648078,2904.4318863,shoe,j,0.8423912000007476,0.21566039999925124,2904.4320742,2904.4321413,None,,,,,,,,,,,,,,00031,001,2026-01-16_10h19.28.668,MST_task,2024.2.0,59.93410844118395,2026-01-16 10h21.13.689909 +0530,
,Objects\257a.jpg,157,0,158,,,,,f,0.6547212999994372,0.1922896000005494,None,,,,,,158,0,157,2904.4480170999996,,,,,,,,,,,,,,,,,,,,,,,2904.4324676999995,2904.4480170999996,2904.9324066,,,,,,,,,,,,2904.9721356,,,,,,,,2904.9692353,2904.9721356,2904.9721356,2904.9721356,2907.9484191,shoe,f,0.6547212999994372,0.1922896000005494,2907.9485855000003,2907.9486448,None,,,,,,,,,,,,,,00031,001,2026-01-16_10h19.28.668,MST_task,2024.2.0,59.93410844118395,2026-01-16 10h21.13.689909 +0530,
,Objects\190a.jpg,158,0,159,,,,,f,0.7646909999994023,0.14484290000018518,None,,,,,,159,0,158,2907.9646309,,,,,,,,,,,,,,,,,,,,,,,2907.9489087,2907.9646309,2908.4487861,,,,,,,,,,,,2908.4784658999997,,,,,,,,2908.4758797000004,2908.4784658999997,2908.4784658999997,2908.4784658999997,2911.4651698,shoe,f,0.7646909999994023,0.14484290000018518,2911.4653324,2911.4653737999997,None,,,,,,,,,,,,,,00031,001,2026-01-16_10h19.28.668,MST_task,2024.2.0,59.93410844118395,2026-01-16 10h21.13.689909 +0530,
,Objects\281a.jpg,159,0,160,,,,,f,0.9051545000002079,0.167879499999799,None,,,,,,160,0,159,2911.4813932999996,,,,,,,,,,,,,,,,,,,,,,,2911.4655663000003,2911.4813932999996,2911.9656992,,,,,,,,,,,,2912.0096181,,,,,,,,2912.006443,2912.0096181,2912.0096181,2912.0096181,2914.9815083000003,shoe,f,0.9051545000002079,0.167879499999799,2914.9816266,2914.9816723000004,None,,,,,,,,,,,,,,00031,001,2026-01-16_10h19.28.668,MST_task,2024.2.0,59.93410844118395,2026-01-16 10h21.13.689909 +0530,
,Objects\173a.jpg,160,0,161,,,,,f,0.7144749999997657,0.190940600000431,None,,,,,,161,0,160,2914.9978155999997,,,,,,,,,,,,,,,,,,,,,,,2914.9818969999997,2914.9978155999997,2915.4825616,,,,,,,,,,,,2915.6012241999997,,,,,,,,2915.5979234999995,2915.6012241999997,2915.6012241999997,2915.6012241999997,2918.4986091,shoe,f,0.7144749999997657,0.190940600000431,2918.4987702999997,2918.4988090999996,None,,,,,,,,,,,,,,00031,001,2026-01-16_10h19.28.668,MST_task,2024.2.0,59.93410844118395,2026-01-16 10h21.13.689909 +0530,
,Objects\219a.jpg,161,0,162,,,,,f,1.3057560999995985,0.18446480000056908,None,,,,,,162,0,161,2918.5147829999996,,,,,,,,,,,,,,,,,,,,,,,2918.4990571,2918.5147829999996,2918.9991966999996,,,,,,,,,,,,2919.0498411,,,,,,,,2919.0469593,2919.0498411,2919.0498411,2919.0498411,2922.0152718,indoor,f,1.3057560999995985,0.18446480000056908,2922.0204642,2922.0205306999997,None,,,,,,,,,,,,,,00031,001,2026-01-16_10h19.28.668,MST_task,2024.2.0,59.93410844118395,2026-01-16 10h21.13.689909 +0530,
,Objects\185a.jpg,162,0,163,,,,,f,0.891577899999902,0.1842216000004555,None,,,,,,163,0,162,2922.0312818,,,,,,,,,,,,,,,,,,,,,,,2922.0207842,2922.0312818,2922.5158917999997,,,,,,,,,,,,2922.5836879,,,,,,,,2922.5808779,2922.5836879,2922.5836879,2922.5836879,2925.5317309,indoor,f,0.891577899999902,0.1842216000004555,2925.5319044999997,2925.5319653999995,None,,,,,,,,,,,,,,00031,001,2026-01-16_10h19.28.668,MST_task,2024.2.0,59.93410844118395,2026-01-16 10h21.13.689909 +0530,
,Objects\189a.jpg,163,0,164,,,,,f,1.7697730999998385,0.15115610000066226,None,,,,,,164,0,163,2925.5480282999997,,,,,,,,,,,,,,,,,,,,,,,2925.5322344999995,2925.5480282999997,2926.0324395,,,,,,,,,,,,2926.0899976,,,,,,,,2926.0871926,2926.0899976,2926.0899976,2926.0899976,2929.0483683,indoor,f,1.7697730999998385,0.15115610000066226,2929.0484807000003,2929.0485191999996,None,,,,,,,,,,,,,,00031,001,2026-01-16_10h19.28.668,MST_task,2024.2.0,59.93410844118395,2026-01-16 10h21.13.689909 +0530,
,Objects\197a.jpg,164,0,165,,,,,j,0.8910798999995677,0.24837230000048294,None,,,,,,165,0,164,2929.0646902999997,,,,,,,,,,,,,,,,,,,,,,,2929.0486989,2929.0646902999997,2929.5491331000003,,,,,,,,,,,,2929.7044128999996,,,,,,,,2929.7013810999997,2929.7044128999996,2929.7044128999996,2929.7044128999996,2932.5651307999997,indoor,j,0.8910798999995677,0.24837230000048294,2932.5653278,2932.5653955999996,None,,,,,,,,,,,,,,00031,001,2026-01-16_10h19.28.668,MST_task,2024.2.0,59.93410844118395,2026-01-16 10h21.13.689909 +0530,
,Objects\268a.jpg,165,0,166,,,,,f,0.6554407000003266,0.15202299999964453,None,,,,,,166,0,165,2932.5815015,,,,,,,,,,,,,,,,,,,,,,,2932.5656698000003,2932.5815015,2933.0658716,,,,,,,,,,,,2933.1794766000003,,,,,,,,2933.1762071000003,2933.1794766000003,2933.1794766000003,2933.1794766000003,2936.0815311999995,indoor,f,0.6554407000003266,0.15202299999964453,2936.0815902000004,2936.0816071,None,,,,,,,,,,,,,,00031,001,2026-01-16_10h19.28.668,MST_task,2024.2.0,59.93410844118395,2026-01-16 10h21.13.689909 +0530,
,Objects\065a.jpg,166,0,167,,,,,f,1.414067700000487,0.1676817999996274,None,,,,,,167,0,166,2936.0980122,,,,,,,,,,,,,,,,,,,,,,,2936.0816969999996,2936.0980122,2936.5824936999998,,,,,,,,,,,,2936.6213913,,,,,,,,2936.6179768,2936.6213913,2936.6213913,2936.6213913,2939.5984079,indoor,f,1.414067700000487,0.1676817999996274,2939.5985726999997,2939.5986242999998,None,,,,,,,,,,,,,,00031,001,2026-01-16_10h19.28.668,MST_task,2024.2.0,59.93410844118395,2026-01-16 10h21.13.689909 +0530,
,Objects\205a.jpg,167,0,168,,,,,f,0.8271625000006679,0.12821049999911338,None,,,,,,168,0,167,2939.6146304000004,,,,,,,,,,,,,,,,,,,,,,,2939.5988578999995,2939.6146304000004,2940.0993674,,,,,,,,,,,,2940.2002136,,,,,,,,2940.197561,2940.2002136,2940.2002136,2940.2002136,2943.1152147000003,indoor,f,0.8271625000006679,0.12821049999911338,2943.1153684,2943.1154398999997,None,,,,,,,,,,,,,,00031,001,2026-01-16_10h19.28.668,MST_task,2024.2.0,59.93410844118395,2026-01-16 10h21.13.689909 +0530,
,Objects\200a.jpg,168,0,169,,,,,j,1.331868299999769,0.24047590000009222,None,,,,,,169,0,168,2943.1313043,,,,,,,,,,,,,,,,,,,,,,,2943.1156604999996,2943.1313043,2943.6157731000003,,,,,,,,,,,,2943.6552759999995,,,,,,,,2943.6524232,2943.6552759999995,2943.6552759999995,2943.6552759999995,2946.6318085000003,shoe,j,1.331868299999769,0.24047590000009222,2946.6360461000004,2946.6360794,None,,,,,,,,,,,,,,00031,001,2026-01-16_10h19.28.668,MST_task,2024.2.0,59.93410844118395,2026-01-16 10h21.13.689909 +0530,
,Objects\034a.jpg,169,0,170,,,,,f,0.6990291000001889,0.17580910000015137,None,,,,,,170,0,169,2946.6479520000003,,,,,,,,,,,,,,,,,,,,,,,2946.6362069999996,2946.6479520000003,2947.1325853999997,,,,,,,,,,,,2947.1678672,,,,,,,,2947.1649744999995,2947.1678672,2947.1678672,2947.1678672,2950.1483417,shoe,f,0.6990291000001889,0.17580910000015137,2950.1484720999997,2950.1485015999997,None,,,,,,,,,,,,,,00031,001,2026-01-16_10h19.28.668,MST_task,2024.2.0,59.93410844118395,2026-01-16 10h21.13.689909 +0530,
,Objects\146a.jpg,170,0,171,,,,,f,0.808274099999835,0.16811990000041988,None,,,,,,171,0,170,2950.1646660999995,,,,,,,,,,,,,,,,,,,,,,,2950.1487041,2950.1646660999995,2950.649233,,,,,,,,,,,,2950.7065967999997,,,,,,,,2950.7025195999995,2950.7065967999997,2950.7065967999997,2950.7065967999997,2953.6648901,shoe,f,0.808274099999835,0.16811990000041988,2953.6650012,2953.6650374,None,,,,,,,,,,,,,,00031,001,2026-01-16_10h19.28.668,MST_task,2024.2.0,59.93410844118395,2026-01-16 10h21.13.689909 +0530,
,Objects\370a.jpg,171,0,172,,,,,f,0.7848661999996693,0.2081318000000465,None,,,,,,172,0,171,2953.6823293999996,,,,,,,,,,,,,,,,,,,,,,,2953.6652095,2953.6823293999996,2954.1823999,,,,,,,,,,,,,,,,,,,,2954.2395553999995,2954.2427552999998,2954.2427552999998,2954.2427552999998,2957.1816793999997,shoe,f,0.7848661999996693,0.2081318000000465,2957.1818842000002,2957.1819433,None,,,,,,,,,,,,,,00031,001,2026-01-16_10h19.28.668,MST_task,2024.2.0,59.93410844118395,2026-01-16 10h21.13.689909 +0530,
,Objects\172a.jpg,172,0,173,,,,,j,0.7181699000002482,0.23206850000042323,None,,,,,,173,0,172,2957.1980008,,,,,,,,,,,,,,,,,,,,,,,2957.1821945,2957.1980008,2957.6824361999998,,,,,,,,,,,,2957.7644228999998,,,,,,,,2957.7608597,2957.7644228999998,2957.7644228999998,2957.7644228999998,2960.698466,shoe,j,0.7181699000002482,0.23206850000042323,2960.6986048,2960.698654,None,,,,,,,,,,,,,,00031,001,2026-01-16_10h19.28.668,MST_task,2024.2.0,59.93410844118395,2026-01-16 10h21.13.689909 +0530,
,Objects\209a.jpg,173,0,174,,,,,f,0.826542700000573,0.19120399999974325,None,,,,,,174,0,173,2960.7146595000004,,,,,,,,,,,,,,,,,,,,,,,2960.6990063000003,2960.7146595000004,2961.1995601999997,,,,,,,,,,,,2961.2489908,,,,,,,,2961.2462247000003,2961.2489908,2961.2489908,2961.2489908,2964.2151891000003,shoe,f,0.826542700000573,0.19120399999974325,2964.2153725999997,2964.2154339999997,None,,,,,,,,,,,,,,00031,001,2026-01-16_10h19.28.668,MST_task,2024.2.0,59.93410844118395,2026-01-16 10h21.13.689909 +0530,
,Objects\355a.jpg,174,0,175,,,,,f,0.5370962999995754,0.16862399999990885,None,,,,,,175,0,174,2964.2313514999996,,,,,,,,,,,,,,,,,,,,,,,2964.215714,2964.2313514999996,2964.7157927999997,,,,,,,,,,,,2964.7533544,,,,,,,,2964.7508048,2964.7533544,2964.7533544,2964.7533544,2967.7317483999996,shoe,f,0.5370962999995754,0.16862399999990885,2967.7318787000004,2967.7319254000004,None,,,,,,,,,,,,,,00031,001,2026-01-16_10h19.28.668,MST_task,2024.2.0,59.93410844118395,2026-01-16 10h21.13.689909 +0530,
,Objects\063a.jpg,175,0,176,,,,,f,0.4931011999997281,0.1921106999998301,None,,,,,,176,0,175,2967.7480871999996,,,,,,,,,,,,,,,,,,,,,,,2967.7321344,2967.7480871999996,2968.2325215,,,,,,,,,,,,2968.2942575999996,,,,,,,,2968.2913421000003,2968.2942575999996,2968.2942575999996,2968.2942575999996,2971.2484756000003,indoor,f,0.4931011999997281,0.1921106999998301,2971.2524670000003,2971.2525072999997,None,,,,,,,,,,,,,,00031,001,2026-01-16_10h19.28.668,MST_task,2024.2.0,59.93410844118395,2026-01-16 10h21.13.689909 +0530,
,Objects\092a.jpg,176,0,177,,,,,f,0.6453801000006933,0.16709399999945163,None,,,,,,177,0,176,2971.2646707000004,,,,,,,,,,,,,,,,,,,,,,,2971.2526685000003,2971.2646707000004,2971.7489567000002,,,,,,,,,,,,2971.8462121000002,,,,,,,,2971.8431924999995,2971.8462121000002,2971.8462121000002,2971.8462121000002,2974.7651226999997,indoor,f,0.6453801000006933,0.16709399999945163,2974.7652809,2974.7653268000004,None,,,,,,,,,,,,,,00031,001,2026-01-16_10h19.28.668,MST_task,2024.2.0,59.93410844118395,2026-01-16 10h21.13.689909 +0530,
,Objects\142a.jpg,177,0,178,,,,,f,0.7317446999995809,0.1921038000000408,None,,,,,,178,0,177,2974.7814488000004,,,,,,,,,,,,,,,,,,,,,,,2974.7655426,2974.7814488000004,2975.2653727999996,,,,,,,,,,,,2975.3750434000003,,,,,,,,2975.3716560000003,2975.3750434000003,2975.3750434000003,2975.3750434000003,2978.2818181000002,indoor,f,0.7317446999995809,0.1921038000000408,2978.2819896,2978.282056,None,,,,,,,,,,,,,,00031,001,2026-01-16_10h19.28.668,MST_task,2024.2.0,59.93410844118395,2026-01-16 10h21.13.689909 +0530,
,Objects\181a.jpg,178,0,179,,,,,j,1.1055183999997098,0.19190450000041892,None,,,,,,179,0,178,2978.2980755,,,,,,,,,,,,,,,,,,,,,,,2978.2822868000003,2978.2980755,2978.7821089999998,,,,,,,,,,,,2978.8256506,,,,,,,,2978.8225553,2978.8256506,2978.8256506,2978.8256506,2981.7985314,indoor,j,1.1055183999997098,0.19190450000041892,2981.7986649000004,2981.7987176999995,None,,,,,,,,,,,,,,00031,001,2026-01-16_10h19.28.668,MST_task,2024.2.0,59.93410844118395,2026-01-16 10h21.13.689909 +0530,
,Objects\095a.jpg,179,0,180,,,,,f,0.6066838999995525,0.1529166999998779,None,,,,,,180,0,179,2981.8147676999997,,,,,,,,,,,,,,,,,,,,,,,2981.7989365000003,2981.8147676999997,2982.299035,,,,,,,,,,,,2982.3642916999997,,,,,,,,2982.3616531,2982.3642916999997,2982.3642916999997,2982.3642916999997,2985.3151611000003,indoor,f,0.6066838999995525,0.1529166999998779,2985.3152923999996,2985.3153399000003,None,,,,,,,,,,,,,,00031,001,2026-01-16_10h19.28.668,MST_task,2024.2.0,59.93410844118395,2026-01-16 10h21.13.689909 +0530,
,Objects\135a.jpg,180,0,181,,,,,f,1.2532830000000104,0.16023669999958656,None,,,,,,181,0,180,2985.3315263000004,,,,,,,,,,,,,,,,,,,,,,,2985.3155513,2985.3315263000004,2985.8157389999997,,,,,,,,,,,,2985.8540309,,,,,,,,2985.8511157000003,2985.8540309,2985.8540309,2985.8540309,2988.8319217,indoor,f,1.2532830000000104,0.16023669999958656,2988.832098,2988.8321653000003,None,,,,,,,,,,,,,,00031,001,2026-01-16_10h19.28.668,MST_task,2024.2.0,59.93410844118395,2026-01-16 10h21.13.689909 +0530,
,Objects\175a.jpg,181,0,182,,,,,f,1.2018404000000373,0.18406770000001416,None,,,,,,182,0,181,2988.8480749,,,,,,,,,,,,,,,,,,,,,,,2988.8324672999997,2988.8480749,2989.3325328,,,,,,,,,,,,2989.3846470999997,,,,,,,,2989.3821565999997,2989.3846470999997,2989.3846470999997,2989.3846470999997,2992.3486966,indoor,f,1.2018404000000373,0.18406770000001416,2992.3488832000003,2992.3489702999996,None,,,,,,,,,,,,,,00031,001,2026-01-16_10h19.28.668,MST_task,2024.2.0,59.93410844118395,2026-01-16 10h21.13.689909 +0530,
,Objects\103a.jpg,182,0,183,,,,,j,1.1931577000004836,0.21531319999940024,None,,,,,,183,0,182,2992.3645897999995,,,,,,,,,,,,,,,,,,,,,,,2992.3491794,2992.3645897999995,2992.8489332999998,,,,,,,,,,,,2992.8986053999997,,,,,,,,2992.8957712,2992.8986053999997,2992.8986053999997,2992.8986053999997,2995.8655013,shoe,j,1.1931577000004836,0.21531319999940024,2995.8692909,2995.8693215000003,None,,,,,,,,,,,,,,00031,001,2026-01-16_10h19.28.668,MST_task,2024.2.0,59.93410844118395,2026-01-16 10h21.13.689909 +0530,
,Objects\035a.jpg,183,0,184,,,,,f,1.2711983999997756,0.15157690000069124,None,,,,,,184,0,183,2995.8814512999998,,,,,,,,,,,,,,,,,,,,,,,2995.8694914999996,2995.8814512999998,2996.3656168999996,,,,,,,,,,,,2996.4598691,,,,,,,,2996.4559548999996,2996.4598691,2996.4598691,2996.4598691,2999.3817608,shoe,f,1.2711983999997756,0.15157690000069124,2999.3820059,2999.3820693999996,None,,,,,,,,,,,,,,00031,001,2026-01-16_10h19.28.668,MST_task,2024.2.0,59.93410844118395,2026-01-16 10h21.13.689909 +0530,
,Objects\307a.jpg,184,0,185,,,,,j,1.7164225999995324,0.16762530000050901,None,,,,,,185,0,184,2999.3979939,,,,,,,,,,,,,,,,,,,,,,,2999.3823561,2999.3979939,2999.8817455,,,,,,,,,,,,3000.1909201,,,,,,,,3000.1878450000004,3000.1909201,3000.1909201,3000.1909201,3002.8987546,shoe,j,1.7164225999995324,0.16762530000050901,3002.8989426,3002.8990115999995,None,,,,,,,,,,,,,,00031,001,2026-01-16_10h19.28.668,MST_task,2024.2.0,59.93410844118395,2026-01-16 10h21.13.689909 +0530,
,Objects\266a.jpg,185,0,186,,,,,j,0.9690725999998904,0.1914559000006193,None,,,,,,186,0,185,3002.9145528999998,,,,,,,,,,,,,,,,,,,,,,,3002.8993196,3002.9145528999998,3003.3991562,,,,,,,,,,,,3003.4661521999997,,,,,,,,3003.4627355000002,3003.4661521999997,3003.4661521999997,3003.4661521999997,3006.4152698,shoe,j,0.9690725999998904,0.1914559000006193,3006.4154134,3006.4154670999997,None,,,,,,,,,,,,,,00031,001,2026-01-16_10h19.28.668,MST_task,2024.2.0,59.93410844118395,2026-01-16 10h21.13.689909 +0530,
,Objects\029a.jpg,186,0,187,,,,,f,0.8045498999999836,0.176945600000181,None,,,,,,187,0,186,3006.4314734,,,,,,,,,,,,,,,,,,,,,,,3006.4157125,3006.4314734,3006.9157176999997,,,,,,,,,,,,3006.9581940999997,,,,,,,,3006.9555026,3006.9581940999997,3006.9581940999997,3006.9581940999997,3009.9318680999995,shoe,f,0.8045498999999836,0.176945600000181,3009.9320400999995,3009.9320811,None,,,,,,,,,,,,,,00031,001,2026-01-16_10h19.28.668,MST_task,2024.2.0,59.93410844118395,2026-01-16 10h21.13.689909 +0530,
,Objects\011a.jpg,187,0,188,,,,,j,1.539565500000208,0.18413650000002235,None,,,,,,188,0,187,3009.9479695,,,,,,,,,,,,,,,,,,,,,,,3009.9323433,3009.9479695,3010.4323968,,,,,,,,,,,,3010.4795402,,,,,,,,3010.4771338,3010.4795402,3010.4795402,3010.4795402,3013.448389,shoe,j,1.539565500000208,0.18413650000002235,3013.4485035999996,3013.4485459999996,None,,,,,,,,,,,,,,00031,001,2026-01-16_10h19.28.668,MST_task,2024.2.0,59.93410844118395,2026-01-16 10h21.13.689909 +0530,
,Objects\040a.jpg,188,0,189,,,,,j,1.460217200000443,0.1760285999998814,None,,,,,,189,0,188,3013.4647542000002,,,,,,,,,,,,,,,,,,,,,,,3013.4487436,3013.4647542000002,3013.9489207999995,,,,,,,,,,,,3013.9827724999996,,,,,,,,3013.9800266,3013.9827724999996,3013.9827724999996,3013.9827724999996,3016.9650936999997,shoe,j,1.460217200000443,0.1760285999998814,3016.9652144,3016.9652569,None,,,,,,,,,,,,,,00031,001,2026-01-16_10h19.28.668,MST_task,2024.2.0,59.93410844118395,2026-01-16 10h21.13.689909 +0530,
,Objects\348a.jpg,189,0,190,,,,,j,2.1769054999995205,0.19088290000036068,None,,,,,,190,0,189,3016.9813256999996,,,,,,,,,,,,,,,,,,,,,,,3016.9654542,3016.9813256999996,3017.4660937,,,,,,,,,,,,3017.5146863,,,,,,,,3017.5113371999996,3017.5146863,3017.5146863,3017.5146863,3020.481965,indoor,j,2.1769054999995205,0.19088290000036068,3020.4857245000003,3020.4857567999998,None,,,,,,,,,,,,,,00031,001,2026-01-16_10h19.28.668,MST_task,2024.2.0,59.93410844118395,2026-01-16 10h21.13.689909 +0530,
,Objects\038a.jpg,190,0,191,,,,,f,1.165806999999404,0.19182220000038797,None,,,,,,191,0,190,3020.4980002,,,,,,,,,,,,,,,,,,,,,,,3020.4858796999997,3020.4980002,3020.9824107000004,,,,,,,,,,,,3021.0213875,,,,,,,,3021.0179986000003,3021.0213875,3021.0213875,3021.0213875,3023.9985839,indoor,f,1.165806999999404,0.19182220000038797,3023.9986694,3023.9986863000004,None,,,,,,,,,,,,,,00031,001,2026-01-16_10h19.28.668,MST_task,2024.2.0,59.93410844118395,2026-01-16 10h21.13.689909 +0530,
,Objects\316a.jpg,191,0,192,,,,,f,1.5604045000000042,0.15197729999999865,None,,,,,,192,0,191,3024.0145536,,,,,,,,,,,,,,,,,,,,,,,3023.9987751,3024.0145536,3024.4990749,,,,,,,,,,,,3024.6114387999996,,,,,,,,3024.6082133,3024.6114387999996,3024.6114387999996,3024.6114387999996,3027.5151109999997,indoor,f,1.5604045000000042,0.15197729999999865,3027.5152227999997,3027.515262,None,,,,,,,,,,,,,,00031,001,2026-01-16_10h19.28.668,MST_task,2024.2.0,59.93410844118395,2026-01-16 10h21.13.689909 +0530,
,Objects\245a.jpg,192,0,193,,,,,j,2.470490300000165,0.1608234999994238,None,,,,,,193,0,192,3027.5312163999997,,,,,,,,,,,,,,,,,,,,,,,3027.5154427999996,3027.5312163999997,3028.0156504999995,,,,,,,,,,,,3028.0523599,,,,,,,,3028.0490915,3028.0523599,3028.0523599,3028.0523599,3031.0321603,indoor,j,2.470490300000165,0.1608234999994238,3031.0322644,3031.0323022000002,None,,,,,,,,,,,,,,00031,001,2026-01-16_10h19.28.668,MST_task,2024.2.0,59.93410844118395,2026-01-16 10h21.13.689909 +0530,
,Objects\127a.jpg,193,0,194,,,,,f,0.7728520999999091,0.15063480000026175,None,,,,,,194,0,193,3031.0480072,,,,,,,,,,,,,,,,,,,,,,,3031.0324791000003,3031.0480072,3031.5323108000002,,,,,,,,,,,,3031.5911994,,,,,,,,3031.5883440999996,3031.5911994,3031.5911994,3031.5911994,3034.5483164999996,indoor,f,0.7728520999999091,0.15063480000026175,3034.5484909999996,3034.5485594,None,,,,,,,,,,,,,,00031,001,2026-01-16_10h19.28.668,MST_task,2024.2.0,59.93410844118395,2026-01-16 10h21.13.689909 +0530,
,Objects\322a.jpg,194,0,195,,,,,j,0.9448918999996749,0.1844130999998015,None,,,,,,195,0,194,3034.5647577,,,,,,,,,,,,,,,,,,,,,,,3034.5488742,3034.5647577,3035.0493367999998,,,,,,,,,,,,3035.0984728000003,,,,,,,,3035.0949971,3035.0984728000003,3035.0984728000003,3035.0984728000003,3038.0653141000003,indoor,j,0.9448918999996749,0.1844130999998015,3038.0654243999998,3038.0654637999996,None,,,,,,,,,,,,,,00031,001,2026-01-16_10h19.28.668,MST_task,2024.2.0,59.93410844118395,2026-01-16 10h21.13.689909 +0530,
,Objects\073a.jpg,195,0,196,,,,,f,1.2153783000003386,0.16791669999929582,None,,,,,,196,0,195,3038.0815132,,,,,,,,,,,,,,,,,,,,,,,3038.0656468999996,3038.0815132,3038.5656006,,,,,,,,,,,,3038.6113450000003,,,,,,,,3038.6078577999997,3038.6113450000003,3038.6113450000003,3038.6113450000003,3041.5817159,indoor,f,1.2153783000003386,0.16791669999929582,3041.5818767,3041.5819362,None,,,,,,,,,,,,,,00031,001,2026-01-16_10h19.28.668,MST_task,2024.2.0,59.93410844118395,2026-01-16 10h21.13.689909 +0530,
,Objects\368a.jpg,196,0,197,,,,,f,1.727304699999877,0.17631820000042353,None,,,,,,197,0,196,3041.5980603,,,,,,,,,,,,,,,,,,,,,,,3041.5821961,3041.5980603,3042.0826465,,,,,,,,,,,,3042.1554233999996,,,,,,,,3042.1524442,3042.1554233999996,3042.1554233999996,3042.1554233999996,3045.0983978000004,shoe,f,1.727304699999877,0.17631820000042353,3045.1026395999997,3045.1026752,None,,,,,,,,,,,,,,00031,001,2026-01-16_10h19.28.668,MST_task,2024.2.0,59.93410844118395,2026-01-16 10h21.13.689909 +0530,
,Objects\017a.jpg,197,0,198,,,,,f,1.561578400000144,0.1441314000003331,None,,,,,,198,0,197,3045.1146888000003,,,,,,,,,,,,,,,,,,,,,,,3045.1028235000003,3045.1146888000003,3045.5988945,,,,,,,,,,,,3045.6331436,,,,,,,,3045.6302534999995,3045.6331436,3045.6331436,3045.6331436,3048.6149333000003,shoe,f,1.561578400000144,0.1441314000003331,3048.6150281,3048.6150629000003,None,,,,,,,,,,,,,,00031,001,2026-01-16_10h19.28.668,MST_task,2024.2.0,59.93410844118395,2026-01-16 10h21.13.689909 +0530,
