thisN,thisTrialN,thisRepN,key_resp_3.keys,key_resp_3.rt,key_resp_3.duration,trials.thisRepN,trials.thisTrialN,trials.thisN,thisRow.t,notes,intro_page.started,text.started,key_resp.started,intro_page.stopped,key_resp.keys,key_resp.rt,key_resp.duration,instructions.started,text_2.started,key_resp_2.started,instructions.stopped,key_resp_2.keys,key_resp_2.rt,key_resp_2.duration,demo1.started,image_1.started,image_2.started,text_7.started,key_resp_6.started,text_9.started,demo1.stopped,key_resp_6.keys,key_resp_6.rt,key_resp_6.duration,demo3.started,image_5.started,image_6.started,text_11.started,text_12.started,key_resp_8.started,demo3.stopped,key_resp_8.keys,key_resp_8.rt,key_resp_8.duration,demo_conclusion.started,text_13.started,key_resp_9.started,demo_conclusion.stopped,key_resp_9.keys,key_resp_9.rt,key_resp_9.duration,start_test.started,text_6.started,key_resp_5.started,start_test.stopped,key_resp_5.keys,key_resp_5.rt,key_resp_5.duration,ISI.started,text_4.started,text_4.stopped,ISI.stopped,routine_1.started,image.started,text_3.started,key_resp_3.started,routine_1.stopped,image_path,position_of_stimuli,trials.key_resp_3.keys,trials.key_resp_3.rt,trials.key_resp_3.duration,End_page.started,text_5.started,key_resp_4.started,End_page.stopped,key_resp_4.keys,key_resp_4.rt,key_resp_4.duration,participant,session,date,expName,psychopyVersion,frameRate,expStart,
,,,,,,,,,,,0.0015661999996154918,0.004679099999520986,0.004679099999520986,2.839336199999707,space,2.8268748999998934,None,,,,,,,,,,,,,,,,,,,,,,,,,,,,,,,,,,,,,,,,,,,,,,,,,,,,,,,,,,,,,,,00031,001,2026-01-16_11h24.31.717,MST_test,2024.2.0,59.88282129524764,2026-01-16 11h24.55.100825 +0530,
,,,,,,,,,,,,,,,,,,2.8394178999997166,2.857508600000074,2.857508600000074,9.532944200000202,space,6.668972100000246,None,,,,,,,,,,,,,,,,,,,,,,,,,,,,,,,,,,,,,,,,,,,,,,,,,,,,,,,,00031,001,2026-01-16_11h24.31.717,MST_test,2024.2.0,59.88282129524764,2026-01-16 11h24.55.100825 +0530,
,,,,,,,,,,,,,,,,,,,,,,,,,9.533032499999536,9.571185400000104,9.571185400000104,9.571185400000104,9.571185400000104,9.571185400000104,12.517091499999879,space,2.9317408999995678,None,,,,,,,,,,,,,,,,,,,,,,,,,,,,,,,,,,,,,,,,,,,,,,00031,001,2026-01-16_11h24.31.717,MST_test,2024.2.0,59.88282129524764,2026-01-16 11h24.55.100825 +0530,
,,,,,,,,,,,,,,,,,,,,,,,,,,,,,,,,,,,12.517184700000143,12.532237700000223,12.532237700000223,12.532237700000223,12.532237700000223,12.532237700000223,13.851246700000047,space,1.3072729000004983,None,,,,,,,,,,,,,,,,,,,,,,,,,,,,,,,,,,,,00031,001,2026-01-16_11h24.31.717,MST_test,2024.2.0,59.88282129524764,2026-01-16 11h24.55.100825 +0530,
,,,,,,,,,,,,,,,,,,,,,,,,,,,,,,,,,,,,,,,,,,,,,13.851367899999786,13.865409999999429,13.865409999999429,20.600562900000114,space,6.7176251999999295,None,,,,,,,,,,,,,,,,,,,,,,,,,,,,,00031,001,2026-01-16_11h24.31.717,MST_test,2024.2.0,59.88282129524764,2026-01-16 11h24.55.100825 +0530,
,,,,,,,,,,,,,,,,,,,,,,,,,,,,,,,,,,,,,,,,,,,,,,,,,,,,20.600716699999793,31.870559799999683,31.870559799999683,65.01681959999951,space,33.136360700000296,None,,,,,,,,,,,,,,,,,,,,,,00031,001,2026-01-16_11h24.31.717,MST_test,2024.2.0,59.88282129524764,2026-01-16 11h24.55.100825 +0530,
0,0,1,s,2.154594499999803,None,1,0,0,65.03266460000032,,,,,,,,,,,,,,,,,,,,,,,,,,,,,,,,,,,,,,,,,,,,,,,,,,65.02313030000005,65.03266460000032,65.74909759999991,65.51621929999965,65.74647060000007,65.74909759999991,65.74909759999991,65.74909759999991,67.91737019999982,Objects\324b.jpg,post,s,2.154594499999803,None,,,,,,,,00031,001,2026-01-16_11h24.31.717,MST_test,2024.2.0,59.88282129524764,2026-01-16 11h24.55.100825 +0530,
1,0,2,s,1.6865097999998397,None,2,0,1,67.93188219999956,,,,,,,,,,,,,,,,,,,,,,,,,,,,,,,,,,,,,,,,,,,,,,,,,,67.91777209999964,67.93188219999956,68.47262679999949,68.41638869999952,68.46975459999976,68.47262679999949,68.47262679999949,68.47262679999949,70.16698499999984,Objects\357b.jpg,mid,s,1.6865097999998397,None,,,,,,,,00031,001,2026-01-16_11h24.31.717,MST_test,2024.2.0,59.88282129524764,2026-01-16 11h24.55.100825 +0530,
2,0,3,n,3.3698276000004626,None,3,0,2,70.1818704999996,,,,,,,,,,,,,,,,,,,,,,,,,,,,,,,,,,,,,,,,,,,,,,,,,,70.1672467999997,70.1818704999996,70.72456309999961,70.6665766999995,70.72181900000032,70.72456309999961,70.72456309999961,70.72456309999961,74.09954769999968,Objects\251a.jpg,post,n,3.3698276000004626,None,,,,,,,,00031,001,2026-01-16_11h24.31.717,MST_test,2024.2.0,59.88282129524764,2026-01-16 11h24.55.100825 +0530,
3,0,4,n,1.4565141000002768,None,4,0,3,74.11540640000021,,,,,,,,,,,,,,,,,,,,,,,,,,,,,,,,,,,,,,,,,,,,,,,,,,74.09965850000026,74.11540640000021,74.82338729999992,74.59945020000032,74.82059389999995,74.82338729999992,74.82338729999992,74.82338729999992,76.28377529999943,Foils\009a.jpg,none,n,1.4565141000002768,None,,,,,,,,00031,001,2026-01-16_11h24.31.717,MST_test,2024.2.0,59.88282129524764,2026-01-16 11h24.55.100825 +0530,
4,0,5,o,2.423767699999189,None,5,0,4,76.29864540000017,,,,,,,,,,,,,,,,,,,,,,,,,,,,,,,,,,,,,,,,,,,,,,,,,,76.28411849999975,76.29864540000017,76.79908429999978,76.7829114999995,76.79039360000024,76.79908429999978,76.79908429999978,76.79908429999978,79.23321459999988,Objects\249a.jpg,mid,o,2.423767699999189,None,,,,,,,,00031,001,2026-01-16_11h24.31.717,MST_test,2024.2.0,59.88282129524764,2026-01-16 11h24.55.100825 +0530,
5,0,6,o,0.9452648000005865,None,6,0,5,79.24834540000029,,,,,,,,,,,,,,,,,,,,,,,,,,,,,,,,,,,,,,,,,,,,,,,,,,79.23351600000024,79.24834540000029,79.74992209999982,79.73227739999948,79.73909000000003,79.74992209999982,79.74992209999982,79.74992209999982,80.69946110000001,Objects\109a.jpg,mid,o,0.9452648000005865,None,,,,,,,,00031,001,2026-01-16_11h24.31.717,MST_test,2024.2.0,59.88282129524764,2026-01-16 11h24.55.100825 +0530,
6,0,7,o,0.9378204999993613,None,7,0,6,80.7150058999996,,,,,,,,,,,,,,,,,,,,,,,,,,,,,,,,,,,,,,,,,,,,,,,,,,80.69977130000007,80.7150058999996,81.23770109999987,81.19867059999979,81.23530349999965,81.23770109999987,81.23770109999987,81.23770109999987,82.18333629999961,Foils\057a.jpg,none,o,0.9378204999993613,None,,,,,,,,00031,001,2026-01-16_11h24.31.717,MST_test,2024.2.0,59.88282129524764,2026-01-16 11h24.55.100825 +0530,
7,0,8,o,0.8194134999994276,None,8,0,7,82.19834780000019,,,,,,,,,,,,,,,,,,,,,,,,,,,,,,,,,,,,,,,,,,,,,,,,,,82.18357839999953,82.19834780000019,82.69887519999975,82.68247150000025,82.69579879999947,82.69887519999975,82.69887519999975,82.69887519999975,83.5324598999996,Objects\144a.jpg,post,o,0.8194134999994276,None,,,,,,,,00031,001,2026-01-16_11h24.31.717,MST_test,2024.2.0,59.88282129524764,2026-01-16 11h24.55.100825 +0530,
8,0,9,s,1.6369732000002841,None,9,0,8,83.54829079999945,,,,,,,,,,,,,,,,,,,,,,,,,,,,,,,,,,,,,,,,,,,,,,,,,,83.53259720000005,83.54829079999945,84.07377540000016,84.03275969999959,84.07101520000015,84.07377540000016,84.07377540000016,84.07377540000016,85.71725139999944,Objects\180b.jpg,post,s,1.6369732000002841,None,,,,,,,,00031,001,2026-01-16_11h24.31.717,MST_test,2024.2.0,59.88282129524764,2026-01-16 11h24.55.100825 +0530,
9,0,10,s,1.7205678999998781,None,10,0,9,85.73195750000014,,,,,,,,,,,,,,,,,,,,,,,,,,,,,,,,,,,,,,,,,,,,,,,,,,85.71766529999968,85.73195750000014,86.26268110000001,86.21639839999989,86.25984890000018,86.26268110000001,86.26268110000001,86.26268110000001,88.00060029999986,Foils\018a.jpg,none,s,1.7205678999998781,None,,,,,,,,00031,001,2026-01-16_11h24.31.717,MST_test,2024.2.0,59.88282129524764,2026-01-16 11h24.55.100825 +0530,
10,0,11,o,3.6076286000006803,None,11,0,10,88.01526139999987,,,,,,,,,,,,,,,,,,,,,,,,,,,,,,,,,,,,,,,,,,,,,,,,,,88.00087809999968,88.01526139999987,88.55965749999996,88.49969239999973,88.5570074999996,88.55965749999996,88.55965749999996,88.55965749999996,92.18383360000007,Objects\037b.jpg,mid,o,3.6076286000006803,None,,,,,,,,00031,001,2026-01-16_11h24.31.717,MST_test,2024.2.0,59.88282129524764,2026-01-16 11h24.55.100825 +0530,
11,0,12,o,2.4209801000006337,None,12,0,11,92.19853979999971,,,,,,,,,,,,,,,,,,,,,,,,,,,,,,,,,,,,,,,,,,,,,,,,,,92.18414630000007,92.19853979999971,112.94639509999979,92.6834401999995,112.94134089999989,112.94639509999979,112.94639509999979,112.94639509999979,115.38365169999997,Objects\339a.jpg,mid,o,2.4209801000006337,None,,,,,,,,00031,001,2026-01-16_11h24.31.717,MST_test,2024.2.0,59.88282129524764,2026-01-16 11h24.55.100825 +0530,
12,0,13,o,2.2806489999993573,None,13,0,12,115.39859890000025,,,,,,,,,,,,,,,,,,,,,,,,,,,,,,,,,,,,,,,,,,,,,,,,,,115.38408590000017,115.39859890000025,116.60622129999956,115.88308929999948,116.60355079999954,116.60622129999956,116.60622129999956,116.60622129999956,118.90040080000017,Objects\296a.jpg,pre,o,2.2806489999993573,None,,,,,,,,00031,001,2026-01-16_11h24.31.717,MST_test,2024.2.0,59.88282129524764,2026-01-16 11h24.55.100825 +0530,
13,0,14,o,0.9346135999994658,None,14,0,13,118.91563320000023,,,,,,,,,,,,,,,,,,,,,,,,,,,,,,,,,,,,,,,,,,,,,,,,,,118.90056129999994,118.91563320000023,119.4158096000001,119.39958719999959,119.40773749999971,119.4158096000001,119.4158096000001,119.4158096000001,120.36704699999973,Objects\103a.jpg,post,o,0.9346135999994658,None,,,,,,,,00031,001,2026-01-16_11h24.31.717,MST_test,2024.2.0,59.88282129524764,2026-01-16 11h24.55.100825 +0530,
14,0,15,o,0.911977200000365,None,15,0,14,120.38200049999978,,,,,,,,,,,,,,,,,,,,,,,,,,,,,,,,,,,,,,,,,,,,,,,,,,120.36731259999942,120.38200049999978,121.03134369999952,120.86607790000016,121.02909350000027,121.03134369999952,121.03134369999952,121.03134369999952,121.95062770000004,Objects\057b.jpg,post,o,0.911977200000365,None,,,,,,,,00031,001,2026-01-16_11h24.31.717,MST_test,2024.2.0,59.88282129524764,2026-01-16 11h24.55.100825 +0530,
15,0,16,s,1.3103832999995575,None,16,0,15,121.96526219999942,,,,,,,,,,,,,,,,,,,,,,,,,,,,,,,,,,,,,,,,,,,,,,,,,,121.95097519999945,121.96526219999942,122.56102999999985,122.4494138,122.55809059999956,122.56102999999985,122.56102999999985,122.56102999999985,123.88359739999942,Objects\060b.jpg,mid,s,1.3103832999995575,None,,,,,,,,00031,001,2026-01-16_11h24.31.717,MST_test,2024.2.0,59.88282129524764,2026-01-16 11h24.55.100825 +0530,
16,0,17,s,1.347061699999358,None,17,0,16,123.89928259999942,,,,,,,,,,,,,,,,,,,,,,,,,,,,,,,,,,,,,,,,,,,,,,,,,,123.88391570000022,123.89928259999942,124.44421349999993,124.38224949999949,124.44211889999951,124.44421349999993,124.44421349999993,124.44421349999993,125.80053969999972,Objects\119b.jpg,pre,s,1.347061699999358,None,,,,,,,,00031,001,2026-01-16_11h24.31.717,MST_test,2024.2.0,59.88282129524764,2026-01-16 11h24.55.100825 +0530,
17,0,18,o,1.125869700000294,None,18,0,17,125.81518489999962,,,,,,,,,,,,,,,,,,,,,,,,,,,,,,,,,,,,,,,,,,,,,,,,,,125.80084970000007,125.81518489999962,126.36939729999995,126.30014269999992,126.36621480000031,126.36939729999995,126.36939729999995,126.36939729999995,127.50010740000016,Objects\332b.jpg,post,o,1.125869700000294,None,,,,,,,,00031,001,2026-01-16_11h24.31.717,MST_test,2024.2.0,59.88282129524764,2026-01-16 11h24.55.100825 +0530,
18,0,19,o,2.1676042999997662,None,19,0,18,127.51524439999957,,,,,,,,,,,,,,,,,,,,,,,,,,,,,,,,,,,,,,,,,,,,,,,,,,127.50032459999966,127.51524439999957,128.01582359999975,127.99964050000017,128.00862959999995,128.01582359999975,128.01582359999975,128.01582359999975,130.20019159999993,Objects\354a.jpg,pre,o,2.1676042999997662,None,,,,,,,,00031,001,2026-01-16_11h24.31.717,MST_test,2024.2.0,59.88282129524764,2026-01-16 11h24.55.100825 +0530,
19,0,20,o,0.8459044999999605,None,20,0,19,130.21526279999944,,,,,,,,,,,,,,,,,,,,,,,,,,,,,,,,,,,,,,,,,,,,,,,,,,130.20044460000008,130.21526279999944,130.74571430000015,130.69944229999965,130.7425215000003,130.74571430000015,130.74571430000015,130.74571430000015,131.6007282999999,Objects\142b.jpg,post,o,0.8459044999999605,None,,,,,,,,00031,001,2026-01-16_11h24.31.717,MST_test,2024.2.0,59.88282129524764,2026-01-16 11h24.55.100825 +0530,
20,0,21,o,0.7477766000001793,None,21,0,20,131.61539960000027,,,,,,,,,,,,,,,,,,,,,,,,,,,,,,,,,,,,,,,,,,,,,,,,,,131.60107599999992,131.61539960000027,132.1156708999997,132.09942950000004,132.10471479999978,132.1156708999997,132.1156708999997,132.1156708999997,132.8673579999995,Objects\321a.jpg,mid,o,0.7477766000001793,None,,,,,,,,00031,001,2026-01-16_11h24.31.717,MST_test,2024.2.0,59.88282129524764,2026-01-16 11h24.55.100825 +0530,
21,0,22,o,0.800605500000529,None,22,0,21,132.8819684,,,,,,,,,,,,,,,,,,,,,,,,,,,,,,,,,,,,,,,,,,,,,,,,,,132.86767229999987,132.8819684,133.38215299999956,133.36617959999967,133.37135969999963,133.38215299999956,133.38215299999956,133.38215299999956,134.18489210000007,Objects\376a.jpg,mid,o,0.800605500000529,None,,,,,,,,00031,001,2026-01-16_11h24.31.717,MST_test,2024.2.0,59.88282129524764,2026-01-16 11h24.55.100825 +0530,
22,0,23,o,0.7230798000000505,None,23,0,22,134.19861880000008,,,,,,,,,,,,,,,,,,,,,,,,,,,,,,,,,,,,,,,,,,,,,,,,,,134.18517079999947,134.19861880000008,134.78833119999945,134.6829885999996,134.78585620000013,134.78833119999945,134.78833119999945,134.78833119999945,135.51699329999974,Objects\336b.jpg,post,o,0.7230798000000505,None,,,,,,,,00031,001,2026-01-16_11h24.31.717,MST_test,2024.2.0,59.88282129524764,2026-01-16 11h24.55.100825 +0530,
23,0,24,o,0.7988795999999638,None,24,0,23,135.53258929999993,,,,,,,,,,,,,,,,,,,,,,,,,,,,,,,,,,,,,,,,,,,,,,,,,,135.5172808999996,135.53258929999993,136.03230280000025,136.01626829999987,136.0231445999998,136.03230280000025,136.03230280000025,136.03230280000025,136.8339559999995,Objects\163a.jpg,mid,o,0.7988795999999638,None,,,,,,,,00031,001,2026-01-16_11h24.31.717,MST_test,2024.2.0,59.88282129524764,2026-01-16 11h24.55.100825 +0530,
24,0,25,o,0.6191807000004701,None,25,0,24,136.84853529999964,,,,,,,,,,,,,,,,,,,,,,,,,,,,,,,,,,,,,,,,,,,,,,,,,,136.8343692999997,136.84853529999964,137.38750960000016,137.33295420000013,137.38467200000014,137.38750960000016,137.38750960000016,137.38750960000016,138.0167908000003,Objects\286b.jpg,post,o,0.6191807000004701,None,,,,,,,,00031,001,2026-01-16_11h24.31.717,MST_test,2024.2.0,59.88282129524764,2026-01-16 11h24.55.100825 +0530,
25,0,26,n,1.5147177999997439,None,26,0,25,138.03183040000022,,,,,,,,,,,,,,,,,,,,,,,,,,,,,,,,,,,,,,,,,,,,,,,,,,138.01710809999986,138.03183040000022,138.62853339999947,138.51628100000016,138.62569949999943,138.62853339999947,138.62853339999947,138.62853339999947,140.1503573,Foils\121a.jpg,none,n,1.5147177999997439,None,,,,,,,,00031,001,2026-01-16_11h24.31.717,MST_test,2024.2.0,59.88282129524764,2026-01-16 11h24.55.100825 +0530,
26,0,27,s,1.6775053999999727,None,27,0,26,140.1652382000002,,,,,,,,,,,,,,,,,,,,,,,,,,,,,,,,,,,,,,,,,,,,,,,,,,140.15059839999958,140.1652382000002,140.66531140000006,140.64961519999997,140.6552157999995,140.66531140000006,140.66531140000006,140.66531140000006,142.34986949999984,Objects\125a.jpg,pre,s,1.6775053999999727,None,,,,,,,,00031,001,2026-01-16_11h24.31.717,MST_test,2024.2.0,59.88282129524764,2026-01-16 11h24.55.100825 +0530,
27,0,28,o,0.9261562000001504,None,28,0,27,142.3651031999998,,,,,,,,,,,,,,,,,,,,,,,,,,,,,,,,,,,,,,,,,,,,,,,,,,142.35026329999982,142.3651031999998,143.0335439999999,142.84915850000016,143.03086689999964,143.0335439999999,143.0335439999999,143.0335439999999,143.96766099999968,Objects\147b.jpg,pre,o,0.9261562000001504,None,,,,,,,,00031,001,2026-01-16_11h24.31.717,MST_test,2024.2.0,59.88282129524764,2026-01-16 11h24.55.100825 +0530,
28,0,29,o,0.9074676000000181,None,29,0,28,143.98203019999983,,,,,,,,,,,,,,,,,,,,,,,,,,,,,,,,,,,,,,,,,,,,,,,,,,143.9678858999996,143.98203019999983,144.5318331999997,144.46625549999953,144.52892319999955,144.5318331999997,144.5318331999997,144.5318331999997,145.4506034999995,Foils\f6.jpg,none,o,0.9074676000000181,None,,,,,,,,00031,001,2026-01-16_11h24.31.717,MST_test,2024.2.0,59.88282129524764,2026-01-16 11h24.55.100825 +0530,
29,0,30,s,1.4466673999995692,None,30,0,29,145.46533529999942,,,,,,,,,,,,,,,,,,,,,,,,,,,,,,,,,,,,,,,,,,,,,,,,,,145.45101869999962,145.46533529999942,145.99201549999998,145.94884170000023,145.98936950000007,145.99201549999998,145.99201549999998,145.99201549999998,147.45027149999987,Objects\317b.jpg,mid,s,1.4466673999995692,None,,,,,,,,00031,001,2026-01-16_11h24.31.717,MST_test,2024.2.0,59.88282129524764,2026-01-16 11h24.55.100825 +0530,
30,0,31,o,0.88194730000032,None,31,0,30,147.4651160000003,,,,,,,,,,,,,,,,,,,,,,,,,,,,,,,,,,,,,,,,,,,,,,,,,,147.4506650000003,147.4651160000003,147.9656841999995,147.94963999999982,147.95779930000026,147.9656841999995,147.9656841999995,147.9656841999995,148.85076500000014,Objects\215a.jpg,pre,o,0.88194730000032,None,,,,,,,,00031,001,2026-01-16_11h24.31.717,MST_test,2024.2.0,59.88282129524764,2026-01-16 11h24.55.100825 +0530,
31,0,32,s,1.6590055999995457,None,32,0,31,148.86529400000018,,,,,,,,,,,,,,,,,,,,,,,,,,,,,,,,,,,,,,,,,,,,,,,,,,148.85101000000031,148.86529400000018,149.37978750000002,149.34971589999986,149.3770058,149.37978750000002,149.37978750000002,149.37978750000002,151.05078140000023,Foils\042a.jpg,none,s,1.6590055999995457,None,,,,,,,,00031,001,2026-01-16_11h24.31.717,MST_test,2024.2.0,59.88282129524764,2026-01-16 11h24.55.100825 +0530,
32,0,33,s,1.5354709999992338,None,33,0,32,151.0654838999999,,,,,,,,,,,,,,,,,,,,,,,,,,,,,,,,,,,,,,,,,,,,,,,,,,151.05110909999985,151.0654838999999,151.6467993999995,151.5495479000001,151.64331260000017,151.6467993999995,151.6467993999995,151.6467993999995,153.2003466999995,Objects\202b.jpg,pre,s,1.5354709999992338,None,,,,,,,,00031,001,2026-01-16_11h24.31.717,MST_test,2024.2.0,59.88282129524764,2026-01-16 11h24.55.100825 +0530,
33,0,34,n,2.1935455999991973,None,34,0,33,153.2152960000003,,,,,,,,,,,,,,,,,,,,,,,,,,,,,,,,,,,,,,,,,,,,,,,,,,153.20070529999975,153.2152960000003,153.7420503000003,153.7001854,153.73940049999965,153.7420503000003,153.7420503000003,153.7420503000003,155.95067459999973,Foils\098a.jpg,none,n,2.1935455999991973,None,,,,,,,,00031,001,2026-01-16_11h24.31.717,MST_test,2024.2.0,59.88282129524764,2026-01-16 11h24.55.100825 +0530,
34,0,35,s,1.3949595000003683,None,35,0,34,155.96536050000032,,,,,,,,,,,,,,,,,,,,,,,,,,,,,,,,,,,,,,,,,,,,,,,,,,155.9510379000003,155.96536050000032,156.58856790000027,156.45016329999999,156.58455009999943,156.58856790000027,156.58856790000027,156.58856790000027,158.00062350000007,Objects\343b.jpg,pre,s,1.3949595000003683,None,,,,,,,,00031,001,2026-01-16_11h24.31.717,MST_test,2024.2.0,59.88282129524764,2026-01-16 11h24.55.100825 +0530,
35,0,36,s,1.4953155999992305,None,36,0,35,158.01492039999994,,,,,,,,,,,,,,,,,,,,,,,,,,,,,,,,,,,,,,,,,,,,,,,,,,158.0009474999997,158.01492039999994,158.61639699999978,158.49859599999945,158.61404990000028,158.61639699999978,158.61639699999978,158.61639699999978,160.1164729000002,Objects\231b.jpg,pre,s,1.4953155999992305,None,,,,,,,,00031,001,2026-01-16_11h24.31.717,MST_test,2024.2.0,59.88282129524764,2026-01-16 11h24.55.100825 +0530,
36,0,37,n,1.2422985999992306,None,37,0,36,160.13197190000028,,,,,,,,,,,,,,,,,,,,,,,,,,,,,,,,,,,,,,,,,,,,,,,,,,160.11668839999948,160.13197190000028,160.66953310000008,160.61619059999975,160.66703299999972,160.66953310000008,160.66953310000008,160.66953310000008,161.91762190000009,Objects\167a.jpg,post,n,1.2422985999992306,None,,,,,,,,00031,001,2026-01-16_11h24.31.717,MST_test,2024.2.0,59.88282129524764,2026-01-16 11h24.55.100825 +0530,
37,0,38,n,1.0806611999996676,None,38,0,37,161.9320760999999,,,,,,,,,,,,,,,,,,,,,,,,,,,,,,,,,,,,,,,,,,,,,,,,,,161.91799569999966,161.9320760999999,162.47083209999983,162.4162540999996,162.46788279999964,162.47083209999983,162.47083209999983,162.47083209999983,163.5674073,Foils\097a.jpg,none,n,1.0806611999996676,None,,,,,,,,00031,001,2026-01-16_11h24.31.717,MST_test,2024.2.0,59.88282129524764,2026-01-16 11h24.55.100825 +0530,
38,0,39,o,1.15709489999972,None,39,0,38,163.5820278000001,,,,,,,,,,,,,,,,,,,,,,,,,,,,,,,,,,,,,,,,,,,,,,,,,,163.56780499999968,163.5820278000001,164.1454063000001,164.06628399999954,164.1427418000003,164.1454063000001,164.1454063000001,164.1454063000001,165.3171395999998,Objects\065b.jpg,pre,o,1.15709489999972,None,,,,,,,,00031,001,2026-01-16_11h24.31.717,MST_test,2024.2.0,59.88282129524764,2026-01-16 11h24.55.100825 +0530,
39,0,40,o,1.3811789000001227,None,40,0,39,165.33185830000002,,,,,,,,,,,,,,,,,,,,,,,,,,,,,,,,,,,,,,,,,,,,,,,,,,165.31746899999962,165.33185830000002,165.85897490000025,165.81632439999976,165.85599170000023,165.85897490000025,165.85897490000025,165.85897490000025,167.2502489999997,Objects\002b.jpg,pre,o,1.3811789000001227,None,,,,,,,,00031,001,2026-01-16_11h24.31.717,MST_test,2024.2.0,59.88282129524764,2026-01-16 11h24.55.100825 +0530,
40,0,41,s,1.5492715999998836,None,41,0,40,167.26532940000016,,,,,,,,,,,,,,,,,,,,,,,,,,,,,,,,,,,,,,,,,,,,,,,,,,167.2504713999997,167.26532940000016,167.8103841000002,167.74976830000014,167.80740640000022,167.8103841000002,167.8103841000002,167.8103841000002,169.36709429999974,Objects\019a.jpg,pre,s,1.5492715999998836,None,,,,,,,,00031,001,2026-01-16_11h24.31.717,MST_test,2024.2.0,59.88282129524764,2026-01-16 11h24.55.100825 +0530,
41,0,42,n,1.0902873000004547,None,42,0,41,169.38201209999988,,,,,,,,,,,,,,,,,,,,,,,,,,,,,,,,,,,,,,,,,,,,,,,,,,169.36732130000019,169.38201209999988,169.9082155999995,169.86576069999956,169.9057057,169.9082155999995,169.9082155999995,169.9082155999995,171.00122680000004,Foils\058a.jpg,none,n,1.0902873000004547,None,,,,,,,,00031,001,2026-01-16_11h24.31.717,MST_test,2024.2.0,59.88282129524764,2026-01-16 11h24.55.100825 +0530,
42,0,43,s,1.448632099999486,None,43,0,42,171.01531629999954,,,,,,,,,,,,,,,,,,,,,,,,,,,,,,,,,,,,,,,,,,,,,,,,,,171.0015352999999,171.01531629999954,171.54299859999992,171.49952779999967,171.54027700000006,171.54299859999992,171.54299859999992,171.54299859999992,173.00043060000007,Objects\341b.jpg,mid,s,1.448632099999486,None,,,,,,,,00031,001,2026-01-16_11h24.31.717,MST_test,2024.2.0,59.88282129524764,2026-01-16 11h24.55.100825 +0530,
43,0,44,o,1.3628151000002617,None,44,0,43,173.01519069999995,,,,,,,,,,,,,,,,,,,,,,,,,,,,,,,,,,,,,,,,,,,,,,,,,,173.0007741999998,173.01519069999995,173.51572159999978,173.49980479999977,173.50740609999957,173.51572159999978,173.51572159999978,173.51572159999978,174.88396199999988,Objects\212a.jpg,pre,o,1.3628151000002617,None,,,,,,,,00031,001,2026-01-16_11h24.31.717,MST_test,2024.2.0,59.88282129524764,2026-01-16 11h24.55.100825 +0530,
44,0,45,n,1.6362761999998838,None,45,0,44,174.8984430999999,,,,,,,,,,,,,,,,,,,,,,,,,,,,,,,,,,,,,,,,,,,,,,,,,,174.88433009999972,174.8984430999999,175.41036319999967,175.3830638999998,175.40775789999952,175.41036319999967,175.41036319999967,175.41036319999967,177.04963169999974,Foils\f5.jpg,none,n,1.6362761999998838,None,,,,,,,,00031,001,2026-01-16_11h24.31.717,MST_test,2024.2.0,59.88282129524764,2026-01-16 11h24.55.100825 +0530,
45,0,46,s,0.9501177000001917,None,46,0,45,177.06528460000027,,,,,,,,,,,,,,,,,,,,,,,,,,,,,,,,,,,,,,,,,,,,,,,,,,177.04975999999988,177.06528460000027,177.58541890000015,177.54954759999964,177.5826963999998,177.58541890000015,177.58541890000015,177.58541890000015,178.5507345999995,Objects\232b.jpg,pre,s,0.9501177000001917,None,,,,,,,,00031,001,2026-01-16_11h24.31.717,MST_test,2024.2.0,59.88282129524764,2026-01-16 11h24.55.100825 +0530,
46,0,47,o,1.7649619999992865,None,47,0,46,178.5652729000003,,,,,,,,,,,,,,,,,,,,,,,,,,,,,,,,,,,,,,,,,,,,,,,,,,178.5510164999996,178.5652729000003,179.06571199999962,179.04953039999964,179.05732790000002,179.06571199999962,179.06571199999962,179.06571199999962,180.8336578999997,Objects\261a.jpg,post,o,1.7649619999992865,None,,,,,,,,00031,001,2026-01-16_11h24.31.717,MST_test,2024.2.0,59.88282129524764,2026-01-16 11h24.55.100825 +0530,
47,0,48,o,1.098416200000429,None,48,0,47,180.8485439999995,,,,,,,,,,,,,,,,,,,,,,,,,,,,,,,,,,,,,,,,,,,,,,,,,,180.83408009999948,180.8485439999995,181.34905919999983,181.33305930000006,181.34029139999984,181.34905919999983,181.34905919999983,181.34905919999983,182.4505197999997,Objects\208a.jpg,post,o,1.098416200000429,None,,,,,,,,00031,001,2026-01-16_11h24.31.717,MST_test,2024.2.0,59.88282129524764,2026-01-16 11h24.55.100825 +0530,
48,0,49,n,1.8462084000002505,None,49,0,48,182.4653218000003,,,,,,,,,,,,,,,,,,,,,,,,,,,,,,,,,,,,,,,,,,,,,,,,,,182.45080450000023,182.4653218000003,183.00149319999946,182.94955909999953,182.99851659999968,183.00149319999946,183.00149319999946,183.00149319999946,184.850821,Objects\089a.jpg,post,n,1.8462084000002505,None,,,,,,,,00031,001,2026-01-16_11h24.31.717,MST_test,2024.2.0,59.88282129524764,2026-01-16 11h24.55.100825 +0530,
49,0,50,o,1.2433742000002894,None,50,0,49,184.8651847000001,,,,,,,,,,,,,,,,,,,,,,,,,,,,,,,,,,,,,,,,,,,,,,,,,,184.85121759999947,184.8651847000001,185.40326019999975,185.3495512999998,185.3999278000001,185.40326019999975,185.40326019999975,185.40326019999975,186.65060769999945,Objects\260a.jpg,pre,o,1.2433742000002894,None,,,,,,,,00031,001,2026-01-16_11h24.31.717,MST_test,2024.2.0,59.88282129524764,2026-01-16 11h24.55.100825 +0530,
50,0,51,o,1.5776267000001098,None,51,0,50,186.6653139,,,,,,,,,,,,,,,,,,,,,,,,,,,,,,,,,,,,,,,,,,,,,,,,,,186.6509546999996,186.6653139,187.1657740999999,187.1495415999998,187.15680780000002,187.1657740999999,187.1657740999999,187.1657740999999,188.75042329999997,Objects\259a.jpg,pre,o,1.5776267000001098,None,,,,,,,,00031,001,2026-01-16_11h24.31.717,MST_test,2024.2.0,59.88282129524764,2026-01-16 11h24.55.100825 +0530,
51,0,52,o,1.53303010000036,None,52,0,51,188.76534269999956,,,,,,,,,,,,,,,,,,,,,,,,,,,,,,,,,,,,,,,,,,,,,,,,,,188.75077150000016,188.76534269999956,189.26585840000007,189.24978269999974,189.2581094999996,189.26585840000007,189.26585840000007,189.26585840000007,190.80115529999966,Objects\361a.jpg,post,o,1.53303010000036,None,,,,,,,,00031,001,2026-01-16_11h24.31.717,MST_test,2024.2.0,59.88282129524764,2026-01-16 11h24.55.100825 +0530,
52,0,53,o,0.7557143000003634,None,53,0,52,190.81533109999964,,,,,,,,,,,,,,,,,,,,,,,,,,,,,,,,,,,,,,,,,,,,,,,,,,190.8014935000001,190.81533109999964,191.3154873000003,191.29969569999957,191.30788409999968,191.3154873000003,191.3154873000003,191.3154873000003,192.0838359999998,Objects\018a.jpg,mid,o,0.7557143000003634,None,,,,,,,,00031,001,2026-01-16_11h24.31.717,MST_test,2024.2.0,59.88282129524764,2026-01-16 11h24.55.100825 +0530,
53,0,54,n,1.3103946999999607,None,54,0,53,192.09858499999973,,,,,,,,,,,,,,,,,,,,,,,,,,,,,,,,,,,,,,,,,,,,,,,,,,192.08414410000023,192.09858499999973,192.64040550000027,192.5829303999999,192.63757879999957,192.64040550000027,192.64040550000027,192.64040550000027,193.96714950000023,Foils\101b.jpg,none,n,1.3103946999999607,None,,,,,,,,00031,001,2026-01-16_11h24.31.717,MST_test,2024.2.0,59.88282129524764,2026-01-16 11h24.55.100825 +0530,
54,0,55,s,1.1885356999991927,None,55,0,54,193.98186519999945,,,,,,,,,,,,,,,,,,,,,,,,,,,,,,,,,,,,,,,,,,,,,,,,,,193.96749439999985,193.98186519999945,194.48251410000012,194.46644920000017,194.47298750000027,194.48251410000012,194.48251410000012,194.48251410000012,195.68354869999985,Objects\071a.jpg,pre,s,1.1885356999991927,None,,,,,,,,00031,001,2026-01-16_11h24.31.717,MST_test,2024.2.0,59.88282129524764,2026-01-16 11h24.55.100825 +0530,
55,0,56,s,1.0086498000000574,None,56,0,55,195.69855310000003,,,,,,,,,,,,,,,,,,,,,,,,,,,,,,,,,,,,,,,,,,,,,,,,,,195.68379970000024,195.69855310000003,196.19872289999967,196.18292360000032,196.1885113999997,196.19872289999967,196.19872289999967,196.19872289999967,197.21731670000008,Objects\049a.jpg,mid,s,1.0086498000000574,None,,,,,,,,00031,001,2026-01-16_11h24.31.717,MST_test,2024.2.0,59.88282129524764,2026-01-16 11h24.55.100825 +0530,
56,0,57,s,1.9243703000001915,None,57,0,56,197.2319663999997,,,,,,,,,,,,,,,,,,,,,,,,,,,,,,,,,,,,,,,,,,,,,,,,,,197.21767739999996,197.2319663999997,197.7622468999998,197.7162843999995,197.7595664999999,197.7622468999998,197.7622468999998,197.7622468999998,199.70033700000022,Objects\348b.jpg,mid,s,1.9243703000001915,None,,,,,,,,00031,001,2026-01-16_11h24.31.717,MST_test,2024.2.0,59.88282129524764,2026-01-16 11h24.55.100825 +0530,
57,0,58,o,0.9994965999994747,None,58,0,57,199.71527890000016,,,,,,,,,,,,,,,,,,,,,,,,,,,,,,,,,,,,,,,,,,,,,,,,,,199.70064009999987,199.71527890000016,200.2156769000003,200.19952159999957,200.20441010000013,200.2156769000003,200.2156769000003,200.2156769000003,201.21729349999987,Objects\333a.jpg,pre,o,0.9994965999994747,None,,,,,,,,00031,001,2026-01-16_11h24.31.717,MST_test,2024.2.0,59.88282129524764,2026-01-16 11h24.55.100825 +0530,
58,0,59,o,1.1224927000002936,None,59,0,58,201.23184029999993,,,,,,,,,,,,,,,,,,,,,,,,,,,,,,,,,,,,,,,,,,,,,,,,,,201.2175933999997,201.23184029999993,201.73221879999983,201.7162634999995,201.7220572999995,201.73221879999983,201.73221879999983,201.73221879999983,202.86718689999998,Objects\135a.jpg,mid,o,1.1224927000002936,None,,,,,,,,00031,001,2026-01-16_11h24.31.717,MST_test,2024.2.0,59.88282129524764,2026-01-16 11h24.55.100825 +0530,
59,0,60,n,1.3202375999999276,None,60,0,59,202.88191720000032,,,,,,,,,,,,,,,,,,,,,,,,,,,,,,,,,,,,,,,,,,,,,,,,,,202.86763650000012,202.88191720000032,203.43141259999993,203.36640590000025,203.4282916000002,203.43141259999993,203.43141259999993,203.43141259999993,204.7670250000001,Objects\358a.jpg,post,n,1.3202375999999276,None,,,,,,,,00031,001,2026-01-16_11h24.31.717,MST_test,2024.2.0,59.88282129524764,2026-01-16 11h24.55.100825 +0530,
60,0,61,n,0.8031555999996272,None,61,0,60,204.78181089999998,,,,,,,,,,,,,,,,,,,,,,,,,,,,,,,,,,,,,,,,,,,,,,,,,,204.7673391999997,204.78181089999998,205.30754969999998,205.26624600000014,205.30300089999946,205.30754969999998,205.30754969999998,205.30754969999998,206.1173329000003,Foils\010a.jpg,none,n,0.8031555999996272,None,,,,,,,,00031,001,2026-01-16_11h24.31.717,MST_test,2024.2.0,59.88282129524764,2026-01-16 11h24.55.100825 +0530,
61,0,62,n,0.805770300000404,None,62,0,61,206.13210150000032,,,,,,,,,,,,,,,,,,,,,,,,,,,,,,,,,,,,,,,,,,,,,,,,,,206.1177416999999,206.13210150000032,206.65760899999987,206.61624949999987,206.6549425000003,206.65760899999987,206.65760899999987,206.65760899999987,207.4672043999999,Foils\086a.jpg,none,n,0.805770300000404,None,,,,,,,,00031,001,2026-01-16_11h24.31.717,MST_test,2024.2.0,59.88282129524764,2026-01-16 11h24.55.100825 +0530,
62,0,63,n,0.9130850999999893,None,63,0,62,207.48178149999967,,,,,,,,,,,,,,,,,,,,,,,,,,,,,,,,,,,,,,,,,,,,,,,,,,207.46745929999997,207.48178149999967,207.98204189999979,207.9662718999998,207.97228949999953,207.98204189999979,207.98204189999979,207.98204189999979,208.89974389999952,Objects\173a.jpg,pre,n,0.9130850999999893,None,,,,,,,,00031,001,2026-01-16_11h24.31.717,MST_test,2024.2.0,59.88282129524764,2026-01-16 11h24.55.100825 +0530,
63,0,64,n,1.0480590999995911,None,64,0,63,208.91529290000017,,,,,,,,,,,,,,,,,,,,,,,,,,,,,,,,,,,,,,,,,,,,,,,,,,208.90002449999974,208.91529290000017,209.4384226000002,209.39957630000026,209.43557669999973,209.4384226000002,209.4384226000002,209.4384226000002,210.50056080000013,Objects\091b.jpg,pre,n,1.0480590999995911,None,,,,,,,,00031,001,2026-01-16_11h24.31.717,MST_test,2024.2.0,59.88282129524764,2026-01-16 11h24.55.100825 +0530,
64,0,65,n,0.8511788999994678,None,65,0,64,210.51527449999958,,,,,,,,,,,,,,,,,,,,,,,,,,,,,,,,,,,,,,,,,,,,,,,,,,210.5009041000003,210.51527449999958,211.0445123999998,210.99950910000007,211.04207549999956,211.0445123999998,211.0445123999998,211.0445123999998,211.9007548999998,Foils\034a.jpg,none,n,0.8511788999994678,None,,,,,,,,00031,001,2026-01-16_11h24.31.717,MST_test,2024.2.0,59.88282129524764,2026-01-16 11h24.55.100825 +0530,
65,0,66,o,1.4076772999997047,None,66,0,65,211.91514300000017,,,,,,,,,,,,,,,,,,,,,,,,,,,,,,,,,,,,,,,,,,,,,,,,,,211.90104109999993,211.91514300000017,212.41575620000003,212.39983179999945,212.4076981999997,212.41575620000003,212.41575620000003,212.41575620000003,213.8337445999996,Objects\278a.jpg,post,o,1.4076772999997047,None,,,,,,,,00031,001,2026-01-16_11h24.31.717,MST_test,2024.2.0,59.88282129524764,2026-01-16 11h24.55.100825 +0530,
66,0,67,o,0.7933061000003363,None,67,0,66,213.84855590000006,,,,,,,,,,,,,,,,,,,,,,,,,,,,,,,,,,,,,,,,,,,,,,,,,,213.83403369999996,213.84855590000006,214.34947420000026,214.33299199999965,214.33907290000025,214.34947420000026,214.34947420000026,214.34947420000026,215.15071519999947,Objects\022a.jpg,pre,o,0.7933061000003363,None,,,,,,,,00031,001,2026-01-16_11h24.31.717,MST_test,2024.2.0,59.88282129524764,2026-01-16 11h24.55.100825 +0530,
67,0,68,s,1.7234275000000707,None,68,0,67,215.16522590000022,,,,,,,,,,,,,,,,,,,,,,,,,,,,,,,,,,,,,,,,,,,,,,,,,,215.1509516999995,215.16522590000022,215.6998665000001,215.64965740000025,215.69573969999965,215.6998665000001,215.6998665000001,215.6998665000001,217.43372629999976,Objects\268b.jpg,mid,s,1.7234275000000707,None,,,,,,,,00031,001,2026-01-16_11h24.31.717,MST_test,2024.2.0,59.88282129524764,2026-01-16 11h24.55.100825 +0530,
68,0,69,o,1.794756100000086,None,69,0,68,217.4486648000002,,,,,,,,,,,,,,,,,,,,,,,,,,,,,,,,,,,,,,,,,,,,,,,,,,217.43413220000002,217.4486648000002,217.9488448000002,217.93294289999994,217.94088289999945,217.9488448000002,217.9488448000002,217.9488448000002,219.75036980000004,Objects\120a.jpg,post,o,1.794756100000086,None,,,,,,,,00031,001,2026-01-16_11h24.31.717,MST_test,2024.2.0,59.88282129524764,2026-01-16 11h24.55.100825 +0530,
69,0,70,n,0.8871369999997114,None,70,0,69,219.76531259999956,,,,,,,,,,,,,,,,,,,,,,,,,,,,,,,,,,,,,,,,,,,,,,,,,,219.7506354999996,219.76531259999956,220.30436910000026,220.24938190000012,220.3019021,220.30436910000026,220.30436910000026,220.30436910000026,221.20066179999958,Objects\079b.jpg,pre,n,0.8871369999997114,None,,,,,,,,00031,001,2026-01-16_11h24.31.717,MST_test,2024.2.0,59.88282129524764,2026-01-16 11h24.55.100825 +0530,
70,0,71,o,0.8508633999999802,None,71,0,70,221.21511360000022,,,,,,,,,,,,,,,,,,,,,,,,,,,,,,,,,,,,,,,,,,,,,,,,,,221.20107910000024,221.21511360000022,221.75561709999965,221.69970399999966,221.75296119999985,221.75561709999965,221.75561709999965,221.75561709999965,222.61710409999978,Foils\066a.jpg,none,o,0.8508633999999802,None,,,,,,,,00031,001,2026-01-16_11h24.31.717,MST_test,2024.2.0,59.88282129524764,2026-01-16 11h24.55.100825 +0530,
71,0,72,o,0.7858789000001707,None,72,0,71,222.63184769999953,,,,,,,,,,,,,,,,,,,,,,,,,,,,,,,,,,,,,,,,,,,,,,,,,,222.6173702999995,222.63184769999953,223.16471749999982,223.1163686,223.1619757999997,223.16471749999982,223.16471749999982,223.16471749999982,223.9675371000003,Foils\026a.jpg,none,o,0.7858789000001707,None,,,,,,,,00031,001,2026-01-16_11h24.31.717,MST_test,2024.2.0,59.88282129524764,2026-01-16 11h24.55.100825 +0530,
72,0,73,s,2.196117599999525,None,73,0,72,223.98180460000003,,,,,,,,,,,,,,,,,,,,,,,,,,,,,,,,,,,,,,,,,,,,,,,,,,223.96790249999958,223.98180460000003,224.51563739999983,224.46630339999956,224.51214720000007,224.51563739999983,224.51563739999983,224.51563739999983,226.71749329999966,Objects\365b.jpg,pre,s,2.196117599999525,None,,,,,,,,00031,001,2026-01-16_11h24.31.717,MST_test,2024.2.0,59.88282129524764,2026-01-16 11h24.55.100825 +0530,
73,0,74,s,2.4650941999998395,None,74,0,73,226.73186029999943,,,,,,,,,,,,,,,,,,,,,,,,,,,,,,,,,,,,,,,,,,,,,,,,,,226.7178484999995,226.73186029999943,227.26221999999962,227.21635139999944,227.2594479999998,227.26221999999962,227.26221999999962,227.26221999999962,229.73379939999995,Objects\380b.jpg,post,s,2.4650941999998395,None,,,,,,,,00031,001,2026-01-16_11h24.31.717,MST_test,2024.2.0,59.88282129524764,2026-01-16 11h24.55.100825 +0530,
74,0,75,s,1.8783989000003203,None,75,0,74,229.74855560000015,,,,,,,,,,,,,,,,,,,,,,,,,,,,,,,,,,,,,,,,,,,,,,,,,,229.73410729999978,229.74855560000015,230.2489642999999,230.23306419999972,230.24007879999954,230.2489642999999,230.2489642999999,230.2489642999999,232.13391460000003,Objects\200a.jpg,mid,s,1.8783989000003203,None,,,,,,,,00031,001,2026-01-16_11h24.31.717,MST_test,2024.2.0,59.88282129524764,2026-01-16 11h24.55.100825 +0530,
75,0,76,n,1.0912930000004053,None,76,0,75,232.14856210000016,,,,,,,,,,,,,,,,,,,,,,,,,,,,,,,,,,,,,,,,,,,,,,,,,,232.1342636999998,232.14856210000016,232.67557099999976,232.6329724999996,232.67274579999957,232.67557099999976,232.67557099999976,232.67557099999976,233.7837841999999,Foils\050a.jpg,none,n,1.0912930000004053,None,,,,,,,,00031,001,2026-01-16_11h24.31.717,MST_test,2024.2.0,59.88282129524764,2026-01-16 11h24.55.100825 +0530,
76,0,77,n,0.8956108000002132,None,77,0,76,233.7986132999995,,,,,,,,,,,,,,,,,,,,,,,,,,,,,,,,,,,,,,,,,,,,,,,,,,233.78404779999983,233.7986132999995,234.3508456999998,234.28309819999959,234.34829470000022,234.3508456999998,234.3508456999998,234.3508456999998,235.25087340000027,Foils\033a.jpg,none,n,0.8956108000002132,None,,,,,,,,00031,001,2026-01-16_11h24.31.717,MST_test,2024.2.0,59.88282129524764,2026-01-16 11h24.55.100825 +0530,
77,0,78,o,2.7685612000004767,None,78,0,77,235.26510729999973,,,,,,,,,,,,,,,,,,,,,,,,,,,,,,,,,,,,,,,,,,,,,,,,,,235.25114810000014,235.26510729999973,235.76573699999972,235.7493803999996,235.7554822000002,235.76573699999972,235.76573699999972,235.76573699999972,238.55019439999978,Objects\350a.jpg,pre,o,2.7685612000004767,None,,,,,,,,00031,001,2026-01-16_11h24.31.717,MST_test,2024.2.0,59.88282129524764,2026-01-16 11h24.55.100825 +0530,
78,0,79,s,1.3382837000008294,None,79,0,78,238.56536619999952,,,,,,,,,,,,,,,,,,,,,,,,,,,,,,,,,,,,,,,,,,,,,,,,,,238.55061879999994,238.56536619999952,239.2604369999999,239.04958480000005,239.25627350000013,239.2604369999999,239.2604369999999,239.2604369999999,240.60081699999955,Objects\132b.jpg,mid,s,1.3382837000008294,None,,,,,,,,00031,001,2026-01-16_11h24.31.717,MST_test,2024.2.0,59.88282129524764,2026-01-16 11h24.55.100825 +0530,
79,0,80,n,1.5858819999994012,None,80,0,79,240.61518350000006,,,,,,,,,,,,,,,,,,,,,,,,,,,,,,,,,,,,,,,,,,,,,,,,,,240.60123829999975,240.61518350000006,241.14956549999988,241.09951679999995,241.14669409999988,241.14956549999988,241.14956549999988,241.14956549999988,242.75062699999944,Objects\295b.jpg,post,n,1.5858819999994012,None,,,,,,,,00031,001,2026-01-16_11h24.31.717,MST_test,2024.2.0,59.88282129524764,2026-01-16 11h24.55.100825 +0530,
80,0,81,n,1.368018199999824,None,81,0,80,242.76515599999948,,,,,,,,,,,,,,,,,,,,,,,,,,,,,,,,,,,,,,,,,,,,,,,,,,242.7509227999999,242.76515599999948,243.2949268000002,243.24994340000012,243.29235999999946,243.2949268000002,243.2949268000002,243.2949268000002,244.66707719999977,Objects\066b.jpg,mid,n,1.368018199999824,None,,,,,,,,00031,001,2026-01-16_11h24.31.717,MST_test,2024.2.0,59.88282129524764,2026-01-16 11h24.55.100825 +0530,
81,0,82,n,1.3946556000000783,None,82,0,81,244.68175919999976,,,,,,,,,,,,,,,,,,,,,,,,,,,,,,,,,,,,,,,,,,,,,,,,,,244.6674326000002,244.68175919999976,245.21210729999984,245.1662626999996,245.2092319000003,245.21210729999984,245.21210729999984,245.21210729999984,246.61746500000027,Objects\263b.jpg,pre,n,1.3946556000000783,None,,,,,,,,00031,001,2026-01-16_11h24.31.717,MST_test,2024.2.0,59.88282129524764,2026-01-16 11h24.55.100825 +0530,
82,0,83,n,1.0415293999994901,None,83,0,82,246.63183639999988,,,,,,,,,,,,,,,,,,,,,,,,,,,,,,,,,,,,,,,,,,,,,,,,,,246.61785249999957,246.63183639999988,247.17336669999986,247.11618949999956,247.1690824999996,247.17336669999986,247.17336669999986,247.17336669999986,248.2168561999997,Objects\158b.jpg,post,n,1.0415293999994901,None,,,,,,,,00031,001,2026-01-16_11h24.31.717,MST_test,2024.2.0,59.88282129524764,2026-01-16 11h24.55.100825 +0530,
83,0,84,s,1.6191939999998795,None,84,0,83,248.23175269999956,,,,,,,,,,,,,,,,,,,,,,,,,,,,,,,,,,,,,,,,,,,,,,,,,,248.21716370000013,248.23175269999956,248.73224579999987,248.7161288999996,248.7241237999997,248.73224579999987,248.73224579999987,248.73224579999987,250.36724929999946,Objects\352a.jpg,pre,s,1.6191939999998795,None,,,,,,,,00031,001,2026-01-16_11h24.31.717,MST_test,2024.2.0,59.88282129524764,2026-01-16 11h24.55.100825 +0530,
84,0,85,n,0.9784490000001824,None,85,0,84,250.38248430000021,,,,,,,,,,,,,,,,,,,,,,,,,,,,,,,,,,,,,,,,,,,,,,,,,,250.3676703000001,250.38248430000021,250.93255829999998,250.8661360999995,250.92940050000016,250.93255829999998,250.93255829999998,250.93255829999998,251.91693940000005,Objects\100b.jpg,pre,n,0.9784490000001824,None,,,,,,,,00031,001,2026-01-16_11h24.31.717,MST_test,2024.2.0,59.88282129524764,2026-01-16 11h24.55.100825 +0530,
85,0,86,n,1.2225644000000102,None,86,0,85,251.93183659999977,,,,,,,,,,,,,,,,,,,,,,,,,,,,,,,,,,,,,,,,,,,,,,,,,,251.9172484999999,251.93183659999977,252.4643734000001,252.41644730000007,252.46163650000017,252.4643734000001,252.4643734000001,252.4643734000001,253.70040199999949,Objects\276b.jpg,mid,n,1.2225644000000102,None,,,,,,,,00031,001,2026-01-16_11h24.31.717,MST_test,2024.2.0,59.88282129524764,2026-01-16 11h24.55.100825 +0530,
86,0,87,s,1.4106344000001627,None,87,0,86,253.71528380000018,,,,,,,,,,,,,,,,,,,,,,,,,,,,,,,,,,,,,,,,,,,,,,,,,,253.70070159999977,253.71528380000018,254.24394539999957,254.19945459999963,254.24154149999958,254.24394539999957,254.24394539999957,254.24394539999957,255.66737589999957,Foils\065a.jpg,none,s,1.4106344000001627,None,,,,,,,,00031,001,2026-01-16_11h24.31.717,MST_test,2024.2.0,59.88282129524764,2026-01-16 11h24.55.100825 +0530,
87,0,88,s,1.9776124999998501,None,88,0,87,255.6818949999997,,,,,,,,,,,,,,,,,,,,,,,,,,,,,,,,,,,,,,,,,,,,,,,,,,255.66765719999967,255.6818949999997,256.2208705000003,256.16652650000015,256.2181251000002,256.2208705000003,256.2208705000003,256.2208705000003,258.2006868999997,Objects\155a.jpg,mid,s,1.9776124999998501,None,,,,,,,,00031,001,2026-01-16_11h24.31.717,MST_test,2024.2.0,59.88282129524764,2026-01-16 11h24.55.100825 +0530,
88,0,89,o,0.7711253999996188,None,89,0,88,258.2151337999994,,,,,,,,,,,,,,,,,,,,,,,,,,,,,,,,,,,,,,,,,,,,,,,,,,258.2009496999999,258.2151337999994,258.74038889999974,258.6995416,258.73723059999975,258.74038889999974,258.74038889999974,258.74038889999974,259.5171554999997,Objects\069b.jpg,pre,o,0.7711253999996188,None,,,,,,,,00031,001,2026-01-16_11h24.31.717,MST_test,2024.2.0,59.88282129524764,2026-01-16 11h24.55.100825 +0530,
89,0,90,s,1.047019900000123,None,90,0,89,259.5322391999998,,,,,,,,,,,,,,,,,,,,,,,,,,,,,,,,,,,,,,,,,,,,,,,,,,259.5175234999997,259.5322391999998,260.03197459999956,260.0160982999996,260.0213169999997,260.03197459999956,260.03197459999956,260.03197459999956,261.08412789999966,Objects\046a.jpg,pre,s,1.047019900000123,None,,,,,,,,00031,001,2026-01-16_11h24.31.717,MST_test,2024.2.0,59.88282129524764,2026-01-16 11h24.55.100825 +0530,
90,0,91,n,0.8926467999999659,None,91,0,90,261.0986035999995,,,,,,,,,,,,,,,,,,,,,,,,,,,,,,,,,,,,,,,,,,,,,,,,,,261.0845134000001,261.0986035999995,261.6260446999995,261.5829229000001,261.6233225999995,261.6260446999995,261.6260446999995,261.6260446999995,262.5337897999998,Objects\003b.jpg,pre,n,0.8926467999999659,None,,,,,,,,00031,001,2026-01-16_11h24.31.717,MST_test,2024.2.0,59.88282129524764,2026-01-16 11h24.55.100825 +0530,
91,0,92,o,1.0228008000003683,None,92,0,91,262.5484673000001,,,,,,,,,,,,,,,,,,,,,,,,,,,,,,,,,,,,,,,,,,,,,,,,,,262.5340077000001,262.5484673000001,263.0486371999996,263.0334068000002,263.03960970000026,263.0486371999996,263.0486371999996,263.0486371999996,264.0837614000002,Objects\177a.jpg,mid,o,1.0228008000003683,None,,,,,,,,00031,001,2026-01-16_11h24.31.717,MST_test,2024.2.0,59.88282129524764,2026-01-16 11h24.55.100825 +0530,
92,0,93,n,1.0537849000002097,None,93,0,92,264.0987151999998,,,,,,,,,,,,,,,,,,,,,,,,,,,,,,,,,,,,,,,,,,,,,,,,,,264.0840282999998,264.0987151999998,264.6251486000001,264.5831054,264.6224927000003,264.6251486000001,264.6251486000001,264.6251486000001,265.68383540000013,Foils\074a.jpg,none,n,1.0537849000002097,None,,,,,,,,00031,001,2026-01-16_11h24.31.717,MST_test,2024.2.0,59.88282129524764,2026-01-16 11h24.55.100825 +0530,
93,0,94,n,1.3714683000007426,None,94,0,93,265.69855370000005,,,,,,,,,,,,,,,,,,,,,,,,,,,,,,,,,,,,,,,,,,,,,,,,,,265.68418889999975,265.69855370000005,266.2273749999995,266.1831162999997,266.22454899999957,266.2273749999995,266.2273749999995,266.2273749999995,267.60094860000027,Objects\044b.jpg,mid,n,1.3714683000007426,None,,,,,,,,00031,001,2026-01-16_11h24.31.717,MST_test,2024.2.0,59.88282129524764,2026-01-16 11h24.55.100825 +0530,
94,0,95,n,0.8918214000004809,None,95,0,94,267.61512459999994,,,,,,,,,,,,,,,,,,,,,,,,,,,,,,,,,,,,,,,,,,,,,,,,,,267.6011811999997,267.61512459999994,268.1153279,268.0994547,268.10470149999946,268.1153279,268.1153279,268.1153279,269.0167653999997,Objects\077a.jpg,post,n,0.8918214000004809,None,,,,,,,,00031,001,2026-01-16_11h24.31.717,MST_test,2024.2.0,59.88282129524764,2026-01-16 11h24.55.100825 +0530,
95,0,96,n,0.9575575999997454,None,96,0,95,269.0318821999999,,,,,,,,,,,,,,,,,,,,,,,,,,,,,,,,,,,,,,,,,,,,,,,,,,269.01712119999956,269.0318821999999,269.55312200000026,269.5164431000003,269.55082870000024,269.55312200000026,269.55312200000026,269.55312200000026,270.5170357999996,Foils\106a.jpg,none,n,0.9575575999997454,None,,,,,,,,00031,001,2026-01-16_11h24.31.717,MST_test,2024.2.0,59.88282129524764,2026-01-16 11h24.55.100825 +0530,
96,0,97,n,0.7403924000000188,None,97,0,96,270.5319403000003,,,,,,,,,,,,,,,,,,,,,,,,,,,,,,,,,,,,,,,,,,,,,,,,,,270.51735259999987,270.5319403000003,271.06678999999986,271.01630229999955,271.0642103,271.06678999999986,271.06678999999986,271.06678999999986,271.8167717999995,Foils\081a.jpg,none,n,0.7403924000000188,None,,,,,,,,00031,001,2026-01-16_11h24.31.717,MST_test,2024.2.0,59.88282129524764,2026-01-16 11h24.55.100825 +0530,
97,0,98,n,1.217538599999898,None,98,0,97,271.8318770999995,,,,,,,,,,,,,,,,,,,,,,,,,,,,,,,,,,,,,,,,,,,,,,,,,,271.8170035000003,271.8318770999995,272.36577769999985,272.3166722999995,272.36276309999994,272.36577769999985,272.36577769999985,272.36577769999985,273.60025700000006,Objects\042a.jpg,mid,n,1.217538599999898,None,,,,,,,,00031,001,2026-01-16_11h24.31.717,MST_test,2024.2.0,59.88282129524764,2026-01-16 11h24.55.100825 +0530,
98,0,99,o,1.099159200000031,None,99,0,98,273.6152350000002,,,,,,,,,,,,,,,,,,,,,,,,,,,,,,,,,,,,,,,,,,,,,,,,,,273.6005878999995,273.6152350000002,274.1154553999995,274.09959079999953,274.1063162999999,274.1154553999995,274.1154553999995,274.1154553999995,275.2175981999999,Objects\011a.jpg,pre,o,1.099159200000031,None,,,,,,,,00031,001,2026-01-16_11h24.31.717,MST_test,2024.2.0,59.88282129524764,2026-01-16 11h24.55.100825 +0530,
99,0,100,n,1.5273297000003367,None,100,0,99,275.23183960000006,,,,,,,,,,,,,,,,,,,,,,,,,,,,,,,,,,,,,,,,,,,,,,,,,,275.21791889999986,275.23183960000006,275.7748660999996,275.71625909999966,275.7718968999998,275.7748660999996,275.7748660999996,275.7748660999996,277.31724789999953,Foils\105a.jpg,none,n,1.5273297000003367,None,,,,,,,,00031,001,2026-01-16_11h24.31.717,MST_test,2024.2.0,59.88282129524764,2026-01-16 11h24.55.100825 +0530,
100,0,101,n,0.8922734999996464,None,101,0,100,277.33179010000003,,,,,,,,,,,,,,,,,,,,,,,,,,,,,,,,,,,,,,,,,,,,,,,,,,277.3175799999999,277.33179010000003,277.85867529999996,277.8161019999998,277.85598370000025,277.85867529999996,277.85867529999996,277.85867529999996,278.7669778999998,Foils\002a.jpg,none,n,0.8922734999996464,None,,,,,,,,00031,001,2026-01-16_11h24.31.717,MST_test,2024.2.0,59.88282129524764,2026-01-16 11h24.55.100825 +0530,
101,0,102,n,1.673416399999951,None,102,0,101,278.78180259999954,,,,,,,,,,,,,,,,,,,,,,,,,,,,,,,,,,,,,,,,,,,,,,,,,,278.76721389999966,278.78180259999954,279.3098934999998,279.26628040000014,279.30736979999983,279.3098934999998,279.3098934999998,279.3098934999998,281.0007525000001,Objects\374b.jpg,mid,n,1.673416399999951,None,,,,,,,,00031,001,2026-01-16_11h24.31.717,MST_test,2024.2.0,59.88282129524764,2026-01-16 11h24.55.100825 +0530,
102,0,103,n,0.9775028999993083,None,103,0,102,281.01504490000025,,,,,,,,,,,,,,,,,,,,,,,,,,,,,,,,,,,,,,,,,,,,,,,,,,281.00115339999957,281.01504490000025,281.5336881000003,281.49971619999997,281.5309347000002,281.5336881000003,281.5336881000003,281.5336881000003,282.5172537999997,Foils\073a.jpg,none,n,0.9775028999993083,None,,,,,,,,00031,001,2026-01-16_11h24.31.717,MST_test,2024.2.0,59.88282129524764,2026-01-16 11h24.55.100825 +0530,
103,0,104,n,0.7830291000000216,None,104,0,103,282.5319321999996,,,,,,,,,,,,,,,,,,,,,,,,,,,,,,,,,,,,,,,,,,,,,,,,,,282.51757279999947,282.5319321999996,283.03209679999964,283.016216,283.0246879999995,283.03209679999964,283.03209679999964,283.03209679999964,283.81737109999995,Objects\193a.jpg,mid,n,0.7830291000000216,None,,,,,,,,00031,001,2026-01-16_11h24.31.717,MST_test,2024.2.0,59.88282129524764,2026-01-16 11h24.55.100825 +0530,
104,0,105,o,1.027092299999822,None,105,0,104,283.83190579999973,,,,,,,,,,,,,,,,,,,,,,,,,,,,,,,,,,,,,,,,,,,,,,,,,,283.8175908000003,283.83190579999973,284.33212600000024,284.31597280000005,284.3224885999998,284.33212600000024,284.33212600000024,284.33212600000024,285.36714909999955,Objects\015a.jpg,pre,o,1.027092299999822,None,,,,,,,,00031,001,2026-01-16_11h24.31.717,MST_test,2024.2.0,59.88282129524764,2026-01-16 11h24.55.100825 +0530,
105,0,106,s,1.0621243999994476,None,106,0,105,285.3818283999999,,,,,,,,,,,,,,,,,,,,,,,,,,,,,,,,,,,,,,,,,,,,,,,,,,285.36742479999975,285.3818283999999,285.9041328000003,285.86608520000027,285.9007397999994,285.9041328000003,285.9041328000003,285.9041328000003,286.9839912999996,Objects\143b.jpg,mid,s,1.0621243999994476,None,,,,,,,,00031,001,2026-01-16_11h24.31.717,MST_test,2024.2.0,59.88282129524764,2026-01-16 11h24.55.100825 +0530,
106,0,107,o,1.2675821000002543,None,107,0,106,286.99850979999974,,,,,,,,,,,,,,,,,,,,,,,,,,,,,,,,,,,,,,,,,,,,,,,,,,286.98431660000006,286.99850979999974,287.4987492999999,287.4831250999996,287.4899353999999,287.4987492999999,287.4987492999999,287.4987492999999,288.78361440000026,Objects\021a.jpg,post,o,1.2675821000002543,None,,,,,,,,00031,001,2026-01-16_11h24.31.717,MST_test,2024.2.0,59.88282129524764,2026-01-16 11h24.55.100825 +0530,
107,0,108,o,0.9530814000008831,None,108,0,107,288.7985093999996,,,,,,,,,,,,,,,,,,,,,,,,,,,,,,,,,,,,,,,,,,,,,,,,,,288.7838866000002,288.7985093999996,289.3262070999999,289.28285849999975,289.3236095000002,289.3262070999999,289.3262070999999,289.3262070999999,290.2835935000003,Foils\049a.jpg,none,o,0.9530814000008831,None,,,,,,,,00031,001,2026-01-16_11h24.31.717,MST_test,2024.2.0,59.88282129524764,2026-01-16 11h24.55.100825 +0530,
108,0,109,n,0.8056117000005543,None,109,0,108,290.2989312999998,,,,,,,,,,,,,,,,,,,,,,,,,,,,,,,,,,,,,,,,,,,,,,,,,,290.2838346999997,290.2989312999998,290.8652678999997,290.78299569999945,290.86249229999976,290.8652678999997,290.8652678999997,290.8652678999997,291.6830670999998,Objects\188a.jpg,post,n,0.8056117000005543,None,,,,,,,,00031,001,2026-01-16_11h24.31.717,MST_test,2024.2.0,59.88282129524764,2026-01-16 11h24.55.100825 +0530,
109,0,110,o,0.9873655000001236,None,110,0,109,291.69844269999976,,,,,,,,,,,,,,,,,,,,,,,,,,,,,,,,,,,,,,,,,,,,,,,,,,291.6832723999996,291.69844269999976,292.2201752000001,292.1827188999996,292.2177147000002,292.2201752000001,292.2201752000001,292.2201752000001,293.2171011999999,Objects\087b.jpg,post,o,0.9873655000001236,None,,,,,,,,00031,001,2026-01-16_11h24.31.717,MST_test,2024.2.0,59.88282129524764,2026-01-16 11h24.55.100825 +0530,
110,0,111,s,1.0184024000000136,None,111,0,110,293.23195940000005,,,,,,,,,,,,,,,,,,,,,,,,,,,,,,,,,,,,,,,,,,,,,,,,,,293.2174027000001,293.23195940000005,293.7721216,293.71616709999944,293.7670988,293.7721216,293.7721216,293.7721216,294.80024890000004,Objects\250b.jpg,post,s,1.0184024000000136,None,,,,,,,,00031,001,2026-01-16_11h24.31.717,MST_test,2024.2.0,59.88282129524764,2026-01-16 11h24.55.100825 +0530,
111,0,112,s,0.7304622000001473,None,112,0,111,294.8153405000003,,,,,,,,,,,,,,,,,,,,,,,,,,,,,,,,,,,,,,,,,,,,,,,,,,294.8004804000002,294.8153405000003,295.34880749999957,295.2995769999998,295.34555759999967,295.34880749999957,295.34880749999957,295.34880749999957,296.08368580000024,Foils\082a.jpg,none,s,0.7304622000001473,None,,,,,,,,00031,001,2026-01-16_11h24.31.717,MST_test,2024.2.0,59.88282129524764,2026-01-16 11h24.55.100825 +0530,
112,0,113,n,0.8403925000002346,None,113,0,112,296.0990283000001,,,,,,,,,,,,,,,,,,,,,,,,,,,,,,,,,,,,,,,,,,,,,,,,,,296.0840092999997,296.0990283000001,296.69504570000026,296.5829279999998,296.69199839999965,296.69504570000026,296.69504570000026,296.69504570000026,297.55035789999965,Objects\304a.jpg,post,n,0.8403925000002346,None,,,,,,,,00031,001,2026-01-16_11h24.31.717,MST_test,2024.2.0,59.88282129524764,2026-01-16 11h24.55.100825 +0530,
113,0,114,n,0.5721779999994396,None,114,0,113,297.56508909999957,,,,,,,,,,,,,,,,,,,,,,,,,,,,,,,,,,,,,,,,,,,,,,,,,,297.55073749999974,297.56508909999957,298.0833751,298.0492999999997,298.07971519999955,298.0833751,298.0833751,298.0833751,298.6668383999995,Foils\020b.jpg,none,n,0.5721779999994396,None,,,,,,,,00031,001,2026-01-16_11h24.31.717,MST_test,2024.2.0,59.88282129524764,2026-01-16 11h24.55.100825 +0530,
114,0,115,n,0.5373584999997547,None,115,0,114,298.6819459999997,,,,,,,,,,,,,,,,,,,,,,,,,,,,,,,,,,,,,,,,,,,,,,,,,,298.6672327999995,298.6819459999997,299.22234409999965,299.1662107000002,299.21909659999983,299.22234409999965,299.22234409999965,299.22234409999965,299.7669943000001,Objects\315a.jpg,post,n,0.5373584999997547,None,,,,,,,,00031,001,2026-01-16_11h24.31.717,MST_test,2024.2.0,59.88282129524764,2026-01-16 11h24.55.100825 +0530,
115,0,116,o,0.7534027000001515,None,116,0,115,299.78190040000027,,,,,,,,,,,,,,,,,,,,,,,,,,,,,,,,,,,,,,,,,,,,,,,,,,299.7673070999999,299.78190040000027,300.34911060000013,300.2664531999999,300.34560899999997,300.34911060000013,300.34911060000013,300.34911060000013,301.1170919999995,Objects\013b.jpg,post,o,0.7534027000001515,None,,,,,,,,00031,001,2026-01-16_11h24.31.717,MST_test,2024.2.0,59.88282129524764,2026-01-16 11h24.55.100825 +0530,
116,0,117,n,0.9481844000001729,None,117,0,116,301.1319805000003,,,,,,,,,,,,,,,,,,,,,,,,,,,,,,,,,,,,,,,,,,,,,,,,,,301.11745559999963,301.1319805000003,301.6671389000003,301.6162918,301.66457530000025,301.6671389000003,301.6671389000003,301.6671389000003,302.61763379999957,Objects\383b.jpg,post,n,0.9481844000001729,None,,,,,,,,00031,001,2026-01-16_11h24.31.717,MST_test,2024.2.0,59.88282129524764,2026-01-16 11h24.55.100825 +0530,
117,0,118,n,0.8135374000003139,None,118,0,117,302.63189069999953,,,,,,,,,,,,,,,,,,,,,,,,,,,,,,,,,,,,,,,,,,,,,,,,,,302.6180377999999,302.63189069999953,303.17744159999984,303.11622910000006,303.1738413000003,303.17744159999984,303.17744159999984,303.17744159999984,304.00051639999947,Objects\246b.jpg,mid,n,0.8135374000003139,None,,,,,,,,00031,001,2026-01-16_11h24.31.717,MST_test,2024.2.0,59.88282129524764,2026-01-16 11h24.55.100825 +0530,
118,0,119,n,0.7559612999993988,None,119,0,118,304.0151501999999,,,,,,,,,,,,,,,,,,,,,,,,,,,,,,,,,,,,,,,,,,,,,,,,,,304.0007193000001,304.0151501999999,304.60286199999973,304.49986160000026,304.5988333999994,304.60286199999973,304.60286199999973,304.60286199999973,305.3668306999998,Objects\150a.jpg,mid,n,0.7559612999993988,None,,,,,,,,00031,001,2026-01-16_11h24.31.717,MST_test,2024.2.0,59.88282129524764,2026-01-16 11h24.55.100825 +0530,
119,0,120,n,0.9800894999998491,None,120,0,119,305.38168099999984,,,,,,,,,,,,,,,,,,,,,,,,,,,,,,,,,,,,,,,,,,,,,,,,,,305.3670025000001,305.38168099999984,305.9142826999996,305.8660248999995,305.91162149999946,305.9142826999996,305.9142826999996,305.9142826999996,306.9008200999997,Objects\384b.jpg,mid,n,0.9800894999998491,None,,,,,,,,00031,001,2026-01-16_11h24.31.717,MST_test,2024.2.0,59.88282129524764,2026-01-16 11h24.55.100825 +0530,
120,0,121,n,0.6941321000003882,None,121,0,120,306.9150972999996,,,,,,,,,,,,,,,,,,,,,,,,,,,,,,,,,,,,,,,,,,,,,,,,,,306.90103069999986,306.9150972999996,307.4729136999995,307.3993209,307.46981959999994,307.4729136999995,307.4729136999995,307.4729136999995,308.1835418999999,Objects\328b.jpg,mid,n,0.6941321000003882,None,,,,,,,,00031,001,2026-01-16_11h24.31.717,MST_test,2024.2.0,59.88282129524764,2026-01-16 11h24.55.100825 +0530,
121,0,122,s,1.7290138999996998,None,122,0,121,308.1984970000003,,,,,,,,,,,,,,,,,,,,,,,,,,,,,,,,,,,,,,,,,,,,,,,,,,308.1837706999995,308.1984970000003,308.71753069999977,308.6829716000002,308.71460339999976,308.71753069999977,308.71753069999977,308.71753069999977,310.45058079999944,Objects\291b.jpg,post,s,1.7290138999996998,None,,,,,,,,00031,001,2026-01-16_11h24.31.717,MST_test,2024.2.0,59.88282129524764,2026-01-16 11h24.55.100825 +0530,
122,0,123,n,1.0375308000002406,None,123,0,122,310.4651690999999,,,,,,,,,,,,,,,,,,,,,,,,,,,,,,,,,,,,,,,,,,,,,,,,,,310.45094340000014,310.4651690999999,310.9930188999997,310.9494560000003,310.98980070000016,310.9930188999997,310.9930188999997,310.9930188999997,312.0339419000002,Foils\f7.jpg,none,n,1.0375308000002406,None,,,,,,,,00031,001,2026-01-16_11h24.31.717,MST_test,2024.2.0,59.88282129524764,2026-01-16 11h24.55.100825 +0530,
123,0,124,n,1.1393103000000337,None,124,0,123,312.04855099999986,,,,,,,,,,,,,,,,,,,,,,,,,,,,,,,,,,,,,,,,,,,,,,,,,,312.0342042000002,312.04855099999986,312.69174479999947,312.5331715000002,312.6886357000003,312.69174479999947,312.69174479999947,312.69174479999947,313.8341370999997,Objects\027b.jpg,post,n,1.1393103000000337,None,,,,,,,,00031,001,2026-01-16_11h24.31.717,MST_test,2024.2.0,59.88282129524764,2026-01-16 11h24.55.100825 +0530,
124,0,125,n,0.7050568000004205,None,125,0,124,313.84850800000004,,,,,,,,,,,,,,,,,,,,,,,,,,,,,,,,,,,,,,,,,,,,,,,,,,313.8344774999996,313.84850800000004,314.34914370000024,314.33289439999953,314.344298,314.34914370000024,314.34914370000024,314.34914370000024,315.0665646999996,Objects\248a.jpg,pre,n,0.7050568000004205,None,,,,,,,,00031,001,2026-01-16_11h24.31.717,MST_test,2024.2.0,59.88282129524764,2026-01-16 11h24.55.100825 +0530,
125,0,126,n,0.7932662000002892,None,126,0,125,315.0820684999999,,,,,,,,,,,,,,,,,,,,,,,,,,,,,,,,,,,,,,,,,,,,,,,,,,315.0667715999998,315.0820684999999,315.58216449999964,315.56646759999967,315.5740714000003,315.58216449999964,315.58216449999964,315.58216449999964,316.38359070000024,Objects\059a.jpg,post,n,0.7932662000002892,None,,,,,,,,00031,001,2026-01-16_11h24.31.717,MST_test,2024.2.0,59.88282129524764,2026-01-16 11h24.55.100825 +0530,
126,0,127,o,0.9328604000002088,None,127,0,126,316.3985573,,,,,,,,,,,,,,,,,,,,,,,,,,,,,,,,,,,,,,,,,,,,,,,,,,316.3839594000001,316.3985573,316.9383238999999,316.8830111999996,316.9351353000002,316.9383238999999,316.9383238999999,316.9383238999999,317.88379050000003,Objects\129b.jpg,mid,o,0.9328604000002088,None,,,,,,,,00031,001,2026-01-16_11h24.31.717,MST_test,2024.2.0,59.88282129524764,2026-01-16 11h24.55.100825 +0530,
127,0,128,n,0.8833792000004905,None,128,0,127,317.8985235,,,,,,,,,,,,,,,,,,,,,,,,,,,,,,,,,,,,,,,,,,,,,,,,,,317.88415199999963,317.8985235,318.44364099999984,318.38318720000007,318.44028720000006,318.44364099999984,318.44364099999984,318.44364099999984,319.33411179999985,Objects\063b.jpg,pre,n,0.8833792000004905,None,,,,,,,,00031,001,2026-01-16_11h24.31.717,MST_test,2024.2.0,59.88282129524764,2026-01-16 11h24.55.100825 +0530,
128,0,129,s,1.3514988999995694,None,129,0,128,319.34846879999986,,,,,,,,,,,,,,,,,,,,,,,,,,,,,,,,,,,,,,,,,,,,,,,,,,319.33443759999955,319.34846879999986,319.89509519999956,319.8332220000002,319.8920085999998,319.89509519999956,319.89509519999956,319.89509519999956,321.2504245,Objects\070b.jpg,pre,s,1.3514988999995694,None,,,,,,,,00031,001,2026-01-16_11h24.31.717,MST_test,2024.2.0,59.88282129524764,2026-01-16 11h24.55.100825 +0530,
129,0,130,n,1.7215001000004122,None,130,0,129,321.26526469999953,,,,,,,,,,,,,,,,,,,,,,,,,,,,,,,,,,,,,,,,,,,,,,,,,,321.2506864999996,321.26526469999953,321.7890749999997,321.74941899999976,321.78542730000026,321.7890749999997,321.7890749999997,321.7890749999997,323.5170645999997,Objects\038b.jpg,pre,n,1.7215001000004122,None,,,,,,,,00031,001,2026-01-16_11h24.31.717,MST_test,2024.2.0,59.88282129524764,2026-01-16 11h24.55.100825 +0530,
130,0,131,n,0.7876655000000028,None,131,0,130,323.53212429999985,,,,,,,,,,,,,,,,,,,,,,,,,,,,,,,,,,,,,,,,,,,,,,,,,,323.51746529999946,323.53212429999985,324.06701559999965,324.01637779999965,324.06478139999945,324.06701559999965,324.06701559999965,324.06701559999965,324.8670567999998,Foils\017a.jpg,none,n,0.7876655000000028,None,,,,,,,,00031,001,2026-01-16_11h24.31.717,MST_test,2024.2.0,59.88282129524764,2026-01-16 11h24.55.100825 +0530,
131,0,132,o,1.0006844999998066,None,132,0,131,324.8817690999995,,,,,,,,,,,,,,,,,,,,,,,,,,,,,,,,,,,,,,,,,,,,,,,,,,324.8674375999999,324.8817690999995,325.38236940000024,325.36650439999994,325.3727607999999,325.38236940000024,325.38236940000024,325.38236940000024,326.40043590000005,Objects\230a.jpg,post,o,1.0006844999998066,None,,,,,,,,00031,001,2026-01-16_11h24.31.717,MST_test,2024.2.0,59.88282129524764,2026-01-16 11h24.55.100825 +0530,
132,0,133,o,0.865278500000386,None,133,0,132,326.4151372999995,,,,,,,,,,,,,,,,,,,,,,,,,,,,,,,,,,,,,,,,,,,,,,,,,,326.4007220000003,326.4151372999995,326.9416408999996,326.8996699999998,326.9390817000003,326.9416408999996,326.9416408999996,326.9416408999996,327.8170613000002,Objects\370b.jpg,mid,o,0.865278500000386,None,,,,,,,,00031,001,2026-01-16_11h24.31.717,MST_test,2024.2.0,59.88282129524764,2026-01-16 11h24.55.100825 +0530,
133,0,134,n,1.9617490000000544,None,134,0,133,327.8318626999999,,,,,,,,,,,,,,,,,,,,,,,,,,,,,,,,,,,,,,,,,,,,,,,,,,327.81722139999965,327.8318626999999,328.3576981999995,328.3162019000001,328.35484240000005,328.3576981999995,328.3576981999995,328.3576981999995,330.3338643999996,Objects\375a.jpg,pre,n,1.9617490000000544,None,,,,,,,,00031,001,2026-01-16_11h24.31.717,MST_test,2024.2.0,59.88282129524764,2026-01-16 11h24.55.100825 +0530,
134,0,135,o,0.9740132999995694,None,135,0,134,330.3485818999998,,,,,,,,,,,,,,,,,,,,,,,,,,,,,,,,,,,,,,,,,,,,,,,,,,330.3341239000001,330.3485818999998,330.8645465999998,330.83300679999957,330.8613085999996,330.8645465999998,330.8645465999998,330.8645465999998,331.8505276999995,Objects\347b.jpg,mid,o,0.9740132999995694,None,,,,,,,,00031,001,2026-01-16_11h24.31.717,MST_test,2024.2.0,59.88282129524764,2026-01-16 11h24.55.100825 +0530,
135,0,136,n,1.4738400999995065,None,136,0,135,331.8650265999995,,,,,,,,,,,,,,,,,,,,,,,,,,,,,,,,,,,,,,,,,,,,,,,,,,331.85085359999994,331.8650265999995,332.3976550999996,332.3495333999999,332.3947595999998,332.3976550999996,332.3976550999996,332.3976550999996,333.8836603,Objects\138b.jpg,post,n,1.4738400999995065,None,,,,,,,,00031,001,2026-01-16_11h24.31.717,MST_test,2024.2.0,59.88282129524764,2026-01-16 11h24.55.100825 +0530,
136,0,137,o,0.9446205000003829,None,137,0,136,333.89859350000006,,,,,,,,,,,,,,,,,,,,,,,,,,,,,,,,,,,,,,,,,,,,,,,,,,333.8839246999996,333.89859350000006,334.39867330000015,334.38279069999953,334.39122640000005,334.39867330000015,334.39867330000015,334.39867330000015,335.35029140000006,Objects\185a.jpg,pre,o,0.9446205000003829,None,,,,,,,,00031,001,2026-01-16_11h24.31.717,MST_test,2024.2.0,59.88282129524764,2026-01-16 11h24.55.100825 +0530,
137,0,138,o,0.7408632000006037,None,138,0,137,335.36508270000013,,,,,,,,,,,,,,,,,,,,,,,,,,,,,,,,,,,,,,,,,,,,,,,,,,335.35063850000006,335.36508270000013,335.8655510999997,335.84931979999965,335.8548565000001,335.8655510999997,335.8655510999997,335.8655510999997,336.6170655999995,Objects\244a.jpg,post,o,0.7408632000006037,None,,,,,,,,00031,001,2026-01-16_11h24.31.717,MST_test,2024.2.0,59.88282129524764,2026-01-16 11h24.55.100825 +0530,
138,0,139,o,0.7000323000002027,None,139,0,138,336.63167280000016,,,,,,,,,,,,,,,,,,,,,,,,,,,,,,,,,,,,,,,,,,,,,,,,,,336.61740869999994,336.63167280000016,337.2343433999995,337.1163485999996,337.23120800000015,337.2343433999995,337.2343433999995,337.2343433999995,337.9507695000002,Objects\234b.jpg,mid,o,0.7000323000002027,None,,,,,,,,00031,001,2026-01-16_11h24.31.717,MST_test,2024.2.0,59.88282129524764,2026-01-16 11h24.55.100825 +0530,
139,0,140,n,1.6110117999996874,None,140,0,139,337.9652202999996,,,,,,,,,,,,,,,,,,,,,,,,,,,,,,,,,,,,,,,,,,,,,,,,,,337.9510487999996,337.9652202999996,338.48333189999994,338.44942439999977,338.4805280999999,338.48333189999994,338.48333189999994,338.48333189999994,340.10062449999987,Objects\198a.jpg,post,n,1.6110117999996874,None,,,,,,,,00031,001,2026-01-16_11h24.31.717,MST_test,2024.2.0,59.88282129524764,2026-01-16 11h24.55.100825 +0530,
140,0,141,n,0.9030069999998886,None,141,0,140,340.1151697999994,,,,,,,,,,,,,,,,,,,,,,,,,,,,,,,,,,,,,,,,,,,,,,,,,,340.10097789999963,340.1151697999994,340.6161685999996,340.59958499999993,340.6084516000001,340.6161685999996,340.6161685999996,340.6161685999996,341.5341133000002,Objects\240a.jpg,mid,n,0.9030069999998886,None,,,,,,,,00031,001,2026-01-16_11h24.31.717,MST_test,2024.2.0,59.88282129524764,2026-01-16 11h24.55.100825 +0530,
141,0,142,o,0.940560999999434,None,142,0,141,341.5485080999997,,,,,,,,,,,,,,,,,,,,,,,,,,,,,,,,,,,,,,,,,,,,,,,,,,341.53450280000015,341.5485080999997,342.1383415,342.0329770999997,342.1350757,342.1383415,342.1383415,342.1383415,343.0836438999995,Objects\116b.jpg,post,o,0.940560999999434,None,,,,,,,,00031,001,2026-01-16_11h24.31.717,MST_test,2024.2.0,59.88282129524764,2026-01-16 11h24.55.100825 +0530,
142,0,143,o,1.943284300000414,None,143,0,142,343.09843309999997,,,,,,,,,,,,,,,,,,,,,,,,,,,,,,,,,,,,,,,,,,,,,,,,,,343.0838458999997,343.09843309999997,343.5989961999994,343.58262829999967,343.58990540000013,343.5989961999994,343.5989961999994,343.5989961999994,345.55008910000015,Objects\373a.jpg,mid,o,1.943284300000414,None,,,,,,,,00031,001,2026-01-16_11h24.31.717,MST_test,2024.2.0,59.88282129524764,2026-01-16 11h24.55.100825 +0530,
143,0,144,o,1.0300360999999612,None,144,0,143,345.5652524999996,,,,,,,,,,,,,,,,,,,,,,,,,,,,,,,,,,,,,,,,,,,,,,,,,,345.55041960000017,345.5652524999996,346.09691589999966,346.04969319999964,346.09393159999945,346.09691589999966,346.09691589999966,346.09691589999966,347.1335148999997,Objects\211b.jpg,pre,o,1.0300360999999612,None,,,,,,,,00031,001,2026-01-16_11h24.31.717,MST_test,2024.2.0,59.88282129524764,2026-01-16 11h24.55.100825 +0530,
144,0,145,s,1.7525777000000744,None,145,0,144,347.1483810999998,,,,,,,,,,,,,,,,,,,,,,,,,,,,,,,,,,,,,,,,,,,,,,,,,,347.13380919999963,347.1483810999998,347.6621425000003,347.6325176,347.6586249000002,347.6621425000003,347.6621425000003,347.6621425000003,349.41640000000007,Objects\272b.jpg,post,s,1.7525777000000744,None,,,,,,,,00031,001,2026-01-16_11h24.31.717,MST_test,2024.2.0,59.88282129524764,2026-01-16 11h24.55.100825 +0530,
145,0,146,s,0.6788636999999653,None,146,0,145,349.43152779999946,,,,,,,,,,,,,,,,,,,,,,,,,,,,,,,,,,,,,,,,,,,,,,,,,,349.4169376,349.43152779999946,349.95138380000026,349.91590819999965,349.94873329999973,349.95138380000026,349.95138380000026,349.95138380000026,350.6335073,Objects\313a.jpg,mid,s,0.6788636999999653,None,,,,,,,,00031,001,2026-01-16_11h24.31.717,MST_test,2024.2.0,59.88282129524764,2026-01-16 11h24.55.100825 +0530,
146,0,147,o,1.2899053000001004,None,147,0,146,350.6483411999998,,,,,,,,,,,,,,,,,,,,,,,,,,,,,,,,,,,,,,,,,,,,,,,,,,350.6336775999998,350.6483411999998,351.14901800000007,351.1324034999998,351.1365221999995,351.14901800000007,351.14901800000007,351.14901800000007,352.4507513999997,Objects\360a.jpg,mid,o,1.2899053000001004,None,,,,,,,,00031,001,2026-01-16_11h24.31.717,MST_test,2024.2.0,59.88282129524764,2026-01-16 11h24.55.100825 +0530,
147,0,148,s,1.2460196000001815,None,148,0,147,352.4655839999996,,,,,,,,,,,,,,,,,,,,,,,,,,,,,,,,,,,,,,,,,,,,,,,,,,352.4510135999999,352.4655839999996,352.9843969000003,352.9491186999994,352.9816891999999,352.9843969000003,352.9843969000003,352.9843969000003,354.2336912999999,Objects\068b.jpg,post,s,1.2460196000001815,None,,,,,,,,00031,001,2026-01-16_11h24.31.717,MST_test,2024.2.0,59.88282129524764,2026-01-16 11h24.55.100825 +0530,
148,0,149,n,1.9764051000001928,None,149,0,148,354.2484513999998,,,,,,,,,,,,,,,,,,,,,,,,,,,,,,,,,,,,,,,,,,,,,,,,,,354.2340666,354.2484513999998,354.77379539999947,354.7324381999997,354.77081819999967,354.77379539999947,354.77379539999947,354.77379539999947,356.76614419999987,Objects\179b.jpg,pre,n,1.9764051000001928,None,,,,,,,,00031,001,2026-01-16_11h24.31.717,MST_test,2024.2.0,59.88282129524764,2026-01-16 11h24.55.100825 +0530,
149,0,150,n,1.468863799999781,None,150,0,149,356.7816671999999,,,,,,,,,,,,,,,,,,,,,,,,,,,,,,,,,,,,,,,,,,,,,,,,,,356.76626020000003,356.7816671999999,357.3379195999996,357.2660469000002,357.3344323000001,357.3379195999996,357.3379195999996,357.3379195999996,358.8166805000001,Objects\064a.jpg,mid,n,1.468863799999781,None,,,,,,,,00031,001,2026-01-16_11h24.31.717,MST_test,2024.2.0,59.88282129524764,2026-01-16 11h24.55.100825 +0530,
,,,,,,,,,,,,,,,,,,,,,,,,,,,,,,,,,,,,,,,,,,,,,,,,,,,,,,,,,,,,,,,,,,,,,,,,,358.8168329,358.8320740999998,358.8320740999998,360.51696300000003,space,1.6713379000002533,None,00031,001,2026-01-16_11h24.31.717,MST_test,2024.2.0,59.88282129524764,2026-01-16 11h24.55.100825 +0530,
