Sl_no,image_path,thisN,thisTrialN,thisRepN,key_resp_5.keys,key_resp_7.keys,key_resp_7.rt,key_resp_7.duration,key_resp_5.rt,key_resp_5.duration,key_resp_9.keys,key_resp_9.rt,key_resp_9.duration,key_resp_8.keys,practice.thisRepN,practice.thisTrialN,practice.thisN,trials.thisRepN,trials.thisTrialN,trials.thisN,thisRow.t,notes,welcome_page.started,text.started,key_resp.started,welcome_page.stopped,key_resp.keys,key_resp.rt,key_resp.duration,instructions.started,ins.started,key_resp_2.started,instructions.stopped,key_resp_2.keys,key_resp_2.rt,key_resp_2.duration,objects_only_instruction.started,text_3.started,key_resp_3.started,objects_only_instruction.stopped,key_resp_3.keys,key_resp_3.rt,key_resp_3.duration,ISI.started,text_4.started,text_4.stopped,ISI.stopped,practice_block.started,image.started,key_resp_5.started,text_5.started,practice_block.stopped,practice.key_resp_5.keys,indoor_outdoor.started,text_7.started,key_resp_7.started,indoor_outdoor.stopped,practice.key_resp_7.keys,practice.key_resp_7.rt,practice.key_resp_7.duration,image.stopped,key_resp_5.stopped,text_5.stopped,practice.key_resp_5.rt,practice.key_resp_5.duration,practice_to_main.started,text_2.started,key_resp_4.started,practice_to_main.stopped,key_resp_4.keys,key_resp_4.rt,key_resp_4.duration,objects.started,image_2.started,text_9.started,key_resp_9.started,image_2.stopped,text_9.stopped,key_resp_9.stopped,objects.stopped,category,trials.key_resp_9.keys,trials.key_resp_9.rt,trials.key_resp_9.duration,encoding_task.started,encoding_task.stopped,trials.key_resp_8.keys,end_experiment.started,text_6.started,key_resp_6.started,end_experiment.stopped,key_resp_6.keys,key_resp_6.rt,key_resp_6.duration,list_of_stimuli,encoding_task_accuracy,participant,session,date,expName,psychopyVersion,frameRate,expStart,
,,,,,,,,,,,,,,,,,,,,,,,0.0011129999984405003,0.00280189999830327,0.00280189999830327,21.15372959999877,space,21.13907630000176,None,,,,,,,,,,,,,,,,,,,,,,,,,,,,,,,,,,,,,,,,,,,,,,,,,,,,,,,,,,,,,,,,,,,,00063,001,2026-01-19_21h58.30.655,MST_task,2024.2.0,60.03716300424945,2026-01-19 21h59.23.012893 +0530,
,,,,,,,,,,,,,,,,,,,,,,,,,,,,,,21.153807999999117,21.166988299999502,21.166988299999502,35.596390800001245,space,14.423350499997468,None,,,,,,,,,,,,,,,,,,,,,,,,,,,,,,,,,,,,,,,,,,,,,,,,,,,,,,,,,,,,,00063,001,2026-01-19_21h58.30.655,MST_task,2024.2.0,60.03716300424945,2026-01-19 21h59.23.012893 +0530,
,,,,,,,,,,,,,,,,,,,,,,,,,,,,,,,,,,,,,35.59650319999855,35.621599099999,35.621599099999,42.06303090000074,space,6.432677599997987,None,,,,,,,,,,,,,,,,,,,,,,,,,,,,,,,,,,,,,,,,,,,,,,,,,,,,,,00063,001,2026-01-19_21h58.30.655,MST_task,2024.2.0,60.03716300424945,2026-01-19 21h59.23.012893 +0530,
5,practice_images/139a.jpg,0,0,1,None,j,0.32170939999923576,None,,,,,,,1,0,0,,,,42.07905810000011,,,,,,,,,,,,,,,,,,,,,,,42.07378179999796,42.07905810000011,42.606247200001235,42.56291979999878,42.57561010000063,42.606247200001235,42.606247200001235,42.606247200001235,45.57913080000071,None,45.58471600000121,45.59590179999941,45.59590179999941,45.92918120000104,j,0.32170939999923576,None,,,,,,,,,,,,,,,,,,,,,,,,,,,,,,,,,,,,,00063,001,2026-01-19_21h58.30.655,MST_task,2024.2.0,60.03716300424945,2026-01-19 21h59.23.012893 +0530,
3,practice_images/037a.jpg,1,1,1,f,None,,,1.3275288000004366,0.06389010000202688,,,,,1,1,1,,,,45.945700500000385,,,,,,,,,,,,,,,,,,,,,,,45.92951090000133,45.945700500000385,46.446039700000256,46.42950320000091,46.435336099999404,46.446039700000256,46.446039700000256,46.446039700000256,49.42922520000138,f,49.429371499998524,,,49.42943590000141,None,,,49.445608599999105,49.445608599999105,49.445608599999105,1.3275288000004366,0.06389010000202688,,,,,,,,,,,,,,,,,,,,,,,,,,,,,,,,00063,001,2026-01-19_21h58.30.655,MST_task,2024.2.0,60.03716300424945,2026-01-19 21h59.23.012893 +0530,
2,practice_images/031a.jpg,2,2,1,f,None,,,1.0445442000018375,0.1119799999978568,,,,,1,2,2,,,,49.445608599999105,,,,,,,,,,,,,,,,,,,,,,,49.42970559999958,49.445608599999105,49.94578360000014,49.92895639999915,49.934222100000625,49.94578360000014,49.94578360000014,49.94578360000014,52.929635899999994,f,52.9297633999995,,,52.9298243000012,None,,,52.94582140000057,52.94582140000057,52.94582140000057,1.0445442000018375,0.1119799999978568,,,,,,,,,,,,,,,,,,,,,,,,,,,,,,,,00063,001,2026-01-19_21h58.30.655,MST_task,2024.2.0,60.03716300424945,2026-01-19 21h59.23.012893 +0530,
4,practice_images/002b.jpg,3,3,1,f,None,,,0.9996050000008836,0.08794990000023972,,,,,1,3,3,,,,52.94582140000057,,,,,,,,,,,,,,,,,,,,,,,52.93009379999785,52.94582140000057,53.44613689999824,53.42958219999855,53.43623780000053,53.44613689999824,53.44613689999824,53.44613689999824,56.42964550000033,f,56.429778999998234,,,56.42984029999934,None,,,56.44583649999913,56.44583649999913,56.44583649999913,0.9996050000008836,0.08794990000023972,,,,,,,,,,,,,,,,,,,,,,,,,,,,,,,,00063,001,2026-01-19_21h58.30.655,MST_task,2024.2.0,60.03716300424945,2026-01-19 21h59.23.012893 +0530,
1,practice_images/013a.jpg,4,4,1,j,None,,,1.0996434000007866,0.14462139999886858,,,,,1,4,4,,,,56.44583649999913,,,,,,,,,,,,,,,,,,,,,,,56.43011489999844,56.44583649999913,56.9460302999978,56.92947640000057,56.93361789999835,56.9460302999978,56.9460302999978,56.9460302999978,59.92911399999866,j,59.929252499998256,,,59.929314400000294,None,,,59.945834599999216,59.945834599999216,59.945834599999216,1.0996434000007866,0.14462139999886858,,,,,,,,,,,,,,,,,,,,,,,,,,,,,,,,00063,001,2026-01-19_21h58.30.655,MST_task,2024.2.0,60.03716300424945,2026-01-19 21h59.23.012893 +0530,
10,practice_images/182a.jpg,5,5,1,f,None,,,1.6402710000002116,0.0953871000019717,,,,,1,5,5,,,,59.945834599999216,,,,,,,,,,,,,,,,,,,,,,,59.92960350000067,59.945834599999216,60.446025199998985,60.42948859999888,60.439977800000634,60.446025199998985,60.446025199998985,60.446025199998985,63.42953099999795,f,63.43554650000078,,,63.43560090000028,None,,,,,,1.6402710000002116,0.0953871000019717,,,,,,,,,,,,,,,,,,,,,,,,,,,,,,,,00063,001,2026-01-19_21h58.30.655,MST_task,2024.2.0,60.03716300424945,2026-01-19 21h59.23.012893 +0530,
7,practice_images/166a.jpg,6,6,1,j,None,,,2.028446600001189,0.11153659999763477,,,,,1,6,6,,,,63.445777900000394,,,,,,,,,,,,,,,,,,,,,,,63.435801799998444,63.445777900000394,63.94587540000066,63.928977399998985,63.93385339999804,63.94587540000066,63.94587540000066,63.94587540000066,66.92941399999836,j,66.92955240000083,,,66.92961709999872,None,,,66.9458252000004,66.9458252000004,66.9458252000004,2.028446600001189,0.11153659999763477,,,,,,,,,,,,,,,,,,,,,,,,,,,,,,,,00063,001,2026-01-19_21h58.30.655,MST_task,2024.2.0,60.03716300424945,2026-01-19 21h59.23.012893 +0530,
9,practice_images/180a.jpg,7,7,1,j,None,,,1.480526799998188,0.07138119999945047,,,,,1,7,7,,,,66.9458252000004,,,,,,,,,,,,,,,,,,,,,,,66.92987449999782,66.9458252000004,67.44577539999955,67.42954050000117,67.43535849999898,67.44577539999955,67.44577539999955,67.44577539999955,70.42967909999788,j,70.42980610000086,,,70.42986960000053,None,,,70.44586870000057,70.44586870000057,70.44586870000057,1.480526799998188,0.07138119999945047,,,,,,,,,,,,,,,,,,,,,,,,,,,,,,,,00063,001,2026-01-19_21h58.30.655,MST_task,2024.2.0,60.03716300424945,2026-01-19 21h59.23.012893 +0530,
8,practice_images/178a.jpg,8,8,1,f,None,,,0.9562554000003729,0.06396329999915906,,,,,1,8,8,,,,70.44586870000057,,,,,,,,,,,,,,,,,,,,,,,70.4301329000009,70.44586870000057,70.94603559999814,70.92912409999917,70.9327446999996,70.94603559999814,70.94603559999814,70.94603559999814,73.92968029999975,f,73.92980940000052,,,73.92987210000138,None,,,73.94584820000091,73.94584820000091,73.94584820000091,0.9562554000003729,0.06396329999915906,,,,,,,,,,,,,,,,,,,,,,,,,,,,,,,,00063,001,2026-01-19_21h58.30.655,MST_task,2024.2.0,60.03716300424945,2026-01-19 21h59.23.012893 +0530,
6,practice_images/158a.jpg,9,9,1,j,None,,,1.2400691999973787,0.07202690000121947,,,,,1,9,9,,,,73.94584820000091,,,,,,,,,,,,,,,,,,,,,,,73.93014519999997,73.94584820000091,74.44579169999997,74.42953529999795,74.43520179999905,74.44579169999997,74.44579169999997,74.44579169999997,77.42968349999865,j,77.42982240000129,,,77.42988970000079,None,,,77.44538420000026,77.44538420000026,77.44538420000026,1.2400691999973787,0.07202690000121947,,,,,,,,,,,,,,,,,,,,,,,,,,,,,,,,00063,001,2026-01-19_21h58.30.655,MST_task,2024.2.0,60.03716300424945,2026-01-19 21h59.23.012893 +0530,
,,,,,,,,,,,,,,,,,,,,,,,,,,,,,,,,,,,,,,,,,,,,,,,,,,,,,,,,,,,,,,,,,,77.4300801999998,77.44538420000026,77.44538420000026,104.62948459999825,space,27.176774399998976,None,,,,,,,,,,,,,,,,,,,,,,,,,00063,001,2026-01-19_21h58.30.655,MST_task,2024.2.0,60.03716300424945,2026-01-19 21h59.23.012893 +0530,
,Objects\054a.jpg,0,0,1,,,,,,,j,1.3958051000008709,0.10400320000189822,None,,,,1,0,0,104.64583380000113,,,,,,,,,,,,,,,,,,,,,,,104.6331237000013,104.64583380000113,105.145882599998,105.12951279999834,,,,,,,,,,,,,,,,,,,,,,,,,,105.13992409999992,105.145882599998,105.145882599998,105.145882599998,108.14580999999816,108.14580999999816,108.14580999999816,108.13021049999952,shoe,j,1.3958051000008709,0.10400320000189822,108.13583769999968,108.13589679999859,None,,,,,,,,,,00063,001,2026-01-19_21h58.30.655,MST_task,2024.2.0,60.03716300424945,2026-01-19 21h59.23.012893 +0530,
,Objects\303a.jpg,1,0,2,,,,,,,j,1.0399410999998508,0.1038840999972308,None,,,,2,0,1,108.14580999999816,,,,,,,,,,,,,,,,,,,,,,,108.13610789999802,108.14580999999816,108.6463932000006,108.62948849999884,,,,,,,,,,,,,,,,,,,,,,,,,,108.63872329999867,108.6463932000006,108.6463932000006,108.6463932000006,111.645826699998,111.645826699998,111.645826699998,111.6299766000011,shoe,j,1.0399410999998508,0.1038840999972308,111.63013529999807,111.63019859999986,None,,,,,,,,,,00063,001,2026-01-19_21h58.30.655,MST_task,2024.2.0,60.03716300424945,2026-01-19 21h59.23.012893 +0530,
,Objects\305a.jpg,2,0,3,,,,,,,f,2.63485270000092,0.0727030999987619,None,,,,3,0,2,111.645826699998,,,,,,,,,,,,,,,,,,,,,,,111.6304741999993,111.645826699998,112.1466818000008,112.12954349999927,,,,,,,,,,,,,,,,,,,,,,,,,,112.13833370000066,112.1466818000008,112.1466818000008,112.1466818000008,115.14582410000003,115.14582410000003,115.14582410000003,115.13037429999895,shoe,f,2.63485270000092,0.0727030999987619,115.13053089999812,115.13059649999923,None,,,,,,,,,,00063,001,2026-01-19_21h58.30.655,MST_task,2024.2.0,60.03716300424945,2026-01-19 21h59.23.012893 +0530,
,Objects\282a.jpg,3,0,4,,,,,,,j,1.2239575999992667,0.09578959999998915,None,,,,4,0,3,115.14582410000003,,,,,,,,,,,,,,,,,,,,,,,115.13088810000045,115.14582410000003,115.64588459999868,115.62953420000122,,,,,,,,,,,,,,,,,,,,,,,,,,115.63561050000135,115.64588459999868,115.64588459999868,115.64588459999868,118.64583620000121,118.64583620000121,118.64583620000121,118.63029960000131,shoe,j,1.2239575999992667,0.09578959999998915,118.63045789999887,118.63052139999854,None,,,,,,,,,,00063,001,2026-01-19_21h58.30.655,MST_task,2024.2.0,60.03716300424945,2026-01-19 21h59.23.012893 +0530,
,Objects\187a.jpg,4,0,5,,,,,,,f,0.9081172000005608,0.0716413999980432,None,,,,5,0,4,118.64583620000121,,,,,,,,,,,,,,,,,,,,,,,118.63079849999849,118.64583620000121,119.17798639999819,119.12955249999868,,,,,,,,,,,,,,,,,,,,,,,,,,119.17423190000045,119.17798639999819,119.17798639999819,119.17798639999819,,,,122.14578749999782,shoe,f,0.9081172000005608,0.0716413999980432,122.14596850000089,122.14603720000014,None,,,,,,,,,,00063,001,2026-01-19_21h58.30.655,MST_task,2024.2.0,60.03716300424945,2026-01-19 21h59.23.012893 +0530,
,Objects\243a.jpg,5,0,6,,,,,,,f,1.289363299998513,0.09701119999954244,None,,,,6,0,5,122.16251809999812,,,,,,,,,,,,,,,,,,,,,,,122.14643699999942,122.16251809999812,122.6687548000009,122.64620070000092,,,,,,,,,,,,,,,,,,,,,,,,,,122.66623210000034,122.6687548000009,122.6687548000009,122.6687548000009,,,,125.66278600000078,shoe,f,1.289363299998513,0.09701119999954244,125.66296399999919,125.66304179999861,None,,,,,,,,,,00063,001,2026-01-19_21h58.30.655,MST_task,2024.2.0,60.03716300424945,2026-01-19 21h59.23.012893 +0530,
,Objects\199a.jpg,6,0,7,,,,,,,f,1.1322738000017125,0.07138560000021243,None,,,,7,0,6,125.67916970000078,,,,,,,,,,,,,,,,,,,,,,,125.66335270000127,125.67916970000078,126.20197109999935,126.16290179999851,,,,,,,,,,,,,,,,,,,,,,,,,,126.19911739999952,126.20197109999935,126.20197109999935,126.20197109999935,,,,129.1793856000004,shoe,f,1.1322738000017125,0.07138560000021243,129.17955449999863,129.17962260000058,None,,,,,,,,,,00063,001,2026-01-19_21h58.30.655,MST_task,2024.2.0,60.03716300424945,2026-01-19 21h59.23.012893 +0530,
,Objects\300a.jpg,7,0,8,,,,,,,f,1.7733398000018497,0.08746769999925164,None,,,,8,0,7,129.19578209999963,,,,,,,,,,,,,,,,,,,,,,,129.17991099999927,129.19578209999963,129.6971436999993,129.67961970000033,,,,,,,,,,,,,,,,,,,,,,,,,,129.6938657999999,129.6971436999993,129.6971436999993,129.6971436999993,,,,132.6961440999985,indoor,f,1.7733398000018497,0.08746769999925164,132.7020498999991,132.70211560000098,None,,,,,,,,,,00063,001,2026-01-19_21h58.30.655,MST_task,2024.2.0,60.03716300424945,2026-01-19 21h59.23.012893 +0530,
,Objects\168a.jpg,8,0,9,,,,,,,j,1.9447185000026366,0.11261229999945499,None,,,,9,0,8,132.71252489999824,,,,,,,,,,,,,,,,,,,,,,,132.70236769999974,132.71252489999824,133.2128843999999,133.1961955000006,,,,,,,,,,,,,,,,,,,,,,,,,,133.2047500000008,133.2128843999999,133.2128843999999,133.2128843999999,136.21249739999985,136.21249739999985,136.21249739999985,136.19691969999985,indoor,j,1.9447185000026366,0.11261229999945499,136.1970799999981,136.19714209999802,None,,,,,,,,,,00063,001,2026-01-19_21h58.30.655,MST_task,2024.2.0,60.03716300424945,2026-01-19 21h59.23.012893 +0530,
,Objects\179a.jpg,9,0,10,,,,,,,f,1.597318299998733,0.08032939999975497,None,,,,10,0,9,136.21249739999985,,,,,,,,,,,,,,,,,,,,,,,136.19742340000084,136.21249739999985,136.71254979999867,136.69629599999826,,,,,,,,,,,,,,,,,,,,,,,,,,136.70216280000022,136.71254979999867,136.71254979999867,136.71254979999867,139.71250320000036,139.71250320000036,139.71250320000036,139.69699620000029,indoor,f,1.597318299998733,0.08032939999975497,139.6971654000008,139.69723610000074,None,,,,,,,,,,00063,001,2026-01-19_21h58.30.655,MST_task,2024.2.0,60.03716300424945,2026-01-19 21h59.23.012893 +0530,
,Objects\015a.jpg,10,0,11,,,,,,,f,1.0254547000004095,0.07193019999976968,None,,,,11,0,10,139.71250320000036,,,,,,,,,,,,,,,,,,,,,,,139.69755369999984,139.71250320000036,140.2127877999992,140.19617749999816,,,,,,,,,,,,,,,,,,,,,,,,,,140.20591269999932,140.2127877999992,140.2127877999992,140.2127877999992,143.2125616000012,143.2125616000012,143.2125616000012,143.1967416999978,indoor,f,1.0254547000004095,0.07193019999976968,143.19689559999824,143.19695839999986,None,,,,,,,,,,00063,001,2026-01-19_21h58.30.655,MST_task,2024.2.0,60.03716300424945,2026-01-19 21h59.23.012893 +0530,
,Objects\220a.jpg,11,0,12,,,,,,,j,1.0526944999983243,0.10450670000136597,None,,,,12,0,11,143.2125616000012,,,,,,,,,,,,,,,,,,,,,,,143.19723779999913,143.2125616000012,143.7129814,143.69621969999935,,,,,,,,,,,,,,,,,,,,,,,,,,143.70265440000003,143.7129814,143.7129814,143.7129814,146.71215839999786,146.71215839999786,146.71215839999786,146.6967638999995,indoor,j,1.0526944999983243,0.10450670000136597,146.69692399999985,146.69698760000028,None,,,,,,,,,,00063,001,2026-01-19_21h58.30.655,MST_task,2024.2.0,60.03716300424945,2026-01-19 21h59.23.012893 +0530,
,Objects\159a.jpg,12,0,13,,,,,,,f,0.7932802999966952,0.07155250000141677,None,,,,13,0,12,146.71215839999786,,,,,,,,,,,,,,,,,,,,,,,146.69726609999998,146.71215839999786,147.21295819999796,147.19618179999816,,,,,,,,,,,,,,,,,,,,,,,,,,147.20573380000133,147.21295819999796,147.21295819999796,147.21295819999796,150.21252370000002,150.21252370000002,150.21252370000002,150.19675310000093,indoor,f,0.7932802999966952,0.07155250000141677,150.19692339999892,150.19699169999876,None,,,,,,,,,,00063,001,2026-01-19_21h58.30.655,MST_task,2024.2.0,60.03716300424945,2026-01-19 21h59.23.012893 +0530,
,Objects\319a.jpg,13,0,14,,,,,,,f,0.8048287000019627,0.09596500000043306,None,,,,14,0,13,150.21252370000002,,,,,,,,,,,,,,,,,,,,,,,150.19729440000083,150.21252370000002,150.71273649999785,150.69568660000004,,,,,,,,,,,,,,,,,,,,,,,,,,150.70182639999985,150.71273649999785,150.71273649999785,150.71273649999785,153.71252319999985,153.71252319999985,153.71252319999985,153.6970795999987,indoor,f,0.8048287000019627,0.09596500000043306,153.69723919999888,153.69730210000125,None,,,,,,,,,,00063,001,2026-01-19_21h58.30.655,MST_task,2024.2.0,60.03716300424945,2026-01-19 21h59.23.012893 +0530,
,Objects\052a.jpg,14,0,15,,,,,,,f,1.6732592000007571,0.0955924000008963,None,,,,15,0,14,153.71252319999985,,,,,,,,,,,,,,,,,,,,,,,153.6975945000013,153.71252319999985,154.2129576999978,154.19617279999875,,,,,,,,,,,,,,,,,,,,,,,,,,154.20818119999967,154.2129576999978,154.2129576999978,154.2129576999978,157.21246020000035,157.21246020000035,157.21246020000035,157.1970455999981,shoe,f,1.6732592000007571,0.0955924000008963,157.2028524999987,157.2028919000004,None,,,,,,,,,,00063,001,2026-01-19_21h58.30.655,MST_task,2024.2.0,60.03716300424945,2026-01-19 21h59.23.012893 +0530,
,Objects\160a.jpg,15,0,16,,,,,,,f,1.052825999999186,0.10464960000172141,None,,,,16,0,15,157.21246020000035,,,,,,,,,,,,,,,,,,,,,,,157.2030451999999,157.21246020000035,157.71271499999784,157.6961784999985,,,,,,,,,,,,,,,,,,,,,,,,,,157.70458339999823,157.71271499999784,157.71271499999784,157.71271499999784,160.71239259999857,160.71239259999857,160.71239259999857,160.69696509999994,shoe,f,1.052825999999186,0.10464960000172141,160.69712530000106,160.69718920000014,None,,,,,,,,,,00063,001,2026-01-19_21h58.30.655,MST_task,2024.2.0,60.03716300424945,2026-01-19 21h59.23.012893 +0530,
,Objects\280a.jpg,16,0,17,,,,,,,j,1.5214653000002727,0.09556469999733963,None,,,,17,0,16,160.71239259999857,,,,,,,,,,,,,,,,,,,,,,,160.6974721000006,160.71239259999857,161.2127505999997,161.1962053999996,,,,,,,,,,,,,,,,,,,,,,,,,,161.20519059999788,161.2127505999997,161.2127505999997,161.2127505999997,164.21253559999968,164.21253559999968,164.21253559999968,164.19703429999936,shoe,j,1.5214653000002727,0.09556469999733963,164.19720489999963,164.19726850000006,None,,,,,,,,,,00063,001,2026-01-19_21h58.30.655,MST_task,2024.2.0,60.03716300424945,2026-01-19 21h59.23.012893 +0530,
,Objects\347a.jpg,17,0,18,,,,,,,j,0.965533200000209,0.12791250000009313,None,,,,18,0,17,164.21253559999968,,,,,,,,,,,,,,,,,,,,,,,164.19757910000044,164.21253559999968,164.71275790000072,164.6962495000007,,,,,,,,,,,,,,,,,,,,,,,,,,164.7014926999982,164.71275790000072,164.71275790000072,164.71275790000072,167.71210599999904,167.71210599999904,167.71210599999904,167.69643319999886,shoe,j,0.965533200000209,0.12791250000009313,167.69652679999854,167.6965612999993,None,,,,,,,,,,00063,001,2026-01-19_21h58.30.655,MST_task,2024.2.0,60.03716300424945,2026-01-19 21h59.23.012893 +0530,
,Objects\076a.jpg,18,0,19,,,,,,,f,1.4490354000008665,0.09638629999972181,None,,,,19,0,18,167.71210599999904,,,,,,,,,,,,,,,,,,,,,,,167.69671820000076,167.71210599999904,168.21274659999835,168.19622499999969,,,,,,,,,,,,,,,,,,,,,,,,,,168.2049244000009,168.21274659999835,168.21274659999835,168.21274659999835,171.21248579999883,171.21248579999883,171.21248579999883,171.19689319999816,shoe,f,1.4490354000008665,0.09638629999972181,171.19708589999937,171.19715789999827,None,,,,,,,,,,00063,001,2026-01-19_21h58.30.655,MST_task,2024.2.0,60.03716300424945,2026-01-19 21h59.23.012893 +0530,
,Objects\156a.jpg,19,0,20,,,,,,,j,1.389524000001984,0.09579029999804334,None,,,,20,0,19,171.21248579999883,,,,,,,,,,,,,,,,,,,,,,,171.19757709999976,171.21248579999883,171.7124077999979,171.69619369999782,,,,,,,,,,,,,,,,,,,,,,,,,,171.70281819999946,171.7124077999979,171.7124077999979,171.7124077999979,174.71333249999952,174.71333249999952,174.71333249999952,174.69704719999936,shoe,j,1.389524000001984,0.09579029999804334,174.697204600001,174.69726960000116,None,,,,,,,,,,00063,001,2026-01-19_21h58.30.655,MST_task,2024.2.0,60.03716300424945,2026-01-19 21h59.23.012893 +0530,
,Objects\297a.jpg,20,0,21,,,,,,,j,0.8964813999991748,0.1033454000025813,None,,,,21,0,20,174.71333249999952,,,,,,,,,,,,,,,,,,,,,,,174.69756280000001,174.71333249999952,,175.21261389999927,,,,,,,,,,,,,,,,,,,,,,,,,,175.22536069999842,175.2297151999992,175.2297151999992,175.2297151999992,,,,178.2129320999993,shoe,j,0.8964813999991748,0.1033454000025813,178.21309810000093,178.21316110000043,None,,,,,,,,,,00063,001,2026-01-19_21h58.30.655,MST_task,2024.2.0,60.03716300424945,2026-01-19 21h59.23.012893 +0530,
,Objects\205a.jpg,21,0,22,,,,,,,f,1.740573500002938,0.12732779999714694,None,,,,22,0,21,178.22919080000065,,,,,,,,,,,,,,,,,,,,,,,178.2134576999997,178.22919080000065,178.72962299999926,178.7129152999987,,,,,,,,,,,,,,,,,,,,,,,,,,178.72458639999968,178.72962299999926,178.72962299999926,178.72962299999926,181.72909679999793,181.72909679999793,181.72909679999793,181.71359699999812,indoor,f,1.740573500002938,0.12732779999714694,181.71899869999834,181.71904709999944,None,,,,,,,,,,00063,001,2026-01-19_21h58.30.655,MST_task,2024.2.0,60.03716300424945,2026-01-19 21h59.23.012893 +0530,
,Objects\115a.jpg,22,0,23,,,,,,,f,0.7365702000024612,0.10389889999714796,None,,,,23,0,22,181.72909679999793,,,,,,,,,,,,,,,,,,,,,,,181.7192384000009,181.72909679999793,182.22975619999852,182.2126907999991,,,,,,,,,,,,,,,,,,,,,,,,,,182.2222686999994,182.22975619999852,182.22975619999852,182.22975619999852,185.22917759999837,185.22917759999837,185.22917759999837,185.21367570000075,indoor,f,0.7365702000024612,0.10389889999714796,185.2138307999994,185.2138950999979,None,,,,,,,,,,00063,001,2026-01-19_21h58.30.655,MST_task,2024.2.0,60.03716300424945,2026-01-19 21h59.23.012893 +0530,
,Objects\292a.jpg,23,0,24,,,,,,,j,1.2678793999984919,0.0807146000006469,None,,,,24,0,23,185.22917759999837,,,,,,,,,,,,,,,,,,,,,,,185.21417419999852,185.22917759999837,185.72965249999834,185.71249270000044,,,,,,,,,,,,,,,,,,,,,,,,,,185.7182329999996,185.72965249999834,185.72965249999834,185.72965249999834,188.72919529999854,188.72919529999854,188.72919529999854,188.71343960000013,indoor,j,1.2678793999984919,0.0807146000006469,188.71360410000125,188.71366919999855,None,,,,,,,,,,00063,001,2026-01-19_21h58.30.655,MST_task,2024.2.0,60.03716300424945,2026-01-19 21h59.23.012893 +0530,
,Objects\066a.jpg,24,0,25,,,,,,,f,1.1826918000006117,0.14377370000147494,None,,,,25,0,24,188.72919529999854,,,,,,,,,,,,,,,,,,,,,,,188.7139548999985,188.72919529999854,189.23906129999887,189.21295779999855,,,,,,,,,,,,,,,,,,,,,,,,,,189.23645469999974,189.23906129999887,189.23906129999887,189.23906129999887,,,,192.2295731000013,indoor,f,1.1826918000006117,0.14377370000147494,192.2297398999981,192.2298078999993,None,,,,,,,,,,00063,001,2026-01-19_21h58.30.655,MST_task,2024.2.0,60.03716300424945,2026-01-19 21h59.23.012893 +0530,
,Objects\028a.jpg,25,0,26,,,,,,,f,1.1795744000010018,0.11995099999694503,None,,,,26,0,25,192.24560579999888,,,,,,,,,,,,,,,,,,,,,,,192.23009530000127,192.24560579999888,192.74606119999953,192.72957580000002,,,,,,,,,,,,,,,,,,,,,,,,,,192.73600760000045,192.74606119999953,192.74606119999953,192.74606119999953,195.7457661999979,195.7457661999979,195.7457661999979,195.7303748000013,indoor,f,1.1795744000010018,0.11995099999694503,195.7305320000014,195.7305954000003,None,,,,,,,,,,00063,001,2026-01-19_21h58.30.655,MST_task,2024.2.0,60.03716300424945,2026-01-19 21h59.23.012893 +0530,
,Objects\301a.jpg,26,0,27,,,,,,,f,2.7837350000008882,0.09636630000022706,None,,,,27,0,26,195.7457661999979,,,,,,,,,,,,,,,,,,,,,,,195.73087160000068,195.7457661999979,196.24605689999953,196.2303283000001,,,,,,,,,,,,,,,,,,,,,,,,,,196.23924579999948,196.24605689999953,196.24605689999953,196.24605689999953,199.2456714,199.2456714,199.2456714,199.2303807999997,indoor,f,2.7837350000008882,0.09636630000022706,199.2305379999998,199.23060049999913,None,,,,,,,,,,00063,001,2026-01-19_21h58.30.655,MST_task,2024.2.0,60.03716300424945,2026-01-19 21h59.23.012893 +0530,
,Objects\242a.jpg,27,0,28,,,,,,,j,1.9553636999989976,0.11141250000218861,None,,,,28,0,27,199.2456714,,,,,,,,,,,,,,,,,,,,,,,199.23089450000043,199.2456714,199.7467527000008,199.72958129999824,,,,,,,,,,,,,,,,,,,,,,,,,,199.73916539999846,199.7467527000008,199.7467527000008,199.7467527000008,202.74579829999857,202.74579829999857,202.74579829999857,202.73044980000122,indoor,j,1.9553636999989976,0.11141250000218861,202.73061919999964,202.73069960000066,None,,,,,,,,,,00063,001,2026-01-19_21h58.30.655,MST_task,2024.2.0,60.03716300424945,2026-01-19 21h59.23.012893 +0530,
,Objects\200a.jpg,28,0,29,,,,,,,j,2.775568999997631,0.08006319999913103,None,,,,29,0,28,202.74579829999857,,,,,,,,,,,,,,,,,,,,,,,202.73099459999867,202.74579829999857,203.24587249999968,203.22995810000066,,,,,,,,,,,,,,,,,,,,,,,,,,203.24220269999932,203.24587249999968,203.24587249999968,203.24587249999968,206.24577280000085,206.24577280000085,206.24577280000085,206.23035879999952,shoe,j,2.775568999997631,0.08006319999913103,206.23609009999927,206.2361275000003,None,,,,,,,,,,00063,001,2026-01-19_21h58.30.655,MST_task,2024.2.0,60.03716300424945,2026-01-19 21h59.23.012893 +0530,
,Objects\188a.jpg,29,0,30,,,,,,,f,2.7559665000007953,0.07935639999777777,None,,,,30,0,29,206.24577280000085,,,,,,,,,,,,,,,,,,,,,,,206.2362738999982,206.24577280000085,206.74617790000048,206.72959899999842,,,,,,,,,,,,,,,,,,,,,,,,,,206.74207449999813,206.74617790000048,206.74617790000048,206.74617790000048,209.74578309999924,209.74578309999924,209.74578309999924,209.7303475000008,shoe,f,2.7559665000007953,0.07935639999777777,209.73051959999793,209.73058400000082,None,,,,,,,,,,00063,001,2026-01-19_21h58.30.655,MST_task,2024.2.0,60.03716300424945,2026-01-19 21h59.23.012893 +0530,
,Objects\325a.jpg,30,0,31,,,,,,,j,1.3334447999986878,0.0801590999981272,None,,,,31,0,30,209.74578309999924,,,,,,,,,,,,,,,,,,,,,,,209.73100839999825,209.74578309999924,210.30454299999838,210.22929999999906,,,,,,,,,,,,,,,,,,,,,,,,,,210.30128029999833,210.30454299999838,210.30454299999838,210.30454299999838,,,,213.2462615000004,shoe,j,1.3334447999986878,0.0801590999981272,213.2464398000011,213.2465142000001,None,,,,,,,,,,00063,001,2026-01-19_21h58.30.655,MST_task,2024.2.0,60.03716300424945,2026-01-19 21h59.23.012893 +0530,
,Objects\201a.jpg,31,0,32,,,,,,,f,1.2591688000029535,0.09637979999752133,None,,,,32,0,31,213.26250589999836,,,,,,,,,,,,,,,,,,,,,,,213.24682829999801,213.26250589999836,213.7626081999988,213.74595599999884,,,,,,,,,,,,,,,,,,,,,,,,,,213.75545039999997,213.7626081999988,213.7626081999988,213.7626081999988,216.76239989999885,216.76239989999885,216.76239989999885,216.74690790000022,shoe,f,1.2591688000029535,0.09637979999752133,216.74709749999965,216.74716389999958,None,,,,,,,,,,00063,001,2026-01-19_21h58.30.655,MST_task,2024.2.0,60.03716300424945,2026-01-19 21h59.23.012893 +0530,
,Objects\005a.jpg,32,0,33,,,,,,,j,1.9105895000029705,0.09635919999709586,None,,,,33,0,32,216.76239989999885,,,,,,,,,,,,,,,,,,,,,,,216.74746120000054,216.76239989999885,217.2869079000011,217.24591539999892,,,,,,,,,,,,,,,,,,,,,,,,,,217.28410390000136,217.2869079000011,217.2869079000011,217.2869079000011,,,,220.2628975999978,shoe,j,1.9105895000029705,0.09635919999709586,220.2630638999981,220.26313239999945,None,,,,,,,,,,00063,001,2026-01-19_21h58.30.655,MST_task,2024.2.0,60.03716300424945,2026-01-19 21h59.23.012893 +0530,
,Objects\238a.jpg,33,0,34,,,,,,,f,1.042800700000953,0.11199789999955101,None,,,,34,0,33,220.27910509999856,,,,,,,,,,,,,,,,,,,,,,,220.26352939999924,220.27910509999856,220.77936259999842,220.7626283999998,,,,,,,,,,,,,,,,,,,,,,,,,,220.77434039999935,220.77936259999842,220.77936259999842,220.77936259999842,223.779151499999,223.779151499999,223.779151499999,223.7637434999997,shoe,f,1.042800700000953,0.11199789999955101,223.76393330000064,223.76400369999828,None,,,,,,,,,,00063,001,2026-01-19_21h58.30.655,MST_task,2024.2.0,60.03716300424945,2026-01-19 21h59.23.012893 +0530,
,Objects\096a.jpg,34,0,35,,,,,,,f,1.3581219000006968,0.095975999996881,None,,,,35,0,34,223.779151499999,,,,,,,,,,,,,,,,,,,,,,,223.7643242999984,223.779151499999,224.27961589999904,224.26320750000014,,,,,,,,,,,,,,,,,,,,,,,,,,224.27127449999898,224.27961589999904,224.27961589999904,224.27961589999904,227.2791131999984,227.2791131999984,227.2791131999984,227.26381150000088,shoe,f,1.3581219000006968,0.095975999996881,227.26398540000082,227.26405589999922,None,,,,,,,,,,00063,001,2026-01-19_21h58.30.655,MST_task,2024.2.0,60.03716300424945,2026-01-19 21h59.23.012893 +0530,
,Objects\049a.jpg,35,0,36,,,,,,,f,2.082466799998656,0.09574200000133715,None,,,,36,0,35,227.2791131999984,,,,,,,,,,,,,,,,,,,,,,,227.26436199999807,227.2791131999984,227.77929669999867,227.76258419999795,,,,,,,,,,,,,,,,,,,,,,,,,,227.77331269999922,227.77929669999867,227.77929669999867,227.77929669999867,230.77911820000008,230.77911820000008,230.77911820000008,230.7637719000013,indoor,f,2.082466799998656,0.09574200000133715,230.7690616,230.76910289999796,None,,,,,,,,,,00063,001,2026-01-19_21h58.30.655,MST_task,2024.2.0,60.03716300424945,2026-01-19 21h59.23.012893 +0530,
,Objects\246a.jpg,36,0,37,,,,,,,f,1.3504337000013038,0.0963807000007364,None,,,,37,0,36,230.77911820000008,,,,,,,,,,,,,,,,,,,,,,,230.7692700999978,230.77911820000008,231.27931719999833,231.2626014999987,,,,,,,,,,,,,,,,,,,,,,,,,,231.2714973000002,231.27931719999833,231.27931719999833,231.27931719999833,234.27912619999915,234.27912619999915,234.27912619999915,234.26419389999865,indoor,f,1.3504337000013038,0.0963807000007364,234.26437240000087,234.264435699999,None,,,,,,,,,,00063,001,2026-01-19_21h58.30.655,MST_task,2024.2.0,60.03716300424945,2026-01-19 21h59.23.012893 +0530,
,Objects\333a.jpg,37,0,38,,,,,,,f,1.542114700001548,0.08705940000072587,None,,,,38,0,37,234.27912619999915,,,,,,,,,,,,,,,,,,,,,,,234.2647126999982,234.27912619999915,234.7842466000002,234.762975499998,,,,,,,,,,,,,,,,,,,,,,,,,,234.78162990000055,234.7842466000002,234.7842466000002,234.7842466000002,,,,237.7794819999981,indoor,f,1.542114700001548,0.08705940000072587,237.77964729999803,237.7797154,None,,,,,,,,,,00063,001,2026-01-19_21h58.30.655,MST_task,2024.2.0,60.03716300424945,2026-01-19 21h59.23.012893 +0530,
,Objects\384a.jpg,38,0,39,,,,,,,f,1.1014733000010892,0.12064950000058161,None,,,,39,0,38,237.7958656999981,,,,,,,,,,,,,,,,,,,,,,,237.78036359999896,237.7958656999981,238.29599260000032,238.27952079999886,,,,,,,,,,,,,,,,,,,,,,,,,,238.28720740000063,238.29599260000032,238.29599260000032,238.29599260000032,,,,241.27994839999883,indoor,f,1.1014733000010892,0.12064950000058161,241.28011609999885,241.28018330000123,None,,,,,,,,,,00063,001,2026-01-19_21h58.30.655,MST_task,2024.2.0,60.03716300424945,2026-01-19 21h59.23.012893 +0530,
,Objects\001a.jpg,39,0,40,,,,,,,f,0.9854436999994505,0.08025479999923846,None,,,,40,0,39,241.29554120000103,,,,,,,,,,,,,,,,,,,,,,,241.28047539999898,241.29554120000103,241.79606169999897,241.77952129999903,,,,,,,,,,,,,,,,,,,,,,,,,,241.7857694000013,241.79606169999897,241.79606169999897,241.79606169999897,244.79586550000022,244.79586550000022,244.79586550000022,244.7807881000008,indoor,f,0.9854436999994505,0.08025479999923846,244.78097909999997,244.78105049999795,None,,,,,,,,,,00063,001,2026-01-19_21h58.30.655,MST_task,2024.2.0,60.03716300424945,2026-01-19 21h59.23.012893 +0530,
,Objects\126a.jpg,40,0,41,,,,,,,j,1.2058593000001565,0.10411320000275737,None,,,,41,0,40,244.79586550000022,,,,,,,,,,,,,,,,,,,,,,,244.7813599000001,244.79586550000022,245.2961338999994,245.2795221999986,,,,,,,,,,,,,,,,,,,,,,,,,,245.28840560000026,245.2961338999994,245.2961338999994,245.2961338999994,248.2955570999984,248.2955570999984,248.2955570999984,248.2806677999979,indoor,j,1.2058593000001565,0.10411320000275737,248.28083949999927,248.28090220000013,None,,,,,,,,,,00063,001,2026-01-19_21h58.30.655,MST_task,2024.2.0,60.03716300424945,2026-01-19 21h59.23.012893 +0530,
,Objects\371a.jpg,41,0,42,,,,,,,j,0.8250510999969265,0.05602320000252803,None,,,,42,0,41,248.2955570999984,,,,,,,,,,,,,,,,,,,,,,,248.28117949999796,248.2955570999984,248.79641469999842,248.7804228999994,,,,,,,,,,,,,,,,,,,,,,,,,,248.79069019999952,248.79641469999842,248.79641469999842,248.79641469999842,251.79758159999983,251.79758159999983,251.79758159999983,251.78114970000024,indoor,j,0.8250510999969265,0.05602320000252803,251.78130999999848,251.7813712999996,None,,,,,,,,,,00063,001,2026-01-19_21h58.30.655,MST_task,2024.2.0,60.03716300424945,2026-01-19 21h59.23.012893 +0530,
,Objects\354a.jpg,42,0,43,,,,,,,f,2.875326400000631,0.07194990000061807,None,,,,43,0,42,251.79758159999983,,,,,,,,,,,,,,,,,,,,,,,251.78165459999946,251.79758159999983,,252.29611210000076,,,,,,,,,,,,,,,,,,,,,,,,,,252.31146850000005,252.3142426000013,252.3142426000013,252.3142426000013,,,,255.29605079999965,shoe,f,2.875326400000631,0.07194990000061807,255.30240269999922,255.3024501,None,,,,,,,,,,00063,001,2026-01-19_21h58.30.655,MST_task,2024.2.0,60.03716300424945,2026-01-19 21h59.23.012893 +0530,
,Objects\145a.jpg,43,0,44,,,,,,,f,0.9211735000026238,0.13600969999970403,None,,,,44,0,43,255.3120889999991,,,,,,,,,,,,,,,,,,,,,,,255.30270699999892,255.3120889999991,255.8129396000004,255.79625189999933,,,,,,,,,,,,,,,,,,,,,,,,,,255.80638719999843,255.8129396000004,255.8129396000004,255.8129396000004,258.8125276999999,258.8125276999999,258.8125276999999,258.7967982000009,shoe,f,0.9211735000026238,0.13600969999970403,258.79695210000136,258.79701449999993,None,,,,,,,,,,00063,001,2026-01-19_21h58.30.655,MST_task,2024.2.0,60.03716300424945,2026-01-19 21h59.23.012893 +0530,
,Objects\370a.jpg,44,0,45,,,,,,,f,1.8132455000013579,0.11936470000000554,None,,,,45,0,44,258.8125276999999,,,,,,,,,,,,,,,,,,,,,,,258.79741450000074,258.8125276999999,259.3128792999996,259.2962751999985,,,,,,,,,,,,,,,,,,,,,,,,,,259.3031951999983,259.3128792999996,259.3128792999996,259.3128792999996,262.3124069000005,262.3124069000005,262.3124069000005,262.2975101000011,shoe,f,1.8132455000013579,0.11936470000000554,262.2976993000011,262.2977635999996,None,,,,,,,,,,00063,001,2026-01-19_21h58.30.655,MST_task,2024.2.0,60.03716300424945,2026-01-19 21h59.23.012893 +0530,
,Objects\324a.jpg,45,0,46,,,,,,,f,0.9525651000003563,0.12865510000119684,None,,,,46,0,45,262.3124069000005,,,,,,,,,,,,,,,,,,,,,,,262.29805009999836,262.3124069000005,262.81293079999887,262.79627840000103,,,,,,,,,,,,,,,,,,,,,,,,,,262.8070958999997,262.81293079999887,262.81293079999887,262.81293079999887,265.81254270000136,265.81254270000136,265.81254270000136,265.7969869999979,shoe,f,0.9525651000003563,0.12865510000119684,265.79717059999894,265.79723739999827,None,,,,,,,,,,00063,001,2026-01-19_21h58.30.655,MST_task,2024.2.0,60.03716300424945,2026-01-19 21h59.23.012893 +0530,
,Objects\257a.jpg,46,0,47,,,,,,,f,1.4202932999978657,0.1114199000003282,None,,,,47,0,46,265.81254270000136,,,,,,,,,,,,,,,,,,,,,,,265.7976912999984,265.81254270000136,266.31383659999847,266.2963118000007,,,,,,,,,,,,,,,,,,,,,,,,,,266.30544200000077,266.31383659999847,266.31383659999847,266.31383659999847,,,,269.312979899998,shoe,f,1.4202932999978657,0.1114199000003282,269.31318009999814,269.31325410000136,None,,,,,,,,,,00063,001,2026-01-19_21h58.30.655,MST_task,2024.2.0,60.03716300424945,2026-01-19 21h59.23.012893 +0530,
,Objects\138a.jpg,47,0,48,,,,,,,j,1.0240370999999868,0.09651310000117519,None,,,,48,0,47,269.32914230000097,,,,,,,,,,,,,,,,,,,,,,,269.3135653999998,269.32914230000097,269.829566299999,269.81265599999824,,,,,,,,,,,,,,,,,,,,,,,,,,269.82214979999844,269.829566299999,269.829566299999,269.829566299999,272.8287913999993,272.8287913999993,272.8287913999993,272.8136354999988,shoe,j,1.0240370999999868,0.09651310000117519,272.81379129999914,272.8138534999998,None,,,,,,,,,,00063,001,2026-01-19_21h58.30.655,MST_task,2024.2.0,60.03716300424945,2026-01-19 21h59.23.012893 +0530,
,Objects\374a.jpg,48,0,49,,,,,,,f,1.065918000000238,0.1045881999998528,None,,,,49,0,48,272.8287913999993,,,,,,,,,,,,,,,,,,,,,,,272.81425039999885,272.8287913999993,273.33955480000077,273.3137209999986,,,,,,,,,,,,,,,,,,,,,,,,,,273.3365279999998,273.33955480000077,273.33955480000077,273.33955480000077,,,,276.32954410000093,shoe,f,1.065918000000238,0.1045881999998528,276.3297204999981,276.32979630000045,None,,,,,,,,,,00063,001,2026-01-19_21h58.30.655,MST_task,2024.2.0,60.03716300424945,2026-01-19 21h59.23.012893 +0530,
,Objects\174a.jpg,49,0,50,,,,,,,f,1.9352400000025227,0.11263169999801903,None,,,,50,0,49,276.3455463999999,,,,,,,,,,,,,,,,,,,,,,,276.3302156999998,276.3455463999999,276.84621809999953,276.829536199999,,,,,,,,,,,,,,,,,,,,,,,,,,276.84065610000107,276.84621809999953,276.84621809999953,276.84621809999953,279.84585239999797,279.84585239999797,279.84585239999797,279.83007350000116,indoor,f,1.9352400000025227,0.11263169999801903,279.83557350000046,279.83562510000047,None,,,,,,,,,,00063,001,2026-01-19_21h58.30.655,MST_task,2024.2.0,60.03716300424945,2026-01-19 21h59.23.012893 +0530,
,Objects\068a.jpg,50,0,51,,,,,,,j,1.0763947000014014,0.1680162000011478,None,,,,51,0,50,279.84585239999797,,,,,,,,,,,,,,,,,,,,,,,279.83583200000066,279.84585239999797,280.34569510000074,280.3292211000007,,,,,,,,,,,,,,,,,,,,,,,,,,280.338555899998,280.34569510000074,280.34569510000074,280.34569510000074,283.3458690000007,283.3458690000007,283.3458690000007,283.3303601999978,indoor,j,1.0763947000014014,0.1680162000011478,283.33051709999927,283.33057859999826,None,,,,,,,,,,00063,001,2026-01-19_21h58.30.655,MST_task,2024.2.0,60.03716300424945,2026-01-19 21h59.23.012893 +0530,
,Objects\306a.jpg,51,0,52,,,,,,,f,1.1673816999973496,0.09596930000043358,None,,,,52,0,51,283.3458690000007,,,,,,,,,,,,,,,,,,,,,,,283.33087149999847,283.3458690000007,283.8541401000002,283.82928119999997,,,,,,,,,,,,,,,,,,,,,,,,,,283.85134579999794,283.8541401000002,283.8541401000002,283.8541401000002,,,,286.84624220000114,indoor,f,1.1673816999973496,0.09596930000043358,286.84641510000074,286.8464759999988,None,,,,,,,,,,00063,001,2026-01-19_21h58.30.655,MST_task,2024.2.0,60.03716300424945,2026-01-19 21h59.23.012893 +0530,
,Objects\241a.jpg,52,0,53,,,,,,,f,1.73859739999898,0.11199050000141142,None,,,,53,0,52,286.86254779999945,,,,,,,,,,,,,,,,,,,,,,,286.8467410000012,286.86254779999945,287.36283569999796,287.3460281000007,,,,,,,,,,,,,,,,,,,,,,,,,,287.3572967,287.36283569999796,287.36283569999796,287.36283569999796,,,,290.3471381999989,indoor,f,1.73859739999898,0.11199050000141142,290.34730409999975,290.3473708999991,None,,,,,,,,,,00063,001,2026-01-19_21h58.30.655,MST_task,2024.2.0,60.03716300424945,2026-01-19 21h59.23.012893 +0530,
,Objects\062a.jpg,53,0,54,,,,,,,f,1.0153328999986115,0.07975069999883999,None,,,,54,0,53,290.36252629999944,,,,,,,,,,,,,,,,,,,,,,,290.3476613999992,290.36252629999944,290.86271289999786,290.8463158000013,,,,,,,,,,,,,,,,,,,,,,,,,,290.85267269999895,290.86271289999786,290.86271289999786,290.86271289999786,293.8623728999992,293.8623728999992,293.8623728999992,293.84710279999854,indoor,f,1.0153328999986115,0.07975069999883999,293.8472909000011,293.84736039999916,None,,,,,,,,,,00063,001,2026-01-19_21h58.30.655,MST_task,2024.2.0,60.03716300424945,2026-01-19 21h59.23.012893 +0530,
,Objects\361a.jpg,54,0,55,,,,,,,f,1.1717025999969337,0.11099470000044676,None,,,,55,0,54,293.8623728999992,,,,,,,,,,,,,,,,,,,,,,,293.84767959999954,293.8623728999992,294.3628119999994,294.3462671999987,,,,,,,,,,,,,,,,,,,,,,,,,,294.35284899999897,294.3628119999994,294.3628119999994,294.3628119999994,297.362399499998,297.362399499998,297.362399499998,297.34707440000057,indoor,f,1.1717025999969337,0.11099470000044676,297.34723699999813,297.3473002999999,None,,,,,,,,,,00063,001,2026-01-19_21h58.30.655,MST_task,2024.2.0,60.03716300424945,2026-01-19 21h59.23.012893 +0530,
,Objects\120a.jpg,55,0,56,,,,,,,f,1.2871312000024773,0.10458619999917573,None,,,,56,0,55,297.362399499998,,,,,,,,,,,,,,,,,,,,,,,297.3475928000007,297.362399499998,297.8623325000008,297.84624989999793,,,,,,,,,,,,,,,,,,,,,,,,,,297.85446690000026,297.8623325000008,297.8623325000008,297.8623325000008,300.8625261999987,300.8625261999987,300.8625261999987,300.84703570000056,indoor,f,1.2871312000024773,0.10458619999917573,300.8471953999979,300.84725959999923,None,,,,,,,,,,00063,001,2026-01-19_21h58.30.655,MST_task,2024.2.0,60.03716300424945,2026-01-19 21h59.23.012893 +0530,
,Objects\248a.jpg,56,0,57,,,,,,,f,1.205651799999032,0.09666080000170041,None,,,,57,0,56,300.8625261999987,,,,,,,,,,,,,,,,,,,,,,,300.8475572999996,300.8625261999987,301.375804299998,301.34615510000003,,,,,,,,,,,,,,,,,,,,,,,,,,301.3732748000002,301.375804299998,301.375804299998,301.375804299998,,,,304.36293419999856,shoe,f,1.205651799999032,0.09666080000170041,304.36920140000075,304.36925379999957,None,,,,,,,,,,00063,001,2026-01-19_21h58.30.655,MST_task,2024.2.0,60.03716300424945,2026-01-19 21h59.23.012893 +0530,
,Objects\080a.jpg,57,0,58,,,,,,,j,1.5744889999987208,0.11996630000066943,None,,,,58,0,57,304.3788636999998,,,,,,,,,,,,,,,,,,,,,,,304.3694265999984,304.3788636999998,304.8796064999988,304.8629108999994,,,,,,,,,,,,,,,,,,,,,,,,,,304.87031800000113,304.8796064999988,304.8796064999988,304.8796064999988,307.8789610999993,307.8789610999993,307.8789610999993,307.86390050000045,shoe,j,1.5744889999987208,0.11996630000066943,307.86409170000115,307.8641624000011,None,,,,,,,,,,00063,001,2026-01-19_21h58.30.655,MST_task,2024.2.0,60.03716300424945,2026-01-19 21h59.23.012893 +0530,
,Objects\063a.jpg,58,0,59,,,,,,,f,1.5063877000029606,0.12036689999877126,None,,,,59,0,58,307.8789610999993,,,,,,,,,,,,,,,,,,,,,,,307.8644835999985,307.8789610999993,308.3793306999978,308.3629669000002,,,,,,,,,,,,,,,,,,,,,,,,,,308.37263449999955,308.3793306999978,308.3793306999978,308.3793306999978,311.379045499998,311.379045499998,311.379045499998,311.3638208000011,shoe,f,1.5063877000029606,0.12036689999877126,311.3640082999991,311.3640766999997,None,,,,,,,,,,00063,001,2026-01-19_21h58.30.655,MST_task,2024.2.0,60.03716300424945,2026-01-19 21h59.23.012893 +0530,
,Objects\251a.jpg,59,0,60,,,,,,,f,1.9379206000012346,0.10378589999891119,None,,,,60,0,59,311.379045499998,,,,,,,,,,,,,,,,,,,,,,,311.36453379999875,311.379045499998,311.88394269999844,311.8629254000007,,,,,,,,,,,,,,,,,,,,,,,,,,311.881511399999,311.88394269999844,311.88394269999844,311.88394269999844,,,,314.87925619999805,shoe,f,1.9379206000012346,0.10378589999891119,314.8794161000005,314.8794835000008,None,,,,,,,,,,00063,001,2026-01-19_21h58.30.655,MST_task,2024.2.0,60.03716300424945,2026-01-19 21h59.23.012893 +0530,
,Objects\169a.jpg,60,0,61,,,,,,,j,1.952640200001042,0.12002489999940735,None,,,,61,0,60,314.8958645999992,,,,,,,,,,,,,,,,,,,,,,,314.87976809999964,314.8958645999992,,315.37978139999905,,,,,,,,,,,,,,,,,,,,,,,,,,315.3892511000013,315.3969141999987,315.3969141999987,315.3969141999987,318.3958559999992,318.3958559999992,318.3958559999992,318.3804071000013,shoe,j,1.952640200001042,0.12002489999940735,318.3805718000003,318.38063409999813,None,,,,,,,,,,00063,001,2026-01-19_21h58.30.655,MST_task,2024.2.0,60.03716300424945,2026-01-19 21h59.23.012893 +0530,
,Objects\322a.jpg,61,0,62,,,,,,,f,1.8687907999992603,0.11198940000031143,None,,,,62,0,61,318.3958559999992,,,,,,,,,,,,,,,,,,,,,,,318.3809531000006,318.3958559999992,318.8966337999991,318.879533299998,,,,,,,,,,,,,,,,,,,,,,,,,,318.886959200001,318.8966337999991,318.8966337999991,318.8966337999991,321.8954821999978,321.8954821999978,321.8954821999978,321.8801706000013,shoe,f,1.8687907999992603,0.11198940000031143,321.8803326999987,321.880393200001,None,,,,,,,,,,00063,001,2026-01-19_21h58.30.655,MST_task,2024.2.0,60.03716300424945,2026-01-19 21h59.23.012893 +0530,
,Objects\157a.jpg,62,0,63,,,,,,,f,0.9773451000000932,0.09589670000059414,None,,,,63,0,62,321.8954821999978,,,,,,,,,,,,,,,,,,,,,,,321.8806913999979,321.8954821999978,322.396291699999,322.37955729999885,,,,,,,,,,,,,,,,,,,,,,,,,,322.39106710000124,322.396291699999,322.396291699999,322.396291699999,325.39563460000136,325.39563460000136,325.39563460000136,325.38003480000043,shoe,f,0.9773451000000932,0.09589670000059414,325.3801921000013,325.38025619999826,None,,,,,,,,,,00063,001,2026-01-19_21h58.30.655,MST_task,2024.2.0,60.03716300424945,2026-01-19 21h59.23.012893 +0530,
,Objects\229a.jpg,63,0,64,,,,,,,f,1.8617110999985016,0.12764919999972335,None,,,,64,0,63,325.39563460000136,,,,,,,,,,,,,,,,,,,,,,,325.38065540000025,325.39563460000136,325.8963466999994,325.87954139999783,,,,,,,,,,,,,,,,,,,,,,,,,,325.8909492999992,325.8963466999994,325.8963466999994,325.8963466999994,328.89590540000063,328.89590540000063,328.89590540000063,328.8806846999978,indoor,f,1.8617110999985016,0.12764919999972335,328.8856459999988,328.8857055999979,None,,,,,,,,,,00063,001,2026-01-19_21h58.30.655,MST_task,2024.2.0,60.03716300424945,2026-01-19 21h59.23.012893 +0530,
,Objects\060a.jpg,64,0,65,,,,,,,j,1.3056775999975798,0.12758670000039274,None,,,,65,0,64,328.89590540000063,,,,,,,,,,,,,,,,,,,,,,,328.88593870000113,328.89590540000063,329.3963737000013,329.3795680000003,,,,,,,,,,,,,,,,,,,,,,,,,,329.3889636999993,329.3963737000013,329.3963737000013,329.3963737000013,332.395765199999,332.395765199999,332.395765199999,332.38031299999784,indoor,j,1.3056775999975798,0.12758670000039274,332.3804655999993,332.380526500001,None,,,,,,,,,,00063,001,2026-01-19_21h58.30.655,MST_task,2024.2.0,60.03716300424945,2026-01-19 21h59.23.012893 +0530,
,Objects\340a.jpg,65,0,66,,,,,,,f,1.0537330000006477,0.09538320000137901,None,,,,66,0,65,332.395765199999,,,,,,,,,,,,,,,,,,,,,,,332.380801299998,332.395765199999,332.89631440000085,332.87953539999944,,,,,,,,,,,,,,,,,,,,,,,,,,332.88726289999977,332.89631440000085,332.89631440000085,332.89631440000085,335.8958839000006,335.8958839000006,335.8958839000006,335.881130400001,indoor,f,1.0537330000006477,0.09538320000137901,335.8812842999978,335.88134659999923,None,,,,,,,,,,00063,001,2026-01-19_21h58.30.655,MST_task,2024.2.0,60.03716300424945,2026-01-19 21h59.23.012893 +0530,
,Objects\284a.jpg,66,0,67,,,,,,,j,1.7540628000024299,0.11998959999982617,None,,,,67,0,66,335.8958839000006,,,,,,,,,,,,,,,,,,,,,,,335.8816211000012,335.8958839000006,336.3959821999997,336.3793325000006,,,,,,,,,,,,,,,,,,,,,,,,,,336.3878192999982,336.3959821999997,336.3959821999997,336.3959821999997,339.39586860000054,339.39586860000054,339.39586860000054,339.38032139999996,indoor,j,1.7540628000024299,0.11998959999982617,339.3804765999994,339.3805401999998,None,,,,,,,,,,00063,001,2026-01-19_21h58.30.655,MST_task,2024.2.0,60.03716300424945,2026-01-19 21h59.23.012893 +0530,
,Objects\011a.jpg,67,0,68,,,,,,,f,1.644727499999135,0.09582110000337707,None,,,,68,0,67,339.39586860000054,,,,,,,,,,,,,,,,,,,,,,,339.3808174000005,339.39586860000054,339.90486130000136,339.87938909999866,,,,,,,,,,,,,,,,,,,,,,,,,,339.90190129999974,339.90486130000136,339.90486130000136,339.90486130000136,,,,342.8962552999983,indoor,f,1.644727499999135,0.09582110000337707,342.8964191999985,342.8964868000003,None,,,,,,,,,,00063,001,2026-01-19_21h58.30.655,MST_task,2024.2.0,60.03716300424945,2026-01-19 21h59.23.012893 +0530,
,Objects\181a.jpg,68,0,69,,,,,,,j,1.216981500001566,0.1439381999989564,None,,,,69,0,68,342.91254489999847,,,,,,,,,,,,,,,,,,,,,,,342.89677200000006,342.91254489999847,343.4127487000005,343.3962090999994,,,,,,,,,,,,,,,,,,,,,,,,,,343.4056347000005,343.4127487000005,343.4127487000005,343.4127487000005,346.41255079999974,346.41255079999974,346.41255079999974,346.39723550000053,indoor,j,1.216981500001566,0.1439381999989564,346.3974085000009,346.3974949000003,None,,,,,,,,,,00063,001,2026-01-19_21h58.30.655,MST_task,2024.2.0,60.03716300424945,2026-01-19 21h59.23.012893 +0530,
,Objects\109a.jpg,69,0,70,,,,,,,j,1.4526338999967265,0.12824730000284035,None,,,,70,0,69,346.41255079999974,,,,,,,,,,,,,,,,,,,,,,,346.39781890000086,346.41255079999974,346.91277569999875,346.8962963999984,,,,,,,,,,,,,,,,,,,,,,,,,,346.90271120000034,346.91277569999875,346.91277569999875,346.91277569999875,349.912530900001,349.912530900001,349.912530900001,349.8970561999995,indoor,j,1.4526338999967265,0.12824730000284035,349.89720939999825,349.89727199999834,None,,,,,,,,,,00063,001,2026-01-19_21h58.30.655,MST_task,2024.2.0,60.03716300424945,2026-01-19 21h59.23.012893 +0530,
,Objects\089a.jpg,70,0,71,,,,,,,j,2.3688581000023987,0.1038721999975678,None,,,,71,0,70,349.912530900001,,,,,,,,,,,,,,,,,,,,,,,349.8975457999986,349.912530900001,,350.3977851999989,,,,,,,,,,,,,,,,,,,,,,,,,,350.40793929999927,350.41256109999813,350.41256109999813,350.41256109999813,353.41258000000016,353.41258000000016,353.41258000000016,353.3971741999994,shoe,j,2.3688581000023987,0.1038721999975678,353.40240650000123,353.4024422000002,None,,,,,,,,,,00063,001,2026-01-19_21h58.30.655,MST_task,2024.2.0,60.03716300424945,2026-01-19 21h59.23.012893 +0530,
,Objects\380a.jpg,71,0,72,,,,,,,j,1.6367215999998734,0.1122654999999213,None,,,,72,0,71,353.41258000000016,,,,,,,,,,,,,,,,,,,,,,,353.4026420000009,353.41258000000016,353.9127602000008,353.8963130999982,,,,,,,,,,,,,,,,,,,,,,,,,,353.90519629999835,353.9127602000008,353.9127602000008,353.9127602000008,356.9125371000009,356.9125371000009,356.9125371000009,356.89707049999924,shoe,j,1.6367215999998734,0.1122654999999213,356.8972281999995,356.89729109999826,None,,,,,,,,,,00063,001,2026-01-19_21h58.30.655,MST_task,2024.2.0,60.03716300424945,2026-01-19 21h59.23.012893 +0530,
,Objects\017a.jpg,72,0,73,,,,,,,j,1.5932549999997718,0.11151539999991655,None,,,,73,0,72,356.9125371000009,,,,,,,,,,,,,,,,,,,,,,,356.89759799999956,356.9125371000009,357.4127905999994,357.3969404999989,,,,,,,,,,,,,,,,,,,,,,,,,,357.40342339999916,357.4127905999994,357.4127905999994,357.4127905999994,360.41249600000083,360.41249600000083,360.41249600000083,360.3972303999981,shoe,j,1.5932549999997718,0.11151539999991655,360.39740719999827,360.3974707999987,None,,,,,,,,,,00063,001,2026-01-19_21h58.30.655,MST_task,2024.2.0,60.03716300424945,2026-01-19 21h59.23.012893 +0530,
,Objects\040a.jpg,73,0,74,,,,,,,f,1.3565645000016957,0.12061999999787076,None,,,,74,0,73,360.41249600000083,,,,,,,,,,,,,,,,,,,,,,,360.3977659999982,360.41249600000083,360.91283470000053,360.8962724000012,,,,,,,,,,,,,,,,,,,,,,,,,,360.9052354999985,360.91283470000053,360.91283470000053,360.91283470000053,363.91231020000123,363.91231020000123,363.91231020000123,363.8968621999993,shoe,f,1.3565645000016957,0.12061999999787076,363.89705129999857,363.8971171999983,None,,,,,,,,,,00063,001,2026-01-19_21h58.30.655,MST_task,2024.2.0,60.03716300424945,2026-01-19 21h59.23.012893 +0530,
,Objects\146a.jpg,74,0,75,,,,,,,j,1.4325893000022916,0.12001779999991413,None,,,,75,0,74,363.91231020000123,,,,,,,,,,,,,,,,,,,,,,,363.897417199998,363.91231020000123,364.4128295999981,364.39593479999894,,,,,,,,,,,,,,,,,,,,,,,,,,364.4042745000006,364.4128295999981,364.4128295999981,364.4128295999981,367.41255810000075,367.41255810000075,367.41255810000075,367.3969823000007,shoe,j,1.4325893000022916,0.12001779999991413,367.3972270000013,367.397292499998,None,,,,,,,,,,00063,001,2026-01-19_21h58.30.655,MST_task,2024.2.0,60.03716300424945,2026-01-19 21h59.23.012893 +0530,
,Objects\034a.jpg,75,0,76,,,,,,,f,1.1327362000010908,0.16058539999721688,None,,,,76,0,75,367.41255810000075,,,,,,,,,,,,,,,,,,,,,,,367.3975892999988,367.41255810000075,367.91269459999967,367.8963049999984,,,,,,,,,,,,,,,,,,,,,,,,,,367.90287829999943,367.91269459999967,367.91269459999967,367.91269459999967,370.91254330000083,370.91254330000083,370.91254330000083,370.89712990000044,shoe,f,1.1327362000010908,0.16058539999721688,370.8972912999998,370.89735329999894,None,,,,,,,,,,00063,001,2026-01-19_21h58.30.655,MST_task,2024.2.0,60.03716300424945,2026-01-19 21h59.23.012893 +0530,
,Objects\295a.jpg,76,0,77,,,,,,,f,0.8585017000004882,0.09528469999713707,None,,,,77,0,76,370.91254330000083,,,,,,,,,,,,,,,,,,,,,,,370.8977601000006,370.91254330000083,371.4435650000014,371.3959056999993,,,,,,,,,,,,,,,,,,,,,,,,,,371.43984360000104,371.4435650000014,371.4435650000014,371.4435650000014,,,,374.4129733000009,shoe,f,0.8585017000004882,0.09528469999713707,374.4131460999997,374.41322070000024,None,,,,,,,,,,00063,001,2026-01-19_21h58.30.655,MST_task,2024.2.0,60.03716300424945,2026-01-19 21h59.23.012893 +0530,
,Objects\226a.jpg,77,0,78,,,,,,,f,1.7232446999987587,0.09559690000241972,None,,,,78,0,77,374.4290430000001,,,,,,,,,,,,,,,,,,,,,,,374.4137249000014,374.4290430000001,374.93069000000105,374.9129393000003,,,,,,,,,,,,,,,,,,,,,,,,,,374.92780909999783,374.93069000000105,374.93069000000105,374.93069000000105,,,,377.929329999999,indoor,f,1.7232446999987587,0.09559690000241972,377.9337744000004,377.9338566000006,None,,,,,,,,,,00063,001,2026-01-19_21h58.30.655,MST_task,2024.2.0,60.03716300424945,2026-01-19 21h59.23.012893 +0530,
,Objects\189a.jpg,78,0,79,,,,,,,j,1.4643883000026108,0.12644759999966482,None,,,,79,0,78,377.9458874000011,,,,,,,,,,,,,,,,,,,,,,,377.9341482999989,377.9458874000011,378.4465545999992,378.429587300001,,,,,,,,,,,,,,,,,,,,,,,,,,378.4428282000008,378.4465545999992,378.4465545999992,378.4465545999992,381.4456855999997,381.4456855999997,381.4456855999997,381.4301388999993,indoor,j,1.4643883000026108,0.12644759999966482,381.43029279999973,381.43035379999856,None,,,,,,,,,,00063,001,2026-01-19_21h58.30.655,MST_task,2024.2.0,60.03716300424945,2026-01-19 21h59.23.012893 +0530,
,Objects\213a.jpg,79,0,80,,,,,,,f,1.4023703999991994,0.112269400000514,None,,,,80,0,79,381.4456855999997,,,,,,,,,,,,,,,,,,,,,,,381.4306479000006,381.4456855999997,381.94706919999953,381.9297556999991,,,,,,,,,,,,,,,,,,,,,,,,,,381.9363048000014,381.94706919999953,381.94706919999953,381.94706919999953,,,,384.9464399999997,indoor,f,1.4023703999991994,0.112269400000514,384.9465945999982,384.9466332000011,None,,,,,,,,,,00063,001,2026-01-19_21h58.30.655,MST_task,2024.2.0,60.03716300424945,2026-01-19 21h59.23.012893 +0530,
,Objects\360a.jpg,80,0,81,,,,,,,f,1.8226869999998598,0.13642419999814592,None,,,,81,0,80,384.96256749999884,,,,,,,,,,,,,,,,,,,,,,,384.94680230000085,384.96256749999884,385.4628988000004,385.4462921999984,,,,,,,,,,,,,,,,,,,,,,,,,,385.45323909999934,385.4628988000004,385.4628988000004,385.4628988000004,388.46243049999975,388.46243049999975,388.46243049999975,388.4470743999991,indoor,f,1.8226869999998598,0.13642419999814592,388.4472332000005,388.44729630000074,None,,,,,,,,,,00063,001,2026-01-19_21h58.30.655,MST_task,2024.2.0,60.03716300424945,2026-01-19 21h59.23.012893 +0530,
,Objects\277a.jpg,81,0,82,,,,,,,f,1.2664833000017097,0.119988899998134,None,,,,82,0,81,388.46243049999975,,,,,,,,,,,,,,,,,,,,,,,388.44759089999934,388.46243049999975,388.96293760000117,388.94619039999816,,,,,,,,,,,,,,,,,,,,,,,,,,388.95717739999964,388.96293760000117,388.96293760000117,388.96293760000117,391.96253799999977,391.96253799999977,391.96253799999977,391.94686229999934,indoor,f,1.2664833000017097,0.119988899998134,391.9469528000009,391.94698770000105,None,,,,,,,,,,00063,001,2026-01-19_21h58.30.655,MST_task,2024.2.0,60.03716300424945,2026-01-19 21h59.23.012893 +0530,
,Objects\059a.jpg,82,0,83,,,,,,,j,1.678603700001986,0.12011480000001029,None,,,,83,0,82,391.96253799999977,,,,,,,,,,,,,,,,,,,,,,,391.94714569999996,391.96253799999977,392.4630252999996,392.44628379999995,,,,,,,,,,,,,,,,,,,,,,,,,,392.4580638999978,392.4630252999996,392.4630252999996,392.4630252999996,395.46238449999873,395.46238449999873,395.46238449999873,395.4469634999987,indoor,j,1.678603700001986,0.12011480000001029,395.4471178999993,395.44718009999997,None,,,,,,,,,,00063,001,2026-01-19_21h58.30.655,MST_task,2024.2.0,60.03716300424945,2026-01-19 21h59.23.012893 +0530,
,Objects\259a.jpg,83,0,84,,,,,,,j,1.706718000001274,0.12039260000165086,None,,,,84,0,83,395.46238449999873,,,,,,,,,,,,,,,,,,,,,,,395.4474541999989,395.46238449999873,395.9628764000008,395.94590759999846,,,,,,,,,,,,,,,,,,,,,,,,,,395.95503950000057,395.9628764000008,395.9628764000008,395.9628764000008,398.9625703999991,398.9625703999991,398.9625703999991,398.94721039999786,indoor,j,1.706718000001274,0.12039260000165086,398.94736589999957,398.9474287999983,None,,,,,,,,,,00063,001,2026-01-19_21h58.30.655,MST_task,2024.2.0,60.03716300424945,2026-01-19 21h59.23.012893 +0530,
,Objects\061a.jpg,84,0,85,,,,,,,j,1.939176600000792,0.12069209999754094,None,,,,85,0,84,398.9625703999991,,,,,,,,,,,,,,,,,,,,,,,398.94770659999995,398.9625703999991,399.47413009999946,399.44634940000105,,,,,,,,,,,,,,,,,,,,,,,,,,399.47147459999906,399.47413009999946,399.47413009999946,399.47413009999946,,,,402.4629055000005,shoe,j,1.939176600000792,0.12069209999754094,402.46973539999817,402.46979790000114,None,,,,,,,,,,00063,001,2026-01-19_21h58.30.655,MST_task,2024.2.0,60.03716300424945,2026-01-19 21h59.23.012893 +0530,
,Objects\367a.jpg,85,0,86,,,,,,,f,2.9537414999977045,None,None,,,,86,0,85,402.47889919999943,,,,,,,,,,,,,,,,,,,,,,,402.47012800000084,402.47889919999943,402.9795548000002,402.96293140000125,,,,,,,,,,,,,,,,,,,,,,,,,,402.9699220000002,402.9795548000002,402.9795548000002,402.9795548000002,405.97914519999904,405.97914519999904,405.97914519999904,405.96485849999954,shoe,f,2.9537414999977045,None,405.9650327999989,405.965097100001,None,,,,,,,,,,00063,001,2026-01-19_21h58.30.655,MST_task,2024.2.0,60.03716300424945,2026-01-19 21h59.23.012893 +0530,
,Objects\053a.jpg,86,0,87,,,,,,,f,1.1107369999990624,0.11992579999787267,None,,,,87,0,86,405.97914519999904,,,,,,,,,,,,,,,,,,,,,,,405.96537460000036,405.97914519999904,406.4793265999979,406.462546499999,,,,,,,,,,,,,,,,,,,,,,,,,,406.4725373000001,406.4793265999979,406.4793265999979,406.4793265999979,409.47916129999794,409.47916129999794,409.47916129999794,409.46376489999966,shoe,f,1.1107369999990624,0.11992579999787267,409.4639337000008,409.46399609999935,None,,,,,,,,,,00063,001,2026-01-19_21h58.30.655,MST_task,2024.2.0,60.03716300424945,2026-01-19 21h59.23.012893 +0530,
,Objects\330a.jpg,87,0,88,,,,,,,j,1.505824699997902,0.15936580000197864,None,,,,88,0,87,409.47916129999794,,,,,,,,,,,,,,,,,,,,,,,409.4644064999993,409.47916129999794,409.980169800001,409.96295370000007,,,,,,,,,,,,,,,,,,,,,,,,,,409.976818799998,409.980169800001,409.980169800001,409.980169800001,412.97915329999887,412.97915329999887,412.97915329999887,412.96398789999876,shoe,j,1.505824699997902,0.15936580000197864,412.96415960000013,412.9642228999983,None,,,,,,,,,,00063,001,2026-01-19_21h58.30.655,MST_task,2024.2.0,60.03716300424945,2026-01-19 21h59.23.012893 +0530,
,Objects\206a.jpg,88,0,89,,,,,,,j,1.5637865999997302,0.17529389999981504,None,,,,89,0,88,412.97915329999887,,,,,,,,,,,,,,,,,,,,,,,412.96449669999856,412.97915329999887,413.51429199999984,413.46299440000075,,,,,,,,,,,,,,,,,,,,,,,,,,413.50980569999956,413.51429199999984,413.51429199999984,413.51429199999984,,,,416.4795672,shoe,j,1.5637865999997302,0.17529389999981504,416.47974429999886,416.47981739999886,None,,,,,,,,,,00063,001,2026-01-19_21h58.30.655,MST_task,2024.2.0,60.03716300424945,2026-01-19 21h59.23.012893 +0530,
,Objects\058a.jpg,89,0,90,,,,,,,f,2.929902100000618,None,None,,,,90,0,89,416.4958265999994,,,,,,,,,,,,,,,,,,,,,,,416.48012860000017,416.4958265999994,416.99609509999937,416.9794628999989,,,,,,,,,,,,,,,,,,,,,,,,,,416.98870689999967,416.99609509999937,416.99609509999937,416.99609509999937,419.9958239000007,419.9958239000007,419.9958239000007,419.98037620000105,shoe,f,2.929902100000618,None,419.98052370000005,419.9805817999986,None,,,,,,,,,,00063,001,2026-01-19_21h58.30.655,MST_task,2024.2.0,60.03716300424945,2026-01-19 21h59.23.012893 +0530,
,Objects\131a.jpg,90,0,91,,,,,,,f,2.1655460999973,0.09634370000276249,None,,,,91,0,90,419.9958239000007,,,,,,,,,,,,,,,,,,,,,,,419.9808367000005,419.9958239000007,420.4961125000009,420.47961379999833,,,,,,,,,,,,,,,,,,,,,,,,,,420.4891561000004,420.4961125000009,420.4961125000009,420.4961125000009,423.49582069999815,423.49582069999815,423.49582069999815,423.48130390000006,shoe,f,2.1655460999973,0.09634370000276249,423.4814757999993,423.48154689999865,None,,,,,,,,,,00063,001,2026-01-19_21h58.30.655,MST_task,2024.2.0,60.03716300424945,2026-01-19 21h59.23.012893 +0530,
,Objects\077a.jpg,91,0,92,,,,,,,j,2.3063061000029847,0.10322049999740557,None,,,,92,0,91,423.49582069999815,,,,,,,,,,,,,,,,,,,,,,,423.4818656999996,423.49582069999815,424.0037975999985,423.9796662000008,,,,,,,,,,,,,,,,,,,,,,,,,,424.0015792000013,424.0037975999985,424.0037975999985,424.0037975999985,,,,426.9961074999992,indoor,j,2.3063061000029847,0.10322049999740557,427.00216010000076,427.00223859999824,None,,,,,,,,,,00063,001,2026-01-19_21h58.30.655,MST_task,2024.2.0,60.03716300424945,2026-01-19 21h59.23.012893 +0530,
,Objects\149a.jpg,92,0,93,,,,,,,f,1.7365386000019498,0.11158269999941695,None,,,,93,0,92,427.0122472000003,,,,,,,,,,,,,,,,,,,,,,,427.00252900000123,427.0122472000003,427.5334452999996,427.4962033999982,,,,,,,,,,,,,,,,,,,,,,,,,,427.530509799999,427.5334452999996,427.5334452999996,427.5334452999996,,,,430.5129839000001,indoor,f,1.7365386000019498,0.11158269999941695,430.51315149999937,430.5132202999994,None,,,,,,,,,,00063,001,2026-01-19_21h58.30.655,MST_task,2024.2.0,60.03716300424945,2026-01-19 21h59.23.012893 +0530,
,Objects\003a.jpg,93,0,94,,,,,,,j,2.200192000000243,0.11970739999742364,None,,,,94,0,93,430.5288870000004,,,,,,,,,,,,,,,,,,,,,,,430.5135114000004,430.5288870000004,431.0294542999982,431.0129487999984,,,,,,,,,,,,,,,,,,,,,,,,,,431.02150619999884,431.0294542999982,431.0294542999982,431.0294542999982,,,,434.01369649999833,indoor,j,2.200192000000243,0.11970739999742364,434.01386139999886,434.01392750000014,None,,,,,,,,,,00063,001,2026-01-19_21h58.30.655,MST_task,2024.2.0,60.03716300424945,2026-01-19 21h59.23.012893 +0530,
,Objects\104a.jpg,94,0,95,,,,,,,f,0.8839885000015784,0.08807589999923948,None,,,,95,0,94,434.02921330000027,,,,,,,,,,,,,,,,,,,,,,,434.01421879999907,434.02921330000027,434.52945890000046,434.51368680000087,,,,,,,,,,,,,,,,,,,,,,,,,,434.52038710000124,434.52945890000046,434.52945890000046,434.52945890000046,437.529209100001,437.529209100001,437.529209100001,437.5141632999985,indoor,f,0.8839885000015784,0.08807589999923948,437.51431579999917,437.5143778999991,None,,,,,,,,,,00063,001,2026-01-19_21h58.30.655,MST_task,2024.2.0,60.03716300424945,2026-01-19 21h59.23.012893 +0530,
,Objects\299a.jpg,95,0,96,,,,,,,j,1.5355163999993238,0.0959541000011086,None,,,,96,0,95,437.529209100001,,,,,,,,,,,,,,,,,,,,,,,437.51466860000073,437.529209100001,438.0301075999996,438.01262810000117,,,,,,,,,,,,,,,,,,,,,,,,,,438.02241140000115,438.0301075999996,438.0301075999996,438.0301075999996,441.0290309000011,441.0290309000011,441.0290309000011,441.01392750000014,indoor,j,1.5355163999993238,0.0959541000011086,441.0141001999982,441.01416569999856,None,,,,,,,,,,00063,001,2026-01-19_21h58.30.655,MST_task,2024.2.0,60.03716300424945,2026-01-19 21h59.23.012893 +0530,
,Objects\353a.jpg,96,0,97,,,,,,,f,1.1803202999981295,0.09601340000153868,None,,,,97,0,96,441.0290309000011,,,,,,,,,,,,,,,,,,,,,,,441.01446360000045,441.0290309000011,441.5296472000009,441.5127747000006,,,,,,,,,,,,,,,,,,,,,,,,,,441.52107310000065,441.5296472000009,441.5296472000009,441.5296472000009,444.52921720000086,444.52921720000086,444.52921720000086,444.51390959999844,indoor,f,1.1803202999981295,0.09601340000153868,444.51409290000083,444.51415650000126,None,,,,,,,,,,00063,001,2026-01-19_21h58.30.655,MST_task,2024.2.0,60.03716300424945,2026-01-19 21h59.23.012893 +0530,
,Objects\082a.jpg,97,0,98,,,,,,,j,1.0639945000002626,0.07133260000045993,None,,,,98,0,97,444.52921720000086,,,,,,,,,,,,,,,,,,,,,,,444.5144336000012,444.52921720000086,445.02998020000086,445.0131337999992,,,,,,,,,,,,,,,,,,,,,,,,,,445.0224042000009,445.02998020000086,445.02998020000086,445.02998020000086,448.0292136999997,448.0292136999997,448.0292136999997,448.01416080000126,indoor,j,1.0639945000002626,0.07133260000045993,448.0143289999978,448.01439069999833,None,,,,,,,,,,00063,001,2026-01-19_21h58.30.655,MST_task,2024.2.0,60.03716300424945,2026-01-19 21h59.23.012893 +0530,
,Objects\022a.jpg,98,0,99,,,,,,,f,2.5804057999994257,0.14362959999925806,None,,,,99,0,98,448.0292136999997,,,,,,,,,,,,,,,,,,,,,,,448.0146648000009,448.0292136999997,448.5295041999998,448.5129439000011,,,,,,,,,,,,,,,,,,,,,,,,,,448.5213049999984,448.5295041999998,448.5295041999998,448.5295041999998,451.52924340000027,451.52924340000027,451.52924340000027,451.5137341000009,shoe,f,2.5804057999994257,0.14362959999925806,451.51966679999896,451.5197036999998,None,,,,,,,,,,00063,001,2026-01-19_21h58.30.655,MST_task,2024.2.0,60.03716300424945,2026-01-19 21h59.23.012893 +0530,
,Objects\234a.jpg,99,0,100,,,,,,,j,1.9284403000019665,0.25542069999937667,None,,,,100,0,99,451.52924340000027,,,,,,,,,,,,,,,,,,,,,,,451.51984919999813,451.52924340000027,452.0295198999993,452.01296189999994,,,,,,,,,,,,,,,,,,,,,,,,,,452.01991759999873,452.0295198999993,452.0295198999993,452.0295198999993,455.0290993999988,455.0290993999988,455.0290993999988,455.0137633000013,shoe,j,1.9284403000019665,0.25542069999937667,455.0139434999983,455.0140122999983,None,,,,,,,,,,00063,001,2026-01-19_21h58.30.655,MST_task,2024.2.0,60.03716300424945,2026-01-19 21h59.23.012893 +0530,
,Objects\162a.jpg,100,0,101,,,,,,,f,1.4927014999993844,0.14452109999911045,None,,,,101,0,100,455.0290993999988,,,,,,,,,,,,,,,,,,,,,,,455.01433220000035,455.0290993999988,455.5367745000003,455.5136946999992,,,,,,,,,,,,,,,,,,,,,,,,,,455.5339586000009,455.5367745000003,455.5367745000003,455.5367745000003,,,,458.52960689999964,shoe,f,1.4927014999993844,0.14452109999911045,458.52978209999856,458.5298505999999,None,,,,,,,,,,00063,001,2026-01-19_21h58.30.655,MST_task,2024.2.0,60.03716300424945,2026-01-19 21h59.23.012893 +0530,
,Objects\193a.jpg,101,0,102,,,,,,,f,1.7134449999975914,0.15268760000253678,None,,,,102,0,101,458.546409999999,,,,,,,,,,,,,,,,,,,,,,,458.53014769999936,458.546409999999,459.0518145999995,459.02965870000116,,,,,,,,,,,,,,,,,,,,,,,,,,459.048236300001,459.0518145999995,459.0518145999995,459.0518145999995,,,,462.04598469999837,shoe,f,1.7134449999975914,0.15268760000253678,462.04617249999865,462.0462415000002,None,,,,,,,,,,00063,001,2026-01-19_21h58.30.655,MST_task,2024.2.0,60.03716300424945,2026-01-19 21h59.23.012893 +0530,
,Objects\369a.jpg,102,0,103,,,,,,,f,1.3951210000013816,0.14330469999913475,None,,,,103,0,102,462.0621824000009,,,,,,,,,,,,,,,,,,,,,,,462.0465460000014,462.0621824000009,462.5628519999991,462.54624599999806,,,,,,,,,,,,,,,,,,,,,,,,,,462.5548161000006,462.5628519999991,462.5628519999991,462.5628519999991,465.5625575000013,465.5625575000013,465.5625575000013,465.5470752000001,shoe,f,1.3951210000013816,0.14330469999913475,465.5472305000003,465.547292700001,None,,,,,,,,,,00063,001,2026-01-19_21h58.30.655,MST_task,2024.2.0,60.03716300424945,2026-01-19 21h59.23.012893 +0530,
,Objects\044a.jpg,103,0,104,,,,,,,f,1.5504835000028834,0.1445938999968348,None,,,,104,0,103,465.5625575000013,,,,,,,,,,,,,,,,,,,,,,,465.5477127000013,465.5625575000013,466.0628524999993,466.0462073999988,,,,,,,,,,,,,,,,,,,,,,,,,,466.05486459999884,466.0628524999993,466.0628524999993,466.0628524999993,469.0625480999988,469.0625480999988,469.0625480999988,469.04699489999985,shoe,f,1.5504835000028834,0.1445938999968348,469.04714819999936,469.0472105000008,None,,,,,,,,,,00063,001,2026-01-19_21h58.30.655,MST_task,2024.2.0,60.03716300424945,2026-01-19 21h59.23.012893 +0530,
,Objects\085a.jpg,104,0,105,,,,,,,j,1.4506037999999535,0.12806500000078813,None,,,,105,0,104,469.0625480999988,,,,,,,,,,,,,,,,,,,,,,,469.04748370000016,469.0625480999988,469.5627706000014,469.54620989999967,,,,,,,,,,,,,,,,,,,,,,,,,,469.5552514999981,469.5627706000014,469.5627706000014,469.5627706000014,472.56254329999865,472.56254329999865,472.56254329999865,472.54698650000137,shoe,j,1.4506037999999535,0.12806500000078813,472.5471417000008,472.54720349999843,None,,,,,,,,,,00063,001,2026-01-19_21h58.30.655,MST_task,2024.2.0,60.03716300424945,2026-01-19 21h59.23.012893 +0530,
,Objects\377a.jpg,105,0,106,,,,,,,j,1.4783134999997856,0.12045109999962733,None,,,,106,0,105,472.56254329999865,,,,,,,,,,,,,,,,,,,,,,,472.54760579999856,472.56254329999865,473.0629684000014,473.0461228999993,,,,,,,,,,,,,,,,,,,,,,,,,,473.05873829999837,473.0629684000014,473.0629684000014,473.0629684000014,476.06254869999975,476.06254869999975,476.06254869999975,476.0471171999998,indoor,j,1.4783134999997856,0.12045109999962733,476.05252029999974,476.05256630000076,None,,,,,,,,,,00063,001,2026-01-19_21h58.30.655,MST_task,2024.2.0,60.03716300424945,2026-01-19 21h59.23.012893 +0530,
,Objects\083a.jpg,106,0,107,,,,,,,f,1.658801500001573,0.14367249999850173,None,,,,107,0,106,476.06254869999975,,,,,,,,,,,,,,,,,,,,,,,476.0527457999997,476.06254869999975,476.56278499999826,476.5460028999987,,,,,,,,,,,,,,,,,,,,,,,,,,476.5553351999988,476.56278499999826,476.56278499999826,476.56278499999826,479.5625739999996,479.5625739999996,479.5625739999996,479.5474596999993,indoor,f,1.658801500001573,0.14367249999850173,479.5476158999991,479.54768479999984,None,,,,,,,,,,00063,001,2026-01-19_21h58.30.655,MST_task,2024.2.0,60.03716300424945,2026-01-19 21h59.23.012893 +0530,
,Objects\224a.jpg,107,0,108,,,,,,,j,1.110723900001176,0.13555889999770443,None,,,,108,0,107,479.5625739999996,,,,,,,,,,,,,,,,,,,,,,,479.5479635999982,479.5625739999996,480.0629693999981,480.04621359999874,,,,,,,,,,,,,,,,,,,,,,,,,,480.0563336000014,480.0629693999981,480.0629693999981,480.0629693999981,483.0623806000003,483.0623806000003,483.0623806000003,483.0474119999999,indoor,j,1.110723900001176,0.13555889999770443,483.0475673000001,483.04763040000034,None,,,,,,,,,,00063,001,2026-01-19_21h58.30.655,MST_task,2024.2.0,60.03716300424945,2026-01-19 21h59.23.012893 +0530,
,Objects\118a.jpg,108,0,109,,,,,,,j,1.3216338999991422,0.1363578000018606,None,,,,109,0,108,483.0623806000003,,,,,,,,,,,,,,,,,,,,,,,483.0479043999985,483.0623806000003,483.5959526000006,483.5460567000009,,,,,,,,,,,,,,,,,,,,,,,,,,483.5929142999994,483.5959526000006,483.5959526000006,483.5959526000006,,,,486.56287579999844,indoor,j,1.3216338999991422,0.1363578000018606,486.5630424999981,486.56310889999804,None,,,,,,,,,,00063,001,2026-01-19_21h58.30.655,MST_task,2024.2.0,60.03716300424945,2026-01-19 21h59.23.012893 +0530,
,Objects\288a.jpg,109,0,110,,,,,,,f,1.246423100001266,0.13580390000061016,None,,,,110,0,109,486.579331500001,,,,,,,,,,,,,,,,,,,,,,,486.5634022000013,486.579331500001,487.07952619999924,487.0626779000013,,,,,,,,,,,,,,,,,,,,,,,,,,487.0728735999983,487.07952619999924,487.07952619999924,487.07952619999924,490.0800945999981,490.0800945999981,490.0800945999981,490.063676400001,indoor,f,1.246423100001266,0.13580390000061016,490.0638524999995,490.06391580000127,None,,,,,,,,,,00063,001,2026-01-19_21h58.30.655,MST_task,2024.2.0,60.03716300424945,2026-01-19 21h59.23.012893 +0530,
,Objects\065a.jpg,110,0,111,,,,,,,j,1.6810240000013437,0.09652449999703094,None,,,,111,0,110,490.0800945999981,,,,,,,,,,,,,,,,,,,,,,,490.0641914000007,490.0800945999981,,490.5793259999991,,,,,,,,,,,,,,,,,,,,,,,,,,490.58788690000074,490.59637569999904,490.59637569999904,490.59637569999904,,,,493.5793475999999,indoor,j,1.6810240000013437,0.09652449999703094,493.579522,493.5795905999985,None,,,,,,,,,,00063,001,2026-01-19_21h58.30.655,MST_task,2024.2.0,60.03716300424945,2026-01-19 21h59.23.012893 +0530,
,Objects\269a.jpg,111,0,112,,,,,,,f,1.6375896999998076,0.1278305999985605,None,,,,112,0,111,493.59582840000076,,,,,,,,,,,,,,,,,,,,,,,493.5799020000013,493.59582840000076,494.09634000000005,494.07945969999855,,,,,,,,,,,,,,,,,,,,,,,,,,494.0875961999991,494.09634000000005,494.09634000000005,494.09634000000005,497.0955341999979,497.0955341999979,497.0955341999979,497.08057499999995,indoor,f,1.6375896999998076,0.1278305999985605,497.0807386999986,497.0808007000014,None,,,,,,,,,,00063,001,2026-01-19_21h58.30.655,MST_task,2024.2.0,60.03716300424945,2026-01-19 21h59.23.012893 +0530,
,Objects\375a.jpg,112,0,113,,,,,,,j,1.8909223999980895,0.11931580000236863,None,,,,113,0,112,497.0955341999979,,,,,,,,,,,,,,,,,,,,,,,497.08109369999875,497.0955341999979,497.6110130999987,497.57933409999896,,,,,,,,,,,,,,,,,,,,,,,,,,497.608464500001,497.6110130999987,497.6110130999987,497.6110130999987,,,,500.5960062000013,shoe,j,1.8909223999980895,0.11931580000236863,500.60119289999784,500.6012289999999,None,,,,,,,,,,00063,001,2026-01-19_21h58.30.655,MST_task,2024.2.0,60.03716300424945,2026-01-19 21h59.23.012893 +0530,
,Objects\337a.jpg,113,0,114,,,,,,,j,2.154693899999984,0.11996350000117673,None,,,,114,0,113,500.6124158999992,,,,,,,,,,,,,,,,,,,,,,,500.6013645999992,500.6124158999992,501.1225885999993,501.09631810000064,,,,,,,,,,,,,,,,,,,,,,,,,,501.1200987000011,501.1225885999993,501.1225885999993,501.1225885999993,,,,504.1128041999982,shoe,j,2.154693899999984,0.11996350000117673,504.11297560000094,504.1130484999994,None,,,,,,,,,,00063,001,2026-01-19_21h58.30.655,MST_task,2024.2.0,60.03716300424945,2026-01-19 21h59.23.012893 +0530,
,Objects\072a.jpg,114,0,115,,,,,,,f,1.4558108000019274,0.15181200000006356,None,,,,115,0,114,504.12920590000067,,,,,,,,,,,,,,,,,,,,,,,504.1133340999986,504.12920590000067,504.62967429999844,504.6127813999992,,,,,,,,,,,,,,,,,,,,,,,,,,504.6191712,504.62967429999844,504.62967429999844,504.62967429999844,507.6291343999983,507.6291343999983,507.6291343999983,507.6139366999996,shoe,f,1.4558108000019274,0.15181200000006356,507.61410519999845,507.61416839999947,None,,,,,,,,,,00063,001,2026-01-19_21h58.30.655,MST_task,2024.2.0,60.03716300424945,2026-01-19 21h59.23.012893 +0530,
,Objects\255a.jpg,115,0,116,,,,,,,f,1.2604965999998967,0.11995350000142935,None,,,,116,0,115,507.6291343999983,,,,,,,,,,,,,,,,,,,,,,,507.61445319999984,507.6291343999983,508.1689320000005,508.1127873000005,,,,,,,,,,,,,,,,,,,,,,,,,,508.1658588999999,508.1689320000005,508.1689320000005,508.1689320000005,,,,511.1292476999988,shoe,f,1.2604965999998967,0.11995350000142935,511.12941449999926,511.12948219999817,None,,,,,,,,,,00063,001,2026-01-19_21h58.30.655,MST_task,2024.2.0,60.03716300424945,2026-01-19 21h59.23.012893 +0530,
,Objects\027a.jpg,116,0,117,,,,,,,j,1.2104608999979973,0.15144270000018878,None,,,,117,0,116,511.1455618,,,,,,,,,,,,,,,,,,,,,,,511.12976659999913,511.1455618,511.667469,511.62942269999985,,,,,,,,,,,,,,,,,,,,,,,,,,511.664108099998,511.667469,511.667469,511.667469,,,,514.6459580999981,shoe,j,1.2104608999979973,0.15144270000018878,514.6461218000004,514.6461883000011,None,,,,,,,,,,00063,001,2026-01-19_21h58.30.655,MST_task,2024.2.0,60.03716300424945,2026-01-19 21h59.23.012893 +0530,
,Objects\228a.jpg,117,0,118,,,,,,,j,1.4428283999986888,0.17612419999932172,None,,,,118,0,117,514.6625625999986,,,,,,,,,,,,,,,,,,,,,,,514.6464771999999,514.6625625999986,515.1625381999984,515.1459357999993,,,,,,,,,,,,,,,,,,,,,,,,,,515.1557582999994,515.1625381999984,515.1625381999984,515.1625381999984,518.1622323999982,518.1622323999982,518.1622323999982,518.146850699999,shoe,j,1.4428283999986888,0.17612419999932172,518.1470090000003,518.1470704999992,None,,,,,,,,,,00063,001,2026-01-19_21h58.30.655,MST_task,2024.2.0,60.03716300424945,2026-01-19 21h59.23.012893 +0530,
,Objects\263a.jpg,118,0,119,,,,,,,j,1.5176888999994844,0.17648019999978715,None,,,,119,0,118,518.1622323999982,,,,,,,,,,,,,,,,,,,,,,,518.1473459999979,518.1622323999982,518.6637296000008,518.6463345999982,,,,,,,,,,,,,,,,,,,,,,,,,,518.6535723999987,518.6637296000008,518.6637296000008,518.6637296000008,,,,521.6628395999978,shoe,j,1.5176888999994844,0.17648019999978715,521.6630079999995,521.6630757999992,None,,,,,,,,,,00063,001,2026-01-19_21h58.30.655,MST_task,2024.2.0,60.03716300424945,2026-01-19 21h59.23.012893 +0530,
,Objects\173a.jpg,119,0,120,,,,,,,f,1.8383192000001145,0.14334779999990133,None,,,,120,0,119,521.6789686000011,,,,,,,,,,,,,,,,,,,,,,,521.6634749000004,521.6789686000011,522.2156073000006,522.1630014000002,,,,,,,,,,,,,,,,,,,,,,,,,,522.2127695999989,522.2156073000006,522.2156073000006,522.2156073000006,,,,525.1793743999988,indoor,f,1.8383192000001145,0.14334779999990133,525.1847849000005,525.1848518000006,None,,,,,,,,,,00063,001,2026-01-19_21h58.30.655,MST_task,2024.2.0,60.03716300424945,2026-01-19 21h59.23.012893 +0530,
,Objects\236a.jpg,120,0,121,,,,,,,j,1.2239325000009558,0.14400120000209427,None,,,,121,0,120,525.195482799998,,,,,,,,,,,,,,,,,,,,,,,525.1850983000004,525.195482799998,525.701975699998,525.6796353999998,,,,,,,,,,,,,,,,,,,,,,,,,,525.6996188000012,525.701975699998,525.701975699998,525.701975699998,,,,528.6960307000008,indoor,j,1.2239325000009558,0.14400120000209427,528.6961937999986,528.6962634999982,None,,,,,,,,,,00063,001,2026-01-19_21h58.30.655,MST_task,2024.2.0,60.03716300424945,2026-01-19 21h59.23.012893 +0530,
,Objects\230a.jpg,121,0,122,,,,,,,j,1.1919280999973125,0.17553910000060569,None,,,,122,0,121,528.7124466999994,,,,,,,,,,,,,,,,,,,,,,,528.6965545999992,528.7124466999994,529.2139695000005,529.1962198000001,,,,,,,,,,,,,,,,,,,,,,,,,,529.2057179000003,529.2139695000005,529.2139695000005,529.2139695000005,,,,532.2128264999992,indoor,j,1.1919280999973125,0.17553910000060569,532.2129898999992,532.2130589999979,None,,,,,,,,,,00063,001,2026-01-19_21h58.30.655,MST_task,2024.2.0,60.03716300424945,2026-01-19 21h59.23.012893 +0530,
,Objects\091a.jpg,122,0,123,,,,,,,f,1.395720499996969,0.12848350000058417,None,,,,123,0,122,532.2289203,,,,,,,,,,,,,,,,,,,,,,,532.213343200001,532.2289203,532.7296414000011,532.7129537000001,,,,,,,,,,,,,,,,,,,,,,,,,,532.7229942000013,532.7296414000011,532.7296414000011,532.7296414000011,535.729260600001,535.729260600001,535.729260600001,535.7139056999986,indoor,f,1.395720499996969,0.12848350000058417,535.7140756999979,535.7141453000004,None,,,,,,,,,,00063,001,2026-01-19_21h58.30.655,MST_task,2024.2.0,60.03716300424945,2026-01-19 21h59.23.012893 +0530,
,Objects\290a.jpg,123,0,124,,,,,,,j,2.032109200001287,0.11295089999839547,None,,,,124,0,123,535.729260600001,,,,,,,,,,,,,,,,,,,,,,,535.7144344000008,535.729260600001,536.2296766,536.212692000001,,,,,,,,,,,,,,,,,,,,,,,,,,536.2215961000002,536.2296766,536.2296766,536.2296766,539.2298998000006,539.2298998000006,539.2298998000006,539.2137696999998,indoor,j,2.032109200001287,0.11295089999839547,539.2139241000004,539.2139860999996,None,,,,,,,,,,00063,001,2026-01-19_21h58.30.655,MST_task,2024.2.0,60.03716300424945,2026-01-19 21h59.23.012893 +0530,
,Objects\298a.jpg,124,0,125,,,,,,,j,1.0834619999986899,0.14406769999914104,None,,,,125,0,124,539.2298998000006,,,,,,,,,,,,,,,,,,,,,,,539.2142587999988,539.2298998000006,539.7297069999986,539.7129509000006,,,,,,,,,,,,,,,,,,,,,,,,,,539.7223128000005,539.7297069999986,539.7297069999986,539.7297069999986,542.7292525999983,542.7292525999983,542.7292525999983,542.7138262000008,indoor,j,1.0834619999986899,0.14406769999914104,542.7139868999984,542.7140497,None,,,,,,,,,,00063,001,2026-01-19_21h58.30.655,MST_task,2024.2.0,60.03716300424945,2026-01-19 21h59.23.012893 +0530,
,Objects\256a.jpg,125,0,126,,,,,,,j,2.335565699999279,0.16861299999800394,None,,,,126,0,125,542.7292525999983,,,,,,,,,,,,,,,,,,,,,,,542.7143397,542.7292525999983,543.229673400001,543.2132722999995,,,,,,,,,,,,,,,,,,,,,,,,,,543.2240646999999,543.229673400001,543.229673400001,543.229673400001,546.2292473999987,546.2292473999987,546.2292473999987,546.2138799999993,indoor,j,2.335565699999279,0.16861299999800394,546.2140403000012,546.2141035999994,None,,,,,,,,,,00063,001,2026-01-19_21h58.30.655,MST_task,2024.2.0,60.03716300424945,2026-01-19 21h59.23.012893 +0530,
,Objects\281a.jpg,126,0,127,,,,,,,f,1.5237104999978328,0.12051920000158134,None,,,,127,0,126,546.2292473999987,,,,,,,,,,,,,,,,,,,,,,,546.2143950999998,546.2292473999987,546.7296581999981,546.7129729000008,,,,,,,,,,,,,,,,,,,,,,,,,,546.7246833999998,546.7296581999981,546.7296581999981,546.7296581999981,549.7290146000014,549.7290146000014,549.7290146000014,549.7134670000014,shoe,f,1.5237104999978328,0.12051920000158134,549.7190790999994,549.7191174,None,,,,,,,,,,00063,001,2026-01-19_21h58.30.655,MST_task,2024.2.0,60.03716300424945,2026-01-19 21h59.23.012893 +0530,
,Objects\079a.jpg,127,0,128,,,,,,,j,2.1519509999998263,0.11237659999824245,None,,,,128,0,127,549.7290146000014,,,,,,,,,,,,,,,,,,,,,,,549.7192692999997,549.7290146000014,550.2295291999981,550.213074700001,,,,,,,,,,,,,,,,,,,,,,,,,,550.2225429999999,550.2295291999981,550.2295291999981,550.2295291999981,553.2291412999984,553.2291412999984,553.2291412999984,553.2138348999979,shoe,j,2.1519509999998263,0.11237659999824245,553.214046000001,553.2141159999992,None,,,,,,,,,,00063,001,2026-01-19_21h58.30.655,MST_task,2024.2.0,60.03716300424945,2026-01-19 21h59.23.012893 +0530,
,Objects\274a.jpg,128,0,129,,,,,,,f,1.6940782999990915,0.1602972000000591,None,,,,129,0,128,553.2291412999984,,,,,,,,,,,,,,,,,,,,,,,553.214577499999,553.2291412999984,553.7355433000012,553.7129663999985,,,,,,,,,,,,,,,,,,,,,,,,,,553.7334286000005,553.7355433000012,553.7355433000012,553.7355433000012,,,,556.7295388999992,shoe,f,1.6940782999990915,0.1602972000000591,556.7297001000006,556.7297685000012,None,,,,,,,,,,00063,001,2026-01-19_21h58.30.655,MST_task,2024.2.0,60.03716300424945,2026-01-19 21h59.23.012893 +0530,
,Objects\194a.jpg,129,0,130,,,,,,,f,1.8472249000005831,0.1682500999995682,None,,,,130,0,129,556.7458555999983,,,,,,,,,,,,,,,,,,,,,,,556.730057599998,556.7458555999983,557.2460274000005,557.2295172000013,,,,,,,,,,,,,,,,,,,,,,,,,,557.2379733999987,557.2460274000005,557.2460274000005,557.2460274000005,560.2455369999989,560.2455369999989,560.2455369999989,560.2305382999984,shoe,f,1.8472249000005831,0.1682500999995682,560.2307034000005,560.2307682999999,None,,,,,,,,,,00063,001,2026-01-19_21h58.30.655,MST_task,2024.2.0,60.03716300424945,2026-01-19 21h59.23.012893 +0530,
,Objects\308a.jpg,130,0,131,,,,,,,f,1.179582599997957,0.1514766000000236,None,,,,131,0,130,560.2455369999989,,,,,,,,,,,,,,,,,,,,,,,560.2310672999993,560.2455369999989,560.7462864000008,560.7296473999995,,,,,,,,,,,,,,,,,,,,,,,,,,560.7367675999994,560.7462864000008,560.7462864000008,560.7462864000008,563.745452799998,563.745452799998,563.745452799998,563.7305073999996,shoe,f,1.179582599997957,0.1514766000000236,563.7306779999999,563.730741899999,None,,,,,,,,,,00063,001,2026-01-19_21h58.30.655,MST_task,2024.2.0,60.03716300424945,2026-01-19 21h59.23.012893 +0530,
,Objects\310a.jpg,131,0,132,,,,,,,f,0.7918755999999121,0.18396299999949406,None,,,,132,0,131,563.745452799998,,,,,,,,,,,,,,,,,,,,,,,563.7310433999992,563.745452799998,564.2460132999986,564.2296330999998,,,,,,,,,,,,,,,,,,,,,,,,,,564.2410033999986,564.2460132999986,564.2460132999986,564.2460132999986,567.2455872999999,567.2455872999999,567.2455872999999,567.2302627999998,shoe,f,0.7918755999999121,0.18396299999949406,567.2304225999978,567.230486299999,None,,,,,,,,,,00063,001,2026-01-19_21h58.30.655,MST_task,2024.2.0,60.03716300424945,2026-01-19 21h59.23.012893 +0530,
,Objects\111a.jpg,132,0,133,,,,,,,j,1.9628712000012456,0.1445184000003792,None,,,,133,0,132,567.2455872999999,,,,,,,,,,,,,,,,,,,,,,,567.2307787999998,567.2455872999999,567.7464682999998,567.7297180999994,,,,,,,,,,,,,,,,,,,,,,,,,,567.7386893000003,567.7464682999998,567.7464682999998,567.7464682999998,570.7457193000009,570.7457193000009,570.7457193000009,570.7304856999981,shoe,j,1.9628712000012456,0.1445184000003792,570.7306427000003,570.7307046999995,None,,,,,,,,,,00063,001,2026-01-19_21h58.30.655,MST_task,2024.2.0,60.03716300424945,2026-01-19 21h59.23.012893 +0530,
,Objects\180a.jpg,133,0,134,,,,,,,f,1.5572314000019105,0.19254150000051595,None,,,,134,0,133,570.7457193000009,,,,,,,,,,,,,,,,,,,,,,,570.7311081999978,570.7457193000009,571.2561232000007,571.2294736000003,,,,,,,,,,,,,,,,,,,,,,,,,,571.2535774999997,571.2561232000007,571.2561232000007,571.2561232000007,,,,574.2462512999991,indoor,f,1.5572314000019105,0.19254150000051595,574.2522774999998,574.2523303999988,None,,,,,,,,,,00063,001,2026-01-19_21h58.30.655,MST_task,2024.2.0,60.03716300424945,2026-01-19 21h59.23.012893 +0530,
,Objects\014a.jpg,134,0,135,,,,,,,f,0.8271256999978505,0.15224700000180746,None,,,,135,0,134,574.2625683000006,,,,,,,,,,,,,,,,,,,,,,,574.2525260000002,574.2625683000006,574.7624747000009,574.7462511999984,,,,,,,,,,,,,,,,,,,,,,,,,,574.7526130000006,574.7624747000009,574.7624747000009,574.7624747000009,577.7624202000006,577.7624202000006,577.7624202000006,577.7470710999987,indoor,f,0.8271256999978505,0.15224700000180746,577.747230099998,577.7472909999997,None,,,,,,,,,,00063,001,2026-01-19_21h58.30.655,MST_task,2024.2.0,60.03716300424945,2026-01-19 21h59.23.012893 +0530,
,Objects\024a.jpg,135,0,136,,,,,,,f,1.5024034999987634,0.16800979999970878,None,,,,136,0,135,577.7624202000006,,,,,,,,,,,,,,,,,,,,,,,577.7475835000005,577.7624202000006,578.2628294999995,578.246242199999,,,,,,,,,,,,,,,,,,,,,,,,,,578.2524159999994,578.2628294999995,578.2628294999995,578.2628294999995,581.262597099998,581.262597099998,581.262597099998,581.2469787000009,indoor,f,1.5024034999987634,0.16800979999970878,581.2471684000011,581.2472400000006,None,,,,,,,,,,00063,001,2026-01-19_21h58.30.655,MST_task,2024.2.0,60.03716300424945,2026-01-19 21h59.23.012893 +0530,
,Objects\153a.jpg,136,0,137,,,,,,,f,0.955096699999558,0.1439276000019163,None,,,,137,0,136,581.262597099998,,,,,,,,,,,,,,,,,,,,,,,581.2475444000011,581.262597099998,581.7627519999987,581.7462618999998,,,,,,,,,,,,,,,,,,,,,,,,,,581.7555336000005,581.7627519999987,581.7627519999987,581.7627519999987,584.762358699998,584.762358699998,584.762358699998,584.7473151999984,indoor,f,0.955096699999558,0.1439276000019163,584.7474815999994,584.7475487999982,None,,,,,,,,,,00063,001,2026-01-19_21h58.30.655,MST_task,2024.2.0,60.03716300424945,2026-01-19 21h59.23.012893 +0530,
,Objects\088a.jpg,137,0,138,,,,,,,f,1.4710747999997693,0.14351820000229054,None,,,,138,0,137,584.762358699998,,,,,,,,,,,,,,,,,,,,,,,584.7478456999997,584.762358699998,585.2627882999986,585.2462338000005,,,,,,,,,,,,,,,,,,,,,,,,,,585.2557176000009,585.2627882999986,585.2627882999986,585.2627882999986,588.2623658999983,588.2623658999983,588.2623658999983,588.2470611999997,indoor,f,1.4710747999997693,0.14351820000229054,588.2472267999983,588.2472931000011,None,,,,,,,,,,00063,001,2026-01-19_21h58.30.655,MST_task,2024.2.0,60.03716300424945,2026-01-19 21h59.23.012893 +0530,
,Objects\326a.jpg,138,0,139,,,,,,,f,1.0762542000011308,0.12849909999931697,None,,,,139,0,138,588.2623658999983,,,,,,,,,,,,,,,,,,,,,,,588.2476126000001,588.2623658999983,588.7691133000008,588.7458399999996,,,,,,,,,,,,,,,,,,,,,,,,,,588.766926100001,588.7691133000008,588.7691133000008,588.7691133000008,,,,591.7622513999995,indoor,f,1.0762542000011308,0.12849909999931697,591.762318000001,591.762352400001,None,,,,,,,,,,00063,001,2026-01-19_21h58.30.655,MST_task,2024.2.0,60.03716300424945,2026-01-19 21h59.23.012893 +0530,
,Objects\073a.jpg,139,0,140,,,,,,,f,1.208149300000514,0.1199930000002496,None,,,,140,0,139,591.7797733999978,,,,,,,,,,,,,,,,,,,,,,,591.7624500999991,591.7797733999978,,592.2627959999991,,,,,,,,,,,,,,,,,,,,,,,,,,592.2910697000007,592.2937128999984,592.2937128999984,592.2937128999984,,,,595.2629094000004,indoor,f,1.208149300000514,0.1199930000002496,595.2630721999994,595.2631342999994,None,,,,,,,,,,00063,001,2026-01-19_21h58.30.655,MST_task,2024.2.0,60.03716300424945,2026-01-19 21h59.23.012893 +0530,
,Objects\141a.jpg,140,0,141,,,,,,,j,2.4746072000016284,0.16744929999913438,None,,,,141,0,140,595.2792203999998,,,,,,,,,,,,,,,,,,,,,,,595.2634247999995,595.2792203999998,595.7794333999991,595.7626739999978,,,,,,,,,,,,,,,,,,,,,,,,,,595.7740324000006,595.7794333999991,595.7794333999991,595.7794333999991,598.7793044999999,598.7793044999999,598.7793044999999,598.7637871000006,shoe,j,2.4746072000016284,0.16744929999913438,598.7699090999995,598.7699573999998,None,,,,,,,,,,00063,001,2026-01-19_21h58.30.655,MST_task,2024.2.0,60.03716300424945,2026-01-19 21h59.23.012893 +0530,
,Objects\328a.jpg,141,0,142,,,,,,,f,1.4943664999991597,0.16799830000309157,None,,,,142,0,141,598.7793044999999,,,,,,,,,,,,,,,,,,,,,,,598.7701433000002,598.7793044999999,599.2794661999978,599.2629979999983,,,,,,,,,,,,,,,,,,,,,,,,,,599.2720974000003,599.2794661999978,599.2794661999978,599.2794661999978,602.2791733000013,602.2791733000013,602.2791733000013,602.2641815999996,shoe,f,1.4943664999991597,0.16799830000309157,602.2643430999997,602.2644054999982,None,,,,,,,,,,00063,001,2026-01-19_21h58.30.655,MST_task,2024.2.0,60.03716300424945,2026-01-19 21h59.23.012893 +0530,
,Objects\170a.jpg,142,0,143,,,,,,,j,1.5696826000021247,0.1521629999988363,None,,,,143,0,142,602.2791733000013,,,,,,,,,,,,,,,,,,,,,,,602.2646843000002,602.2791733000013,602.7794811999993,602.7630207000002,,,,,,,,,,,,,,,,,,,,,,,,,,602.7725866000001,602.7794811999993,602.7794811999993,602.7794811999993,605.7789971999991,605.7789971999991,605.7789971999991,605.7635683999979,shoe,j,1.5696826000021247,0.1521629999988363,605.7637269000006,605.7637877999987,None,,,,,,,,,,00063,001,2026-01-19_21h58.30.655,MST_task,2024.2.0,60.03716300424945,2026-01-19 21h59.23.012893 +0530,
,Objects\020a.jpg,143,0,144,,,,,,,j,2.2059635000005073,0.16843080000035116,None,,,,144,0,143,605.7789971999991,,,,,,,,,,,,,,,,,,,,,,,605.7640785000003,605.7789971999991,606.2794297,606.2627299999986,,,,,,,,,,,,,,,,,,,,,,,,,,606.2722441000005,606.2794297,606.2794297,606.2794297,609.279247399998,609.279247399998,609.279247399998,609.2638150999992,shoe,j,2.2059635000005073,0.16843080000035116,609.2639817999989,609.264042499999,None,,,,,,,,,,00063,001,2026-01-19_21h58.30.655,MST_task,2024.2.0,60.03716300424945,2026-01-19 21h59.23.012893 +0530,
,Objects\050a.jpg,144,0,145,,,,,,,f,1.6105358999993769,0.19136470000012196,None,,,,145,0,144,609.279247399998,,,,,,,,,,,,,,,,,,,,,,,609.2644542999988,609.279247399998,609.7792850000005,609.762687800001,,,,,,,,,,,,,,,,,,,,,,,,,,609.7694142,609.7792850000005,609.7792850000005,609.7792850000005,612.7790792999986,612.7790792999986,612.7790792999986,612.7630919000003,shoe,f,1.6105358999993769,0.19136470000012196,612.7631390999995,612.7631552999992,None,,,,,,,,,,00063,001,2026-01-19_21h58.30.655,MST_task,2024.2.0,60.03716300424945,2026-01-19 21h59.23.012893 +0530,
,Objects\323a.jpg,145,0,146,,,,,,,f,1.3981691999979375,0.16702140000052168,None,,,,146,0,145,612.7790792999986,,,,,,,,,,,,,,,,,,,,,,,612.7632328,612.7790792999986,613.2799544000009,613.2629936999983,,,,,,,,,,,,,,,,,,,,,,,,,,613.2749492000003,613.2799544000009,613.2799544000009,613.2799544000009,,,,616.2635143000007,shoe,f,1.3981691999979375,0.16702140000052168,616.2636755999993,616.2637437000012,None,,,,,,,,,,00063,001,2026-01-19_21h58.30.655,MST_task,2024.2.0,60.03716300424945,2026-01-19 21h59.23.012893 +0530,
,Objects\232a.jpg,146,0,147,,,,,,,f,1.4585544000001391,0.18349010000019916,None,,,,147,0,146,616.2789565999992,,,,,,,,,,,,,,,,,,,,,,,616.2640237000014,616.2789565999992,616.7792936000005,616.7629882000001,,,,,,,,,,,,,,,,,,,,,,,,,,616.7747548999978,616.7792936000005,616.7792936000005,616.7792936000005,619.7790664999993,619.7790664999993,619.7790664999993,619.7638327999994,shoe,f,1.4585544000001391,0.18349010000019916,619.763986599999,619.7640475000007,None,,,,,,,,,,00063,001,2026-01-19_21h58.30.655,MST_task,2024.2.0,60.03716300424945,2026-01-19 21h59.23.012893 +0530,
,Objects\315a.jpg,147,0,148,,,,,,,j,1.7260083000001032,0.15959649999786052,None,,,,148,0,147,619.7790664999993,,,,,,,,,,,,,,,,,,,,,,,619.7643347000012,619.7790664999993,620.2795477,620.2630167999996,,,,,,,,,,,,,,,,,,,,,,,,,,620.2752417999982,620.2795477,620.2795477,620.2795477,623.2792631999982,623.2792631999982,623.2792631999982,623.2636204999981,indoor,j,1.7260083000001032,0.15959649999786052,623.269726399998,623.2697754000001,None,,,,,,,,,,00063,001,2026-01-19_21h58.30.655,MST_task,2024.2.0,60.03716300424945,2026-01-19 21h59.23.012893 +0530,
,Objects\150a.jpg,148,0,149,,,,,,,f,1.5381378999991284,0.18353299999944284,None,,,,149,0,148,623.2792631999982,,,,,,,,,,,,,,,,,,,,,,,623.2699662000014,623.2792631999982,623.7796689999996,623.7629420000012,,,,,,,,,,,,,,,,,,,,,,,,,,623.7698650999992,623.7796689999996,623.7796689999996,623.7796689999996,626.7790247000012,626.7790247000012,626.7790247000012,626.7642621999985,indoor,f,1.5381378999991284,0.18353299999944284,626.7644330000003,626.7644943000014,None,,,,,,,,,,00063,001,2026-01-19_21h58.30.655,MST_task,2024.2.0,60.03716300424945,2026-01-19 21h59.23.012893 +0530,
,Objects\223a.jpg,149,0,150,,,,,,,j,2.0222921000022325,0.1600105999968946,None,,,,150,0,149,626.7790247000012,,,,,,,,,,,,,,,,,,,,,,,626.7647754999998,626.7790247000012,627.2795088999992,627.2629654000011,,,,,,,,,,,,,,,,,,,,,,,,,,627.2695333999982,627.2795088999992,627.2795088999992,627.2795088999992,630.2792234000008,630.2792234000008,630.2792234000008,630.2639597999987,indoor,j,2.0222921000022325,0.1600105999968946,630.2641288000013,630.2641889000006,None,,,,,,,,,,00063,001,2026-01-19_21h58.30.655,MST_task,2024.2.0,60.03716300424945,2026-01-19 21h59.23.012893 +0530,
,Objects\373a.jpg,150,0,151,,,,,,,j,0.8658467000022938,0.17652209999869228,None,,,,151,0,150,630.2792234000008,,,,,,,,,,,,,,,,,,,,,,,630.2644638999991,630.2792234000008,630.7793762000001,630.7630385999983,,,,,,,,,,,,,,,,,,,,,,,,,,630.7721764999987,630.7793762000001,630.7793762000001,630.7793762000001,633.7792287000011,633.7792287000011,633.7792287000011,633.764368199998,indoor,j,0.8658467000022938,0.17652209999869228,633.764535899998,633.7646032999983,None,,,,,,,,,,00063,001,2026-01-19_21h58.30.655,MST_task,2024.2.0,60.03716300424945,2026-01-19 21h59.23.012893 +0530,
,Objects\043a.jpg,151,0,152,,,,,,,f,2.006282700000156,0.1434071000003314,None,,,,152,0,151,633.7792287000011,,,,,,,,,,,,,,,,,,,,,,,633.7649192999997,633.7792287000011,634.279521299999,634.2628745000002,,,,,,,,,,,,,,,,,,,,,,,,,,634.2698874999987,634.279521299999,634.279521299999,634.279521299999,637.2791279000012,637.2791279000012,637.2791279000012,637.264230599998,indoor,f,2.006282700000156,0.1434071000003314,637.2644010000004,637.2644650000002,None,,,,,,,,,,00063,001,2026-01-19_21h58.30.655,MST_task,2024.2.0,60.03716300424945,2026-01-19 21h59.23.012893 +0530,
,Objects\252a.jpg,152,0,153,,,,,,,f,0.8104420999989088,0.1195305000001099,None,,,,153,0,152,637.2791279000012,,,,,,,,,,,,,,,,,,,,,,,637.2647475000012,637.2791279000012,637.7793735000014,637.7628502000007,,,,,,,,,,,,,,,,,,,,,,,,,,637.7696461000014,637.7793735000014,637.7793735000014,637.7793735000014,640.7792651999989,640.7792651999989,640.7792651999989,640.7641652999991,indoor,f,0.8104420999989088,0.1195305000001099,640.7643441,640.7644074999989,None,,,,,,,,,,00063,001,2026-01-19_21h58.30.655,MST_task,2024.2.0,60.03716300424945,2026-01-19 21h59.23.012893 +0530,
,Objects\262a.jpg,153,0,154,,,,,,,j,1.5337650000001304,0.09588559999974677,None,,,,154,0,153,640.7792651999989,,,,,,,,,,,,,,,,,,,,,,,640.7646817999994,640.7792651999989,641.2797369,641.2630539999991,,,,,,,,,,,,,,,,,,,,,,,,,,641.2718214999986,641.2797369,641.2797369,641.2797369,644.2801001999978,644.2801001999978,644.2801001999978,644.2641863999997,indoor,j,1.5337650000001304,0.09588559999974677,644.2643807999993,644.2644449,None,,,,,,,,,,00063,001,2026-01-19_21h58.30.655,MST_task,2024.2.0,60.03716300424945,2026-01-19 21h59.23.012893 +0530,
,Objects\239a.jpg,154,0,155,,,,,,,j,1.3931984999981069,0.15169009999954142,None,,,,155,0,154,644.2801001999978,,,,,,,,,,,,,,,,,,,,,,,644.2647335000001,644.2801001999978,644.804334299999,644.7629788999984,,,,,,,,,,,,,,,,,,,,,,,,,,644.8016250000001,644.804334299999,644.804334299999,644.804334299999,,,,647.7795106000012,shoe,j,1.3931984999981069,0.15169009999954142,647.7860309999996,647.7860820999995,None,,,,,,,,,,00063,001,2026-01-19_21h58.30.655,MST_task,2024.2.0,60.03716300424945,2026-01-19 21h59.23.012893 +0530,
,Objects\186a.jpg,155,0,156,,,,,,,f,2.6297078000025067,0.09615539999867906,None,,,,156,0,155,647.7957380999978,,,,,,,,,,,,,,,,,,,,,,,647.7862750999993,647.7957380999978,648.2957542000004,648.2788617000006,,,,,,,,,,,,,,,,,,,,,,,,,,648.2852822999994,648.2957542000004,648.2957542000004,648.2957542000004,651.2957313000006,651.2957313000006,651.2957313000006,651.2803839000007,shoe,f,2.6297078000025067,0.09615539999867906,651.2805375999997,651.2805980000012,None,,,,,,,,,,00063,001,2026-01-19_21h58.30.655,MST_task,2024.2.0,60.03716300424945,2026-01-19 21h59.23.012893 +0530,
,Objects\048a.jpg,156,0,157,,,,,,,j,0.9249330999991798,0.1286537000014505,None,,,,157,0,156,651.2957313000006,,,,,,,,,,,,,,,,,,,,,,,651.2808846000007,651.2957313000006,651.8002000999986,651.7792664000008,,,,,,,,,,,,,,,,,,,,,,,,,,651.7978971000011,651.8002000999986,651.8002000999986,651.8002000999986,,,,654.7962306000009,shoe,j,0.9249330999991798,0.1286537000014505,654.7964205999997,654.7964945999993,None,,,,,,,,,,00063,001,2026-01-19_21h58.30.655,MST_task,2024.2.0,60.03716300424945,2026-01-19 21h59.23.012893 +0530,
,Objects\335a.jpg,157,0,158,,,,,,,j,1.3730857000009564,0.11997749999864027,None,,,,158,0,157,654.8126096999986,,,,,,,,,,,,,,,,,,,,,,,654.7968263000002,654.8126096999986,655.3127254999999,655.2962415000002,,,,,,,,,,,,,,,,,,,,,,,,,,655.3043679000002,655.3127254999999,655.3127254999999,655.3127254999999,658.3127215999993,658.3127215999993,658.3127215999993,658.2966764000012,shoe,j,1.3730857000009564,0.11997749999864027,658.296833299999,658.2968976000011,None,,,,,,,,,,00063,001,2026-01-19_21h58.30.655,MST_task,2024.2.0,60.03716300424945,2026-01-19 21h59.23.012893 +0530,
,Objects\185a.jpg,158,0,159,,,,,,,f,1.1624747999994725,0.09629290000157198,None,,,,159,0,158,658.3127215999993,,,,,,,,,,,,,,,,,,,,,,,658.297322800001,658.3127215999993,658.8185749000004,658.7962459000009,,,,,,,,,,,,,,,,,,,,,,,,,,658.8161083000014,658.8185749000004,658.8185749000004,658.8185749000004,,,,661.8130261000006,shoe,f,1.1624747999994725,0.09629290000157198,661.8131930999989,661.8132594999988,None,,,,,,,,,,00063,001,2026-01-19_21h58.30.655,MST_task,2024.2.0,60.03716300424945,2026-01-19 21h59.23.012893 +0530,
,Objects\023a.jpg,159,0,160,,,,,,,f,1.3082945000023756,0.11145469999974011,None,,,,160,0,159,661.8290815,,,,,,,,,,,,,,,,,,,,,,,661.8136691,661.8290815,662.3295016000011,662.3129798000009,,,,,,,,,,,,,,,,,,,,,,,,,,662.3217919999988,662.3295016000011,662.3295016000011,662.3295016000011,665.3290706000007,665.3290706000007,665.3290706000007,665.3137929000004,shoe,f,1.3082945000023756,0.11145469999974011,665.3139554000009,665.3140162999989,None,,,,,,,,,,00063,001,2026-01-19_21h58.30.655,MST_task,2024.2.0,60.03716300424945,2026-01-19 21h59.23.012893 +0530,
,Objects\296a.jpg,160,0,161,,,,,,,j,1.4229964000005566,0.12791549999747076,None,,,,161,0,160,665.3290706000007,,,,,,,,,,,,,,,,,,,,,,,665.3143418,665.3290706000007,665.8302203999992,665.813006299999,,,,,,,,,,,,,,,,,,,,,,,,,,665.8222147999986,665.8302203999992,665.8302203999992,665.8302203999992,668.8292385999994,668.8292385999994,668.8292385999994,668.8137930000012,shoe,j,1.4229964000005566,0.12791549999747076,668.8139475999997,668.8140090999987,None,,,,,,,,,,00063,001,2026-01-19_21h58.30.655,MST_task,2024.2.0,60.03716300424945,2026-01-19 21h59.23.012893 +0530,
,Objects\364a.jpg,161,0,162,,,,,,,j,1.7236383999988902,0.11129280000022845,None,,,,162,0,161,668.8292385999994,,,,,,,,,,,,,,,,,,,,,,,668.8142798999979,668.8292385999994,669.3301585000008,669.3130262000013,,,,,,,,,,,,,,,,,,,,,,,,,,669.3272668999998,669.3301585000008,669.3301585000008,669.3301585000008,,,,672.3296472000002,indoor,j,1.7236383999988902,0.11129280000022845,672.3353595000008,672.3354362999999,None,,,,,,,,,,00063,001,2026-01-19_21h58.30.655,MST_task,2024.2.0,60.03716300424945,2026-01-19 21h59.23.012893 +0530,
,Objects\116a.jpg,162,0,163,,,,,,,j,0.7272196999983862,0.16016620000300463,None,,,,163,0,162,672.345736700001,,,,,,,,,,,,,,,,,,,,,,,672.335721899999,672.345736700001,672.8463785999993,672.8296601000002,,,,,,,,,,,,,,,,,,,,,,,,,,672.8412620999989,672.8463785999993,672.8463785999993,672.8463785999993,675.8458476999986,675.8458476999986,675.8458476999986,675.8301231000005,indoor,j,0.7272196999983862,0.16016620000300463,675.8302757999991,675.8303369999994,None,,,,,,,,,,00063,001,2026-01-19_21h58.30.655,MST_task,2024.2.0,60.03716300424945,2026-01-19 21h59.23.012893 +0530,
