thisN,thisTrialN,thisRepN,key_resp_3.keys,key_resp_3.rt,key_resp_3.duration,trials.thisRepN,trials.thisTrialN,trials.thisN,thisRow.t,notes,intro_page.started,text.started,key_resp.started,intro_page.stopped,key_resp.keys,key_resp.rt,key_resp.duration,instructions.started,text_2.started,key_resp_2.started,instructions.stopped,key_resp_2.keys,key_resp_2.rt,key_resp_2.duration,demo1.started,image_1.started,image_2.started,text_7.started,key_resp_6.started,text_9.started,demo1.stopped,key_resp_6.keys,key_resp_6.rt,key_resp_6.duration,demo3.started,image_5.started,image_6.started,text_11.started,text_12.started,key_resp_8.started,demo3.stopped,key_resp_8.keys,key_resp_8.rt,key_resp_8.duration,demo_conclusion.started,text_13.started,key_resp_9.started,demo_conclusion.stopped,key_resp_9.keys,key_resp_9.rt,key_resp_9.duration,start_test.started,text_6.started,key_resp_5.started,start_test.stopped,key_resp_5.keys,key_resp_5.rt,key_resp_5.duration,ISI.started,text_4.started,ISI.stopped,routine_1.started,image.started,text_3.started,key_resp_3.started,routine_1.stopped,image_path,position_of_stimuli,trials.key_resp_3.keys,trials.key_resp_3.rt,trials.key_resp_3.duration,text_4.stopped,End_page.started,text_5.started,key_resp_4.started,End_page.stopped,key_resp_4.keys,key_resp_4.rt,key_resp_4.duration,participant,session,date,expName,psychopyVersion,frameRate,expStart,
,,,,,,,,,,,0.010728599998401478,0.027091600000858307,0.027091600000858307,4.028028500004439,space,3.9839931999740656,None,,,,,,,,,,,,,,,,,,,,,,,,,,,,,,,,,,,,,,,,,,,,,,,,,,,,,,,,,,,,,,,00037,001,2026-01-16_23h19.04.686,MST_test,2024.2.0,59.80110153249478,2026-01-16 23h19.20.343161 +0530,
,,,,,,,,,,,,,,,,,,4.028060600016033,4.042702800012194,4.042702800012194,17.99226660002023,space,13.936430200003088,None,,,,,,,,,,,,,,,,,,,,,,,,,,,,,,,,,,,,,,,,,,,,,,,,,,,,,,,,00037,001,2026-01-16_23h19.04.686,MST_test,2024.2.0,59.80110153249478,2026-01-16 23h19.20.343161 +0530,
,,,,,,,,,,,,,,,,,,,,,,,,,17.99229560000822,18.00844830001006,18.00844830001006,18.00844830001006,18.00844830001006,18.00844830001006,23.930012700002408,space,5.914646199991694,None,,,,,,,,,,,,,,,,,,,,,,,,,,,,,,,,,,,,,,,,,,,,,,00037,001,2026-01-16_23h19.04.686,MST_test,2024.2.0,59.80110153249478,2026-01-16 23h19.20.343161 +0530,
,,,,,,,,,,,,,,,,,,,,,,,,,,,,,,,,,,,23.93003889999818,23.94602550001582,23.94602550001582,23.94602550001582,23.94602550001582,23.94602550001582,26.58949909999501,space,2.633134699979564,None,,,,,,,,,,,,,,,,,,,,,,,,,,,,,,,,,,,,00037,001,2026-01-16_23h19.04.686,MST_test,2024.2.0,59.80110153249478,2026-01-16 23h19.20.343161 +0530,
,,,,,,,,,,,,,,,,,,,,,,,,,,,,,,,,,,,,,,,,,,,,,26.589526800002204,26.605235800001537,26.605235800001537,50.17182230000617,space,23.557903200009605,None,,,,,,,,,,,,,,,,,,,,,,,,,,,,,00037,001,2026-01-16_23h19.04.686,MST_test,2024.2.0,59.80110153249478,2026-01-16 23h19.20.343161 +0530,
,,,,,,,,,,,,,,,,,,,,,,,,,,,,,,,,,,,,,,,,,,,,,,,,,,,,50.17185889999382,50.20505940000294,50.20505940000294,152.98171590000857,space,102.76665539998794,None,,,,,,,,,,,,,,,,,,,,,,00037,001,2026-01-16_23h19.04.686,MST_test,2024.2.0,59.80110153249478,2026-01-16 23h19.20.343161 +0530,
0,0,1,n,6.406502600002568,None,1,0,0,152.9975548000075,,,,,,,,,,,,,,,,,,,,,,,,,,,,,,,,,,,,,,,,,,,,,,,,,,152.98551190001308,152.9975548000075,153.48346580000361,153.49581580000813,153.5178472000116,153.5178472000116,153.5178472000116,159.93920260001323,Foils\034a.jpg,none,n,6.406502600002568,None,,,,,,,,,00037,001,2026-01-16_23h19.04.686,MST_test,2024.2.0,59.80110153249478,2026-01-16 23h19.20.343161 +0530,
1,0,2,n,8.370097999984864,None,2,0,1,159.9553761999996,,,,,,,,,,,,,,,,,,,,,,,,,,,,,,,,,,,,,,,,,,,,,,,,,,159.93929720000597,159.9553761999996,160.4403369000065,160.4439759000088,160.4570837999927,160.4570837999927,160.4570837999927,168.8370886000048,Foils\026a.jpg,none,n,8.370097999984864,None,,,,,,,,,00037,001,2026-01-16_23h19.04.686,MST_test,2024.2.0,59.80110153249478,2026-01-16 23h19.20.343161 +0530,
2,0,3,o,5.311913999990793,None,3,0,2,168.85308170001372,,,,,,,,,,,,,,,,,,,,,,,,,,,,,,,,,,,,,,,,,,,,,,,,,,168.8371838000021,168.85308170001372,169.3382976000139,169.34150619999855,169.35479000001214,169.35479000001214,169.35479000001214,174.67425290000392,Objects\049a.jpg,post,o,5.311913999990793,None,,,,,,,,,00037,001,2026-01-16_23h19.04.686,MST_test,2024.2.0,59.80110153249478,2026-01-16 23h19.20.343161 +0530,
3,0,4,o,2.0430049000133295,None,4,0,3,174.69052000000374,,,,,,,,,,,,,,,,,,,,,,,,,,,,,,,,,,,,,,,,,,,,,,,,,,174.67434640001738,174.69052000000374,175.17535309999948,175.17879730000277,175.19203320000088,175.19203320000088,175.19203320000088,177.24968430001172,Objects\305a.jpg,post,o,2.0430049000133295,None,,,,,,,,,00037,001,2026-01-16_23h19.04.686,MST_test,2024.2.0,59.80110153249478,2026-01-16 23h19.20.343161 +0530,
4,0,5,o,1.323627600009786,None,5,0,4,177.2661189000064,,,,,,,,,,,,,,,,,,,,,,,,,,,,,,,,,,,,,,,,,,,,,,,,,,177.24979130001157,177.2661189000064,177.75154260001727,177.75477950001368,177.76772500001243,177.76772500001243,177.76772500001243,179.1065923999995,Objects\229b.jpg,mid,o,1.323627600009786,None,,,,,,,,,00037,001,2026-01-16_23h19.04.686,MST_test,2024.2.0,59.80110153249478,2026-01-16 23h19.20.343161 +0530,
5,0,6,o,1.2431988999887835,None,6,0,5,179.12238290000823,,,,,,,,,,,,,,,,,,,,,,,,,,,,,,,,,,,,,,,,,,,,,,,,,,179.106687099993,179.12238290000823,179.6075903000019,179.6149156000174,179.62430749999476,179.62430749999476,179.62430749999476,180.8792638000159,Objects\383a.jpg,pre,o,1.2431988999887835,None,,,,,,,,,00037,001,2026-01-16_23h19.04.686,MST_test,2024.2.0,59.80110153249478,2026-01-16 23h19.20.343161 +0530,
6,0,7,o,4.382921900018118,None,7,0,6,180.89524750001146,,,,,,,,,,,,,,,,,,,,,,,,,,,,,,,,,,,,,,,,,,,,,,,,,,180.87935830000788,180.89524750001146,181.3804708000098,181.38947560000815,181.41388599999482,181.41388599999482,181.41388599999482,185.81326290001743,Objects\178a.jpg,mid,o,4.382921900018118,None,,,,,,,,,00037,001,2026-01-16_23h19.04.686,MST_test,2024.2.0,59.80110153249478,2026-01-16 23h19.20.343161 +0530,
7,0,8,o,2.2406907999829855,None,8,0,7,185.82930820001638,,,,,,,,,,,,,,,,,,,,,,,,,,,,,,,,,,,,,,,,,,,,,,,,,,185.81335450001643,185.82930820001638,186.31428459999734,186.31753110000864,186.3310507000133,186.3310507000133,186.3310507000133,188.57303309999406,Objects\246a.jpg,mid,o,2.2406907999829855,None,,,,,,,,,00037,001,2026-01-16_23h19.04.686,MST_test,2024.2.0,59.80110153249478,2026-01-16 23h19.20.343161 +0530,
8,0,9,o,1.169071599986637,None,9,0,8,188.58890279999468,,,,,,,,,,,,,,,,,,,,,,,,,,,,,,,,,,,,,,,,,,,,,,,,,,188.57313239999348,188.58890279999468,189.07424740001443,189.07720699999481,189.09058350001578,189.09058350001578,189.09058350001578,190.26200109999627,Objects\081a.jpg,mid,o,1.169071599986637,None,,,,,,,,,00037,001,2026-01-16_23h19.04.686,MST_test,2024.2.0,59.80110153249478,2026-01-16 23h19.20.343161 +0530,
9,0,10,o,53.479564100009156,None,10,0,9,190.28304380000918,,,,,,,,,,,,,,,,,,,,,,,,,,,,,,,,,,,,,,,,,,,,,,,,,,190.26209430000745,190.28304380000918,190.76339770000777,190.7662707999989,190.78009519999614,190.78009519999614,190.78009519999614,244.26794960000552,Objects\036a.jpg,mid,o,53.479564100009156,None,,,,,,,,,00037,001,2026-01-16_23h19.04.686,MST_test,2024.2.0,59.80110153249478,2026-01-16 23h19.20.343161 +0530,
10,0,11,o,1.6896711000008509,None,11,0,10,244.28390760000912,,,,,,,,,,,,,,,,,,,,,,,,,,,,,,,,,,,,,,,,,,,,,,,,,,244.268060900009,244.28390760000912,244.76910960001987,244.7761883000203,244.78567149999435,244.78567149999435,244.78567149999435,246.47620850001113,Objects\315a.jpg,post,o,1.6896711000008509,None,,,,,,,,,00037,001,2026-01-16_23h19.04.686,MST_test,2024.2.0,59.80110153249478,2026-01-16 23h19.20.343161 +0530,
11,0,12,n,1.4577482999884523,None,12,0,11,246.49161150000873,,,,,,,,,,,,,,,,,,,,,,,,,,,,,,,,,,,,,,,,,,,,,,,,,,246.47630179999396,246.49161150000873,246.97685860001366,246.98216559999855,246.9935735000181,246.9935735000181,246.9935735000181,248.4671476999938,Foils\f5.jpg,none,n,1.4577482999884523,None,,,,,,,,,00037,001,2026-01-16_23h19.04.686,MST_test,2024.2.0,59.80110153249478,2026-01-16 23h19.20.343161 +0530,
12,0,13,n,2.8432550000143237,None,13,0,12,248.4820854999998,,,,,,,,,,,,,,,,,,,,,,,,,,,,,,,,,,,,,,,,,,,,,,,,,,248.46725210000295,248.4820854999998,248.96752320000087,248.97568319999846,249.00125130001106,249.00125130001106,249.00125130001106,251.8609858000127,Foils\017a.jpg,none,n,2.8432550000143237,None,249.00125130001106,,,,,,,,00037,001,2026-01-16_23h19.04.686,MST_test,2024.2.0,59.80110153249478,2026-01-16 23h19.20.343161 +0530,
13,0,14,s,1.9131445999955758,None,14,0,13,251.87718380001024,,,,,,,,,,,,,,,,,,,,,,,,,,,,,,,,,,,,,,,,,,,,,,,,,,251.8610847000091,251.87718380001024,252.3623734000139,252.36539540000376,252.37888249999378,252.37888249999378,252.37888249999378,254.30303040001309,Objects\042a.jpg,post,s,1.9131445999955758,None,,,,,,,,,00037,001,2026-01-16_23h19.04.686,MST_test,2024.2.0,59.80110153249478,2026-01-16 23h19.20.343161 +0530,
14,0,15,o,3.9980075000203215,None,15,0,14,254.31905580000603,,,,,,,,,,,,,,,,,,,,,,,,,,,,,,,,,,,,,,,,,,,,,,,,,,254.3031214000075,254.31905580000603,254.80437410000013,254.80763560000923,254.82077230000868,254.82077230000868,254.82077230000868,258.83560910000233,Objects\124a.jpg,pre,o,3.9980075000203215,None,,,,,,,,,00037,001,2026-01-16_23h19.04.686,MST_test,2024.2.0,59.80110153249478,2026-01-16 23h19.20.343161 +0530,
15,0,16,n,3.905824900022708,None,16,0,15,258.8517123000056,,,,,,,,,,,,,,,,,,,,,,,,,,,,,,,,,,,,,,,,,,,,,,,,,,258.83570009999676,258.8517123000056,259.33676040000864,259.34023610001896,259.35341999999946,259.35341999999946,259.35341999999946,263.267703599995,Foils\081a.jpg,none,n,3.905824900022708,None,,,,,,,,,00037,001,2026-01-16_23h19.04.686,MST_test,2024.2.0,59.80110153249478,2026-01-16 23h19.20.343161 +0530,
16,0,17,s,1.8102383999794256,None,17,0,16,263.2838156000071,,,,,,,,,,,,,,,,,,,,,,,,,,,,,,,,,,,,,,,,,,,,,,,,,,263.26779710000847,263.2838156000071,263.7689883999992,263.77656329999445,263.7856238000095,263.7856238000095,263.7856238000095,265.60951300000306,Objects\381a.jpg,mid,s,1.8102383999794256,None,,,,,,,,,00037,001,2026-01-16_23h19.04.686,MST_test,2024.2.0,59.80110153249478,2026-01-16 23h19.20.343161 +0530,
17,0,18,s,1.8106454999942798,None,18,0,17,265.62532510000165,,,,,,,,,,,,,,,,,,,,,,,,,,,,,,,,,,,,,,,,,,,,,,,,,,265.6096075999958,265.62532510000165,266.11052000001655,266.1209320000198,266.1446258999931,266.1446258999931,266.1446258999931,267.9675494999974,Objects\363b.jpg,post,s,1.8106454999942798,None,,,,,,,,,00037,001,2026-01-16_23h19.04.686,MST_test,2024.2.0,59.80110153249478,2026-01-16 23h19.20.343161 +0530,
18,0,19,n,1.1587390000058804,None,19,0,18,267.98357440001564,,,,,,,,,,,,,,,,,,,,,,,,,,,,,,,,,,,,,,,,,,,,,,,,,,267.96764119999716,267.98357440001564,268.4688715999946,268.47726889999467,268.48495420001564,268.48495420001564,268.48495420001564,269.6570847000112,Foils\121a.jpg,none,n,1.1587390000058804,None,,,,,,,,,00037,001,2026-01-16_23h19.04.686,MST_test,2024.2.0,59.80110153249478,2026-01-16 23h19.20.343161 +0530,
19,0,20,o,1.3308340000221506,None,20,0,19,269.67352010001196,,,,,,,,,,,,,,,,,,,,,,,,,,,,,,,,,,,,,,,,,,,,,,,,,,269.65718830001424,269.67352010001196,270.1580130000075,270.1676746000012,270.1922609000176,270.1922609000176,270.1922609000176,271.5301216999942,Objects\265a.jpg,post,o,1.3308340000221506,None,,,,,,,,,00037,001,2026-01-16_23h19.04.686,MST_test,2024.2.0,59.80110153249478,2026-01-16 23h19.20.343161 +0530,
20,0,21,n,1.8506278000131715,None,21,0,20,271.54605880001327,,,,,,,,,,,,,,,,,,,,,,,,,,,,,,,,,,,,,,,,,,,,,,,,,,271.530213799997,271.54605880001327,272.0312484000169,272.04873430001317,272.06449260000954,272.06449260000954,272.06449260000954,273.9223017000186,Foils\101b.jpg,none,n,1.8506278000131715,None,,,,,,,,,00037,001,2026-01-16_23h19.04.686,MST_test,2024.2.0,59.80110153249478,2026-01-16 23h19.20.343161 +0530,
21,0,22,o,2.7392798999790102,None,22,0,21,273.9377591999946,,,,,,,,,,,,,,,,,,,,,,,,,,,,,,,,,,,,,,,,,,,,,,,,,,273.92239620001055,273.9377591999946,274.42326969999704,274.43138749999343,274.45620040001813,274.45620040001813,274.45620040001813,277.19975080000586,Objects\358a.jpg,post,o,2.7392798999790102,None,,,,,,,,,00037,001,2026-01-16_23h19.04.686,MST_test,2024.2.0,59.80110153249478,2026-01-16 23h19.20.343161 +0530,
22,0,23,s,1.2689276000019163,None,23,0,22,277.2165206000209,,,,,,,,,,,,,,,,,,,,,,,,,,,,,,,,,,,,,,,,,,,,,,,,,,277.19985689999885,277.2165206000209,277.7011581000115,277.71479960001307,277.7346303999948,277.7346303999948,277.7346303999948,279.0064604000072,Objects\344b.jpg,mid,s,1.2689276000019163,None,,,,,,,,,00037,001,2026-01-16_23h19.04.686,MST_test,2024.2.0,59.80110153249478,2026-01-16 23h19.20.343161 +0530,
23,0,24,s,2.2545657999871764,None,24,0,23,279.0222414000018,,,,,,,,,,,,,,,,,,,,,,,,,,,,,,,,,,,,,,,,,,,,,,,,,,279.0065603000112,279.0222414000018,279.5074304000009,279.52204209999763,279.54066440000315,279.54066440000315,279.54066440000315,281.7994353999966,Objects\058b.jpg,mid,s,2.2545657999871764,None,,,,,,,,,00037,001,2026-01-16_23h19.04.686,MST_test,2024.2.0,59.80110153249478,2026-01-16 23h19.20.343161 +0530,
24,0,25,o,1.3424914999923203,None,25,0,24,281.81544730000314,,,,,,,,,,,,,,,,,,,,,,,,,,,,,,,,,,,,,,,,,,,,,,,,,,281.7995331000129,281.81544730000314,282.3005461000139,282.3030987000093,282.3171708000009,282.3171708000009,282.3171708000009,283.672424599994,Objects\157a.jpg,post,o,1.3424914999923203,None,,,,,,,,,00037,001,2026-01-16_23h19.04.686,MST_test,2024.2.0,59.80110153249478,2026-01-16 23h19.20.343161 +0530,
25,0,26,s,1.1492504999914672,None,26,0,25,283.6885786000057,,,,,,,,,,,,,,,,,,,,,,,,,,,,,,,,,,,,,,,,,,,,,,,,,,283.6725174000021,283.6885786000057,284.1738307000196,284.1768219000078,284.19028150002123,284.19028150002123,284.19028150002123,285.34514079999644,Objects\334a.jpg,mid,s,1.1492504999914672,None,,,,,,,,,00037,001,2026-01-16_23h19.04.686,MST_test,2024.2.0,59.80110153249478,2026-01-16 23h19.20.343161 +0530,
26,0,27,s,1.3403147000062745,None,27,0,26,285.36108530001366,,,,,,,,,,,,,,,,,,,,,,,,,,,,,,,,,,,,,,,,,,,,,,,,,,285.34523730000365,285.36108530001366,285.8464617000136,285.856483200012,285.879545600008,285.879545600008,285.879545600008,287.23500440001953,Objects\109b.jpg,pre,s,1.3403147000062745,None,,,,,,,,,00037,001,2026-01-16_23h19.04.686,MST_test,2024.2.0,59.80110153249478,2026-01-16 23h19.20.343161 +0530,
27,0,28,n,0.9622944000002462,None,28,0,27,287.2511594000098,,,,,,,,,,,,,,,,,,,,,,,,,,,,,,,,,,,,,,,,,,,,,,,,,,287.23509669999476,287.2511594000098,287.7361586000188,287.7390440000163,287.7528779999993,287.7528779999993,287.7528779999993,288.72374670000863,Foils\020b.jpg,none,n,0.9622944000002462,None,,,,,,,,,00037,001,2026-01-16_23h19.04.686,MST_test,2024.2.0,59.80110153249478,2026-01-16 23h19.20.343161 +0530,
28,0,29,s,1.8500091999885626,None,29,0,28,288.73961380001856,,,,,,,,,,,,,,,,,,,,,,,,,,,,,,,,,,,,,,,,,,,,,,,,,,288.72387519999756,288.73961380001856,289.22491710001486,289.2277425999928,289.2413080999977,289.2413080999977,289.2413080999977,291.09848020001664,Objects\066b.jpg,mid,s,1.8500091999885626,None,,,,,,,,,00037,001,2026-01-16_23h19.04.686,MST_test,2024.2.0,59.80110153249478,2026-01-16 23h19.20.343161 +0530,
29,0,30,o,3.379261399997631,None,30,0,29,291.1145888000028,,,,,,,,,,,,,,,,,,,,,,,,,,,,,,,,,,,,,,,,,,,,,,,,,,291.0986096000124,291.1145888000028,291.5997607000172,291.6025290999969,291.6162920000206,291.6162920000206,291.6162920000206,295.012075000006,Foils\093b.jpg,none,o,3.379261399997631,None,,,,,,,,,00037,001,2026-01-16_23h19.04.686,MST_test,2024.2.0,59.80110153249478,2026-01-16 23h19.20.343161 +0530,
30,0,31,o,1.648610500007635,None,31,0,30,295.02841339999577,,,,,,,,,,,,,,,,,,,,,,,,,,,,,,,,,,,,,,,,,,,,,,,,,,295.01217289999477,295.02841339999577,295.5133829000115,295.5192549000203,295.5301149000006,295.5301149000006,295.5301149000006,297.1864864999952,Objects\224a.jpg,mid,o,1.648610500007635,None,,,,,,,,,00037,001,2026-01-16_23h19.04.686,MST_test,2024.2.0,59.80110153249478,2026-01-16 23h19.20.343161 +0530,
31,0,32,o,0.9871075999981258,None,32,0,31,297.20269279999775,,,,,,,,,,,,,,,,,,,,,,,,,,,,,,,,,,,,,,,,,,,,,,,,,,297.1865839000093,297.20269279999775,297.6876852000132,297.6963996000122,297.70388909999747,297.70388909999747,297.70388909999747,298.69171320000896,Objects\184a.jpg,pre,o,0.9871075999981258,None,,,,,,,,,00037,001,2026-01-16_23h19.04.686,MST_test,2024.2.0,59.80110153249478,2026-01-16 23h19.20.343161 +0530,
32,0,33,s,2.0965053999971133,None,33,0,32,298.7079542000138,,,,,,,,,,,,,,,,,,,,,,,,,,,,,,,,,,,,,,,,,,,,,,,,,,298.69180640002014,298.7079542000138,299.1930401000136,299.2026650000189,299.22648139999365,299.22648139999365,299.22648139999365,301.3344363000069,Objects\114b.jpg,post,s,2.0965053999971133,None,,,,,,,,,00037,001,2026-01-16_23h19.04.686,MST_test,2024.2.0,59.80110153249478,2026-01-16 23h19.20.343161 +0530,
33,0,34,o,1.9337392000015825,None,34,0,33,301.35042810000596,,,,,,,,,,,,,,,,,,,,,,,,,,,,,,,,,,,,,,,,,,,,,,,,,,301.334531600005,301.35042810000596,301.8356277999992,301.84489599999506,301.86898860000656,301.86898860000656,301.86898860000656,303.80950639999355,Objects\261b.jpg,pre,o,1.9337392000015825,None,,,,,,,,,00037,001,2026-01-16_23h19.04.686,MST_test,2024.2.0,59.80110153249478,2026-01-16 23h19.20.343161 +0530,
34,0,35,n,4.427460399980191,None,35,0,34,303.8263405000034,,,,,,,,,,,,,,,,,,,,,,,,,,,,,,,,,,,,,,,,,,,,,,,,,,303.80961450000177,303.8263405000034,304.3109810000169,304.3141333000094,304.32761050001136,304.32761050001136,304.32761050001136,308.76076130001456,Objects\159a.jpg,post,n,4.427460399980191,None,,,,,,,,,00037,001,2026-01-16_23h19.04.686,MST_test,2024.2.0,59.80110153249478,2026-01-16 23h19.20.343161 +0530,
35,0,36,s,2.812815800018143,None,36,0,35,308.7765319000173,,,,,,,,,,,,,,,,,,,,,,,,,,,,,,,,,,,,,,,,,,,,,,,,,,308.760855600005,308.7765319000173,309.26163399999496,309.2723793000041,309.29487420001533,309.29487420001533,309.29487420001533,312.1222282999952,Objects\094b.jpg,pre,s,2.812815800018143,None,,,,,,,,,00037,001,2026-01-16_23h19.04.686,MST_test,2024.2.0,59.80110153249478,2026-01-16 23h19.20.343161 +0530,
36,0,37,s,2.066792900004657,None,37,0,36,312.13832140000886,,,,,,,,,,,,,,,,,,,,,,,,,,,,,,,,,,,,,,,,,,,,,,,,,,312.12232210001093,312.13832140000886,312.62342940000235,312.63798739999766,312.6566434999986,312.6566434999986,312.6566434999986,314.73121379999793,Objects\357b.jpg,mid,s,2.066792900004657,None,,,,,,,,,00037,001,2026-01-16_23h19.04.686,MST_test,2024.2.0,59.80110153249478,2026-01-16 23h19.20.343161 +0530,
37,0,38,s,3.2333500000240747,None,38,0,37,314.7474379000196,,,,,,,,,,,,,,,,,,,,,,,,,,,,,,,,,,,,,,,,,,,,,,,,,,314.7313119000173,314.7474379000196,315.2324196000118,315.24697170002037,315.26609499999904,315.26609499999904,315.26609499999904,318.511124200013,Objects\339b.jpg,mid,s,3.2333500000240747,None,,,,,,,,,00037,001,2026-01-16_23h19.04.686,MST_test,2024.2.0,59.80110153249478,2026-01-16 23h19.20.343161 +0530,
38,0,39,n,3.2143896000052337,None,39,0,38,318.5272429000179,,,,,,,,,,,,,,,,,,,,,,,,,,,,,,,,,,,,,,,,,,,,,,,,,,318.51122270000633,318.5272429000179,319.0124528000015,319.0273436999996,319.04568680000375,319.04568680000375,319.04568680000375,322.2744386999984,Objects\342b.jpg,post,n,3.2143896000052337,None,,,,,,,,,00037,001,2026-01-16_23h19.04.686,MST_test,2024.2.0,59.80110153249478,2026-01-16 23h19.20.343161 +0530,
39,0,40,n,3.3389281000127085,None,40,0,39,322.2905390000087,,,,,,,,,,,,,,,,,,,,,,,,,,,,,,,,,,,,,,,,,,,,,,,,,,322.2745297999936,322.2905390000087,322.7755318999989,322.79161549999844,322.8089810000092,322.8089810000092,322.8089810000092,326.15461210001376,Objects\282b.jpg,post,n,3.3389281000127085,None,,,,,,,,,00037,001,2026-01-16_23h19.04.686,MST_test,2024.2.0,59.80110153249478,2026-01-16 23h19.20.343161 +0530,
40,0,41,s,1.6742474999919068,None,41,0,40,326.17067720001796,,,,,,,,,,,,,,,,,,,,,,,,,,,,,,,,,,,,,,,,,,,,,,,,,,326.1547041000158,326.17067720001796,326.6558704000199,326.666006000014,326.68911229999503,326.68911229999503,326.68911229999503,328.37906700000167,Objects\171b.jpg,pre,s,1.6742474999919068,None,,,,,,,,,00037,001,2026-01-16_23h19.04.686,MST_test,2024.2.0,59.80110153249478,2026-01-16 23h19.20.343161 +0530,
41,0,42,s,1.4657827999908477,None,42,0,41,328.39523930000723,,,,,,,,,,,,,,,,,,,,,,,,,,,,,,,,,,,,,,,,,,,,,,,,,,328.3791584999999,328.39523930000723,328.8803140000091,328.88936749999993,328.913689900015,328.913689900015,328.913689900015,330.3865697000001,Objects\279b.jpg,pre,s,1.4657827999908477,None,,,,,,,,,00037,001,2026-01-16_23h19.04.686,MST_test,2024.2.0,59.80110153249478,2026-01-16 23h19.20.343161 +0530,
42,0,43,n,6.460317599994596,None,43,0,42,330.40246260000276,,,,,,,,,,,,,,,,,,,,,,,,,,,,,,,,,,,,,,,,,,,,,,,,,,330.38671580000664,330.40246260000276,330.88728960001026,330.8911683000042,330.90399019999313,330.90399019999313,330.90399019999313,337.37740220001433,Foils\086a.jpg,none,n,6.460317599994596,None,,,,,,,,,00037,001,2026-01-16_23h19.04.686,MST_test,2024.2.0,59.80110153249478,2026-01-16 23h19.20.343161 +0530,
43,0,44,o,4.483055599994259,None,44,0,43,337.39352260000305,,,,,,,,,,,,,,,,,,,,,,,,,,,,,,,,,,,,,,,,,,,,,,,,,,337.37750020000385,337.39352260000305,337.8783897999965,337.8934216000198,337.9118720999977,337.9118720999977,337.9118720999977,342.4115102000069,Objects\225b.jpg,mid,o,4.483055599994259,None,,,,,,,,,00037,001,2026-01-16_23h19.04.686,MST_test,2024.2.0,59.80110153249478,2026-01-16 23h19.20.343161 +0530,
44,0,45,o,0.9777522000076715,None,45,0,44,342.4277148999972,,,,,,,,,,,,,,,,,,,,,,,,,,,,,,,,,,,,,,,,,,,,,,,,,,342.41160530000343,342.4277148999972,342.9128152000194,342.9191340999969,342.92945840000175,342.92945840000175,342.92945840000175,343.9167866000207,Objects\368a.jpg,pre,o,0.9777522000076715,None,,,,,,,,,00037,001,2026-01-16_23h19.04.686,MST_test,2024.2.0,59.80110153249478,2026-01-16 23h19.20.343161 +0530,
45,0,46,s,2.7122167000197805,None,46,0,45,343.9329817999969,,,,,,,,,,,,,,,,,,,,,,,,,,,,,,,,,,,,,,,,,,,,,,,,,,343.9168861999933,343.9329817999969,344.41796550000436,344.42792670000927,344.4514422000211,344.4514422000211,344.4514422000211,347.1782404000114,Objects\045a.jpg,mid,s,2.7122167000197805,None,,,,,,,,,00037,001,2026-01-16_23h19.04.686,MST_test,2024.2.0,59.80110153249478,2026-01-16 23h19.20.343161 +0530,
46,0,47,o,1.0667110999929719,None,47,0,46,347.1945495000109,,,,,,,,,,,,,,,,,,,,,,,,,,,,,,,,,,,,,,,,,,,,,,,,,,347.17834020001465,347.1945495000109,347.6793820000021,347.6888974000176,347.71285300000454,347.71285300000454,347.71285300000454,348.783806499996,Objects\075b.jpg,post,o,1.0667110999929719,None,,,,,,,,,00037,001,2026-01-16_23h19.04.686,MST_test,2024.2.0,59.80110153249478,2026-01-16 23h19.20.343161 +0530,
47,0,48,o,1.013621400023112,None,48,0,47,348.8000314999954,,,,,,,,,,,,,,,,,,,,,,,,,,,,,,,,,,,,,,,,,,,,,,,,,,348.7839071000053,348.8000314999954,349.2851523999998,349.2878379000176,349.30164920000243,349.30164920000243,349.30164920000243,350.3226620000205,Objects\035a.jpg,mid,o,1.013621400023112,None,,,,,,,,,00037,001,2026-01-16_23h19.04.686,MST_test,2024.2.0,59.80110153249478,2026-01-16 23h19.20.343161 +0530,
48,0,49,o,0.6985066999914125,None,49,0,48,350.33872689999407,,,,,,,,,,,,,,,,,,,,,,,,,,,,,,,,,,,,,,,,,,,,,,,,,,350.32275500000105,350.33872689999407,350.82384970001294,350.82966430002125,350.84070210001664,350.84070210001664,350.84070210001664,351.5435565999942,Objects\310a.jpg,mid,o,0.6985066999914125,None,,,,,,,,,00037,001,2026-01-16_23h19.04.686,MST_test,2024.2.0,59.80110153249478,2026-01-16 23h19.20.343161 +0530,
49,0,50,n,1.3254883000045083,None,50,0,49,351.559708100016,,,,,,,,,,,,,,,,,,,,,,,,,,,,,,,,,,,,,,,,,,,,,,,,,,351.54365420000977,351.559708100016,352.04468370001996,352.04976429999806,352.0616198000207,352.0616198000207,352.0616198000207,353.3999272999936,Foils\f7.jpg,none,n,1.3254883000045083,None,,,,,,,,,00037,001,2026-01-16_23h19.04.686,MST_test,2024.2.0,59.80110153249478,2026-01-16 23h19.20.343161 +0530,
50,0,51,s,3.18923220000579,None,51,0,50,353.41607649999787,,,,,,,,,,,,,,,,,,,,,,,,,,,,,,,,,,,,,,,,,,,,,,,,,,353.40002130001085,353.41607649999787,353.9012794000155,353.9092193999968,353.9180139999953,353.9180139999953,353.9180139999953,357.11291320002056,Foils\050a.jpg,none,s,3.18923220000579,None,,,,,,,,,00037,001,2026-01-16_23h19.04.686,MST_test,2024.2.0,59.80110153249478,2026-01-16 23h19.20.343161 +0530,
51,0,52,o,1.1320778999943286,None,52,0,51,357.1293549000111,,,,,,,,,,,,,,,,,,,,,,,,,,,,,,,,,,,,,,,,,,,,,,,,,,357.11300740001025,357.1293549000111,357.6144497000205,357.61727020001854,357.6310835000186,357.6310835000186,357.6310835000186,358.7693433999957,Objects\186a.jpg,pre,o,1.1320778999943286,None,,,,,,,,,00037,001,2026-01-16_23h19.04.686,MST_test,2024.2.0,59.80110153249478,2026-01-16 23h19.20.343161 +0530,
52,0,53,o,0.8855396000144538,None,53,0,52,358.7856191000028,,,,,,,,,,,,,,,,,,,,,,,,,,,,,,,,,,,,,,,,,,,,,,,,,,358.7694379000168,358.7856191000028,359.270311100001,359.27759460001835,359.2861409000179,359.2861409000179,359.2861409000179,360.1737776999944,Objects\295a.jpg,post,o,0.8855396000144538,None,,,,,,,,,00037,001,2026-01-16_23h19.04.686,MST_test,2024.2.0,59.80110153249478,2026-01-16 23h19.20.343161 +0530,
53,0,54,s,4.207568700017873,None,54,0,53,360.18995860000723,,,,,,,,,,,,,,,,,,,,,,,,,,,,,,,,,,,,,,,,,,,,,,,,,,360.1738718000124,360.18995860000723,360.67501580002136,360.6830692999938,360.691556100006,360.691556100006,360.691556100006,364.90793000001577,Objects\059a.jpg,pre,s,4.207568700017873,None,,,,,,,,,00037,001,2026-01-16_23h19.04.686,MST_test,2024.2.0,59.80110153249478,2026-01-16 23h19.20.343161 +0530,
54,0,55,s,2.18601010000566,None,55,0,54,364.92317829999956,,,,,,,,,,,,,,,,,,,,,,,,,,,,,,,,,,,,,,,,,,,,,,,,,,364.90804080001544,364.92317829999956,365.40841410000576,365.4179134000151,365.4417764999962,365.4417764999962,365.4417764999962,367.63320100001874,Objects\149b.jpg,pre,s,2.18601010000566,None,,,,,,,,,00037,001,2026-01-16_23h19.04.686,MST_test,2024.2.0,59.80110153249478,2026-01-16 23h19.20.343161 +0530,
55,0,56,s,1.5406586000171956,None,56,0,55,367.649387500016,,,,,,,,,,,,,,,,,,,,,,,,,,,,,,,,,,,,,,,,,,,,,,,,,,367.6332947000046,367.649387500016,368.13436680001905,368.14376060001086,368.1678251000121,368.1678251000121,368.1678251000121,369.72389310001745,Objects\077b.jpg,mid,s,1.5406586000171956,None,,,,,,,,,00037,001,2026-01-16_23h19.04.686,MST_test,2024.2.0,59.80110153249478,2026-01-16 23h19.20.343161 +0530,
56,0,57,o,1.281279299990274,None,57,0,56,369.74003400001675,,,,,,,,,,,,,,,,,,,,,,,,,,,,,,,,,,,,,,,,,,,,,,,,,,369.7239884000155,369.74003400001675,370.22499499999685,370.2325750000018,370.2413903000124,370.2413903000124,370.2413903000124,371.5300288000144,Objects\304a.jpg,post,o,1.281279299990274,None,,,,,,,,,00037,001,2026-01-16_23h19.04.686,MST_test,2024.2.0,59.80110153249478,2026-01-16 23h19.20.343161 +0530,
57,0,58,s,1.3480741000093985,None,58,0,57,371.5463518000033,,,,,,,,,,,,,,,,,,,,,,,,,,,,,,,,,,,,,,,,,,,,,,,,,,371.5301250000193,371.5463518000033,372.0314164000156,372.039010700013,372.0475425000186,372.0475425000186,372.0475425000186,373.40336430000025,Objects\378b.jpg,pre,s,1.3480741000093985,None,,,,,,,,,00037,001,2026-01-16_23h19.04.686,MST_test,2024.2.0,59.80110153249478,2026-01-16 23h19.20.343161 +0530,
58,0,59,n,4.217990800010739,None,59,0,58,373.4197195000015,,,,,,,,,,,,,,,,,,,,,,,,,,,,,,,,,,,,,,,,,,,,,,,,,,373.4034617000143,373.4197195000015,373.90466309999465,373.9189074000169,373.93790380001883,373.93790380001883,373.93790380001883,378.17019130001427,Objects\208b.jpg,post,n,4.217990800010739,None,,,,,,,,,00037,001,2026-01-16_23h19.04.686,MST_test,2024.2.0,59.80110153249478,2026-01-16 23h19.20.343161 +0530,
59,0,60,s,2.0348399999784306,None,60,0,59,378.186169099994,,,,,,,,,,,,,,,,,,,,,,,,,,,,,,,,,,,,,,,,,,,,,,,,,,378.1702839000209,378.186169099994,378.6714688000211,378.6889915000065,378.7045941000106,378.7045941000106,378.7045941000106,380.74553810001817,Objects\200b.jpg,post,s,2.0348399999784306,None,,,,,,,,,00037,001,2026-01-16_23h19.04.686,MST_test,2024.2.0,59.80110153249478,2026-01-16 23h19.20.343161 +0530,
60,0,61,n,3.074548499978846,None,61,0,60,380.7619626999949,,,,,,,,,,,,,,,,,,,,,,,,,,,,,,,,,,,,,,,,,,,,,,,,,,380.745634699997,380.7619626999949,381.24709849999635,381.2615796000173,381.28058290001354,381.28058290001354,381.28058290001354,384.3587163000193,Objects\151b.jpg,pre,n,3.074548499978846,None,,,,,,,,,00037,001,2026-01-16_23h19.04.686,MST_test,2024.2.0,59.80110153249478,2026-01-16 23h19.20.343161 +0530,
61,0,62,s,1.1991062999877613,None,62,0,61,384.3745026999968,,,,,,,,,,,,,,,,,,,,,,,,,,,,,,,,,,,,,,,,,,,,,,,,,,384.3588088999968,384.3745026999968,384.85970790000283,384.86267620002036,384.8762146999943,384.8762146999943,384.8762146999943,386.08118020000984,Objects\308b.jpg,post,s,1.1991062999877613,None,,,,,,,,,00037,001,2026-01-16_23h19.04.686,MST_test,2024.2.0,59.80110153249478,2026-01-16 23h19.20.343161 +0530,
62,0,63,s,1.1086822999932338,None,63,0,62,386.09731720000855,,,,,,,,,,,,,,,,,,,,,,,,,,,,,,,,,,,,,,,,,,,,,,,,,,386.0812784000009,386.09731720000855,386.5823283000209,386.5923881000199,386.61575009999797,386.61575009999797,386.61575009999797,387.7368894999963,Objects\121b.jpg,post,s,1.1086822999932338,None,,,,,,,,,00037,001,2026-01-16_23h19.04.686,MST_test,2024.2.0,59.80110153249478,2026-01-16 23h19.20.343161 +0530,
63,0,64,o,0.9641954000107944,None,64,0,63,387.7530364000122,,,,,,,,,,,,,,,,,,,,,,,,,,,,,,,,,,,,,,,,,,,,,,,,,,387.7369850999967,387.7530364000122,388.2381963999942,388.24164069999824,388.255067399994,388.255067399994,388.255067399994,389.22557300000335,Objects\090a.jpg,pre,o,0.9641954000107944,None,,,,,,,,,00037,001,2026-01-16_23h19.04.686,MST_test,2024.2.0,59.80110153249478,2026-01-16 23h19.20.343161 +0530,
64,0,65,o,1.1628518000070471,None,65,0,64,389.2415394000127,,,,,,,,,,,,,,,,,,,,,,,,,,,,,,,,,,,,,,,,,,,,,,,,,,389.2256732000096,389.2415394000127,389.7271539999929,389.73887620001915,389.7602662999998,389.7602662999998,389.7602662999998,390.93160400001216,Objects\103b.jpg,mid,o,1.1628518000070471,None,,,,,,,,,00037,001,2026-01-16_23h19.04.686,MST_test,2024.2.0,59.80110153249478,2026-01-16 23h19.20.343161 +0530,
65,0,66,s,0.7549507000076119,None,66,0,65,390.94790090000606,,,,,,,,,,,,,,,,,,,,,,,,,,,,,,,,,,,,,,,,,,,,,,,,,,390.9316993000102,390.94790090000606,391.43260610001744,391.43869420001283,391.44934700001613,391.44934700001613,391.44934700001613,392.21937470001285,Foils\f6.jpg,none,s,0.7549507000076119,None,,,,,,,,,00037,001,2026-01-16_23h19.04.686,MST_test,2024.2.0,59.80110153249478,2026-01-16 23h19.20.343161 +0530,
66,0,67,o,5.94634940000833,None,67,0,66,392.23547240000335,,,,,,,,,,,,,,,,,,,,,,,,,,,,,,,,,,,,,,,,,,,,,,,,,,392.21947370001,392.23547240000335,392.7206010000082,392.72824460000265,392.7373305000074,392.7373305000074,392.7373305000074,398.6918737000087,Objects\060a.jpg,mid,o,5.94634940000833,None,,,,,,,,,00037,001,2026-01-16_23h19.04.686,MST_test,2024.2.0,59.80110153249478,2026-01-16 23h19.20.343161 +0530,
67,0,68,o,1.0403039999946486,None,68,0,67,398.70816070001456,,,,,,,,,,,,,,,,,,,,,,,,,,,,,,,,,,,,,,,,,,,,,,,,,,398.6919708000205,398.70816070001456,399.1937211000186,399.20487539999885,399.22726070001954,399.22726070001954,399.22726070001954,400.2813740000129,Objects\146b.jpg,mid,o,1.0403039999946486,None,,,,,,,,,00037,001,2026-01-16_23h19.04.686,MST_test,2024.2.0,59.80110153249478,2026-01-16 23h19.20.343161 +0530,
68,0,69,n,1.476026999996975,None,69,0,68,400.2980599000002,,,,,,,,,,,,,,,,,,,,,,,,,,,,,,,,,,,,,,,,,,,,,,,,,,400.2814743000199,400.2980599000002,400.78202909999527,400.78503220001585,400.79885230000946,400.79885230000946,400.79885230000946,402.28784200001974,Foils\009a.jpg,none,n,1.476026999996975,None,,,,,,,,,00037,001,2026-01-16_23h19.04.686,MST_test,2024.2.0,59.80110153249478,2026-01-16 23h19.20.343161 +0530,
69,0,70,o,1.0854818999941926,None,70,0,69,402.30408240002,,,,,,,,,,,,,,,,,,,,,,,,,,,,,,,,,,,,,,,,,,,,,,,,,,402.28793720001704,402.30408240002,402.7893755999976,402.79565030001686,402.8056557000091,402.8056557000091,402.8056557000091,403.8933270999987,Objects\352a.jpg,post,o,1.0854818999941926,None,,,,,,,,,00037,001,2026-01-16_23h19.04.686,MST_test,2024.2.0,59.80110153249478,2026-01-16 23h19.20.343161 +0530,
70,0,71,s,3.1746458999987226,None,71,0,70,403.9096994000138,,,,,,,,,,,,,,,,,,,,,,,,,,,,,,,,,,,,,,,,,,,,,,,,,,403.893438900006,403.9096994000138,404.3946588000108,404.41148440001416,404.4281236999959,404.4281236999959,404.4281236999959,407.6064835000143,Objects\313b.jpg,post,s,3.1746458999987226,None,,,,,,,,,00037,001,2026-01-16_23h19.04.686,MST_test,2024.2.0,59.80110153249478,2026-01-16 23h19.20.343161 +0530,
71,0,72,o,0.9431542999809608,None,72,0,71,407.6225773000042,,,,,,,,,,,,,,,,,,,,,,,,,,,,,,,,,,,,,,,,,,,,,,,,,,407.6065816000046,407.6225773000042,408.1077945000143,408.11566939999466,408.12398279999616,408.12398279999616,408.12398279999616,409.078410600021,Objects\164a.jpg,pre,o,0.9431542999809608,None,,,,,,,,,00037,001,2026-01-16_23h19.04.686,MST_test,2024.2.0,59.80110153249478,2026-01-16 23h19.20.343161 +0530,
72,0,73,o,0.9592449000047054,None,73,0,72,409.09440440000617,,,,,,,,,,,,,,,,,,,,,,,,,,,,,,,,,,,,,,,,,,,,,,,,,,409.0785136000195,409.09440440000617,409.5795783000067,409.582853800006,409.59622360000503,409.59622360000503,409.59622360000503,410.5669714999967,Objects\027a.jpg,mid,o,0.9592449000047054,None,,,,,,,,,00037,001,2026-01-16_23h19.04.686,MST_test,2024.2.0,59.80110153249478,2026-01-16 23h19.20.343161 +0530,
73,0,74,s,7.518224600004032,None,74,0,73,410.58306679999805,,,,,,,,,,,,,,,,,,,,,,,,,,,,,,,,,,,,,,,,,,,,,,,,,,410.56706480000867,410.58306679999805,411.0681806000066,411.07124560000375,411.08494930001325,411.08494930001325,411.08494930001325,418.6117203000176,Objects\025a.jpg,post,s,7.518224600004032,None,,,,,,,,,00037,001,2026-01-16_23h19.04.686,MST_test,2024.2.0,59.80110153249478,2026-01-16 23h19.20.343161 +0530,
74,0,75,o,1.0972368999791797,None,75,0,74,418.62794259999646,,,,,,,,,,,,,,,,,,,,,,,,,,,,,,,,,,,,,,,,,,,,,,,,,,418.61181620002026,418.62794259999646,419.1135664000176,419.1168307000189,419.12950070001534,419.12950070001534,419.12950070001534,420.23405980001553,Objects\126a.jpg,post,o,1.0972368999791797,None,,,,,,,,,00037,001,2026-01-16_23h19.04.686,MST_test,2024.2.0,59.80110153249478,2026-01-16 23h19.20.343161 +0530,
75,0,76,o,4.59457270000712,None,76,0,75,420.25024590000976,,,,,,,,,,,,,,,,,,,,,,,,,,,,,,,,,,,,,,,,,,,,,,,,,,420.2341636000201,420.25024590000976,420.7357539999939,420.7393890999956,420.75208390000626,420.75208390000626,420.75208390000626,425.35198880001553,Objects\018a.jpg,mid,o,4.59457270000712,None,,,,,,,,,00037,001,2026-01-16_23h19.04.686,MST_test,2024.2.0,59.80110153249478,2026-01-16 23h19.20.343161 +0530,
76,0,77,n,1.2539777999918442,None,77,0,76,425.36817180001526,,,,,,,,,,,,,,,,,,,,,,,,,,,,,,,,,,,,,,,,,,,,,,,,,,425.352083100006,425.36817180001526,425.8533751000068,425.8565118999977,425.869767199998,425.869767199998,425.869767199998,427.1246116000111,Foils\018a.jpg,none,n,1.2539777999918442,None,,,,,,,,,00037,001,2026-01-16_23h19.04.686,MST_test,2024.2.0,59.80110153249478,2026-01-16 23h19.20.343161 +0530,
77,0,78,s,1.3832190000102855,None,78,0,77,427.14113850001013,,,,,,,,,,,,,,,,,,,,,,,,,,,,,,,,,,,,,,,,,,,,,,,,,,427.124707400013,427.14113850001013,427.6259901000012,427.63573549999273,427.6594954000029,427.6594954000029,427.6594954000029,429.0482304000179,Objects\032b.jpg,pre,s,1.3832190000102855,None,,,,,,,,,00037,001,2026-01-16_23h19.04.686,MST_test,2024.2.0,59.80110153249478,2026-01-16 23h19.20.343161 +0530,
78,0,79,n,1.3014723000233062,None,79,0,78,429.0644573000027,,,,,,,,,,,,,,,,,,,,,,,,,,,,,,,,,,,,,,,,,,,,,,,,,,429.04832659999374,429.0644573000027,429.54952400000184,429.55262970001786,429.5661602000182,429.5661602000182,429.5661602000182,430.8712986000173,Foils\097a.jpg,none,n,1.3014723000233062,None,,,,,,,,,00037,001,2026-01-16_23h19.04.686,MST_test,2024.2.0,59.80110153249478,2026-01-16 23h19.20.343161 +0530,
79,0,80,n,1.4133841999864671,None,80,0,79,430.88737860001856,,,,,,,,,,,,,,,,,,,,,,,,,,,,,,,,,,,,,,,,,,,,,,,,,,430.8713970000099,430.88737860001856,431.3726621000096,431.3752905000001,431.38935690000653,431.38935690000653,431.38935690000653,432.8116643000103,Foils\082a.jpg,none,n,1.4133841999864671,None,,,,,,,,,00037,001,2026-01-16_23h19.04.686,MST_test,2024.2.0,59.80110153249478,2026-01-16 23h19.20.343161 +0530,
80,0,81,n,0.8899471999902744,None,81,0,80,432.8275169999979,,,,,,,,,,,,,,,,,,,,,,,,,,,,,,,,,,,,,,,,,,,,,,,,,,432.81198220001534,432.8275169999979,433.31269859999884,433.3170609000081,433.32928530001664,433.32928530001664,433.32928530001664,434.23343079999904,Foils\106a.jpg,none,n,0.8899471999902744,None,,,,,,,,,00037,001,2026-01-16_23h19.04.686,MST_test,2024.2.0,59.80110153249478,2026-01-16 23h19.20.343161 +0530,
81,0,82,s,1.3719785999855958,None,82,0,81,434.24927699999535,,,,,,,,,,,,,,,,,,,,,,,,,,,,,,,,,,,,,,,,,,,,,,,,,,434.2335272000055,434.24927699999535,434.73437819999526,434.73747130000265,434.7512391000055,434.7512391000055,434.7512391000055,436.1397624000092,Objects\021a.jpg,post,s,1.3719785999855958,None,,,,,,,,,00037,001,2026-01-16_23h19.04.686,MST_test,2024.2.0,59.80110153249478,2026-01-16 23h19.20.343161 +0530,
82,0,83,o,1.0005930000043008,None,83,0,82,436.1560831000097,,,,,,,,,,,,,,,,,,,,,,,,,,,,,,,,,,,,,,,,,,,,,,,,,,436.1398542000097,436.1560831000097,436.6409130000102,436.6503275000141,436.67451979999896,436.67451979999896,436.67451979999896,437.6785827999993,Objects\259a.jpg,pre,o,1.0005930000043008,None,,,,,,,,,00037,001,2026-01-16_23h19.04.686,MST_test,2024.2.0,59.80110153249478,2026-01-16 23h19.20.343161 +0530,
83,0,84,o,0.8076774000073783,None,84,0,83,437.69453569999314,,,,,,,,,,,,,,,,,,,,,,,,,,,,,,,,,,,,,,,,,,,,,,,,,,437.6786792000057,437.69453569999314,438.17975030001253,438.1877974999952,438.1957473999937,438.1957473999937,438.1957473999937,439.0164536999946,Objects\067a.jpg,pre,o,0.8076774000073783,None,,,,,,,,,00037,001,2026-01-16_23h19.04.686,MST_test,2024.2.0,59.80110153249478,2026-01-16 23h19.20.343161 +0530,
84,0,85,o,0.8363525999884587,None,85,0,84,439.0325744000147,,,,,,,,,,,,,,,,,,,,,,,,,,,,,,,,,,,,,,,,,,,,,,,,,,439.01654440001585,439.0325744000147,439.5178914999997,439.5208758999943,439.53437480001594,439.53437480001594,439.53437480001594,440.3712916999939,Objects\046a.jpg,post,o,0.8363525999884587,None,,,,,,,,,00037,001,2026-01-16_23h19.04.686,MST_test,2024.2.0,59.80110153249478,2026-01-16 23h19.20.343161 +0530,
85,0,86,o,5.721448300027987,None,86,0,85,440.3874288999941,,,,,,,,,,,,,,,,,,,,,,,,,,,,,,,,,,,,,,,,,,,,,,,,,,440.3713853000081,440.3874288999941,440.8723964999954,440.87514420002117,440.8891607999976,440.8891607999976,440.8891607999976,446.62658609999926,Objects\044b.jpg,pre,o,5.721448300027987,None,,,,,,,,,00037,001,2026-01-16_23h19.04.686,MST_test,2024.2.0,59.80110153249478,2026-01-16 23h19.20.343161 +0530,
86,0,87,o,0.9716589000017848,None,87,0,86,446.64269410001,,,,,,,,,,,,,,,,,,,,,,,,,,,,,,,,,,,,,,,,,,,,,,,,,,446.6266820000019,446.64269410001,447.12763860000996,447.13558620002004,447.14381700000376,447.14381700000376,447.14381700000376,448.1317631000129,Objects\330a.jpg,pre,o,0.9716589000017848,None,,,,,,,,,00037,001,2026-01-16_23h19.04.686,MST_test,2024.2.0,59.80110153249478,2026-01-16 23h19.20.343161 +0530,
87,0,88,o,0.761739600013243,None,88,0,87,448.14792459999444,,,,,,,,,,,,,,,,,,,,,,,,,,,,,,,,,,,,,,,,,,,,,,,,,,448.1318622000108,448.14792459999444,448.63291529999697,448.6409210000129,448.64912509999704,448.64912509999704,448.64912509999704,449.41954610001994,Objects\115a.jpg,mid,o,0.761739600013243,None,,,,,,,,,00037,001,2026-01-16_23h19.04.686,MST_test,2024.2.0,59.80110153249478,2026-01-16 23h19.20.343161 +0530,
88,0,89,o,0.8810982000140939,None,89,0,88,449.4356667000102,,,,,,,,,,,,,,,,,,,,,,,,,,,,,,,,,,,,,,,,,,,,,,,,,,449.41963920000126,449.4356667000102,449.92086020001443,449.9327850000118,449.954106899997,449.954106899997,449.954106899997,450.84146820000024,Objects\206b.jpg,mid,o,0.8810982000140939,None,,,,,,,,,00037,001,2026-01-16_23h19.04.686,MST_test,2024.2.0,59.80110153249478,2026-01-16 23h19.20.343161 +0530,
89,0,90,o,0.8353792000270914,None,90,0,89,450.857324600016,,,,,,,,,,,,,,,,,,,,,,,,,,,,,,,,,,,,,,,,,,,,,,,,,,450.84156719999737,450.857324600016,451.34272919999785,451.35184439999284,451.37578980001854,451.37578980001854,451.37578980001854,452.21286410000175,Objects\380b.jpg,post,o,0.8353792000270914,None,,,,,,,,,00037,001,2026-01-16_23h19.04.686,MST_test,2024.2.0,59.80110153249478,2026-01-16 23h19.20.343161 +0530,
90,0,91,s,1.1770829999877606,None,91,0,90,452.22889090000535,,,,,,,,,,,,,,,,,,,,,,,,,,,,,,,,,,,,,,,,,,,,,,,,,,452.2129569000099,452.22889090000535,452.713882400014,452.71714210000937,452.7306141000008,452.7306141000008,452.7306141000008,453.9191529999953,Objects\070a.jpg,post,s,1.1770829999877606,None,,,,,,,,,00037,001,2026-01-16_23h19.04.686,MST_test,2024.2.0,59.80110153249478,2026-01-16 23h19.20.343161 +0530,
91,0,92,s,1.1331291999958921,None,92,0,91,453.93489450000925,,,,,,,,,,,,,,,,,,,,,,,,,,,,,,,,,,,,,,,,,,,,,,,,,,453.9192564999976,453.93489450000925,454.41980480001075,454.4369024000189,454.45388469999307,454.45388469999307,454.45388469999307,455.5915016999934,Objects\236b.jpg,pre,s,1.1331291999958921,None,,,,,,,,,00037,001,2026-01-16_23h19.04.686,MST_test,2024.2.0,59.80110153249478,2026-01-16 23h19.20.343161 +0530,
92,0,93,s,1.526420500013046,None,93,0,92,455.6078533999971,,,,,,,,,,,,,,,,,,,,,,,,,,,,,,,,,,,,,,,,,,,,,,,,,,455.591611300013,455.6078533999971,456.0924958999967,456.1017172000138,456.12570490001235,456.12570490001235,456.12570490001235,457.6652183000115,Objects\061a.jpg,mid,s,1.526420500013046,None,,,,,,,,,00037,001,2026-01-16_23h19.04.686,MST_test,2024.2.0,59.80110153249478,2026-01-16 23h19.20.343161 +0530,
93,0,94,o,1.844197600003099,None,94,0,93,457.6813374000194,,,,,,,,,,,,,,,,,,,,,,,,,,,,,,,,,,,,,,,,,,,,,,,,,,457.66531510002096,457.6813374000194,458.1663026000024,458.17057499999646,458.18304880001233,458.18304880001233,458.18304880001233,460.04012029999285,Objects\384a.jpg,post,o,1.844197600003099,None,,,,,,,,,00037,001,2026-01-16_23h19.04.686,MST_test,2024.2.0,59.80110153249478,2026-01-16 23h19.20.343161 +0530,
94,0,95,n,1.8605776999902446,None,95,0,94,460.05630130000645,,,,,,,,,,,,,,,,,,,,,,,,,,,,,,,,,,,,,,,,,,,,,,,,,,460.0402146000124,460.05630130000645,460.5413750000007,460.5446983000147,460.5583836000005,460.5583836000005,460.5583836000005,462.43192170001566,Objects\301b.jpg,mid,n,1.8605776999902446,None,,,,,,,,,00037,001,2026-01-16_23h19.04.686,MST_test,2024.2.0,59.80110153249478,2026-01-16 23h19.20.343161 +0530,
95,0,96,o,1.05319690000033,None,96,0,95,462.4480095000181,,,,,,,,,,,,,,,,,,,,,,,,,,,,,,,,,,,,,,,,,,,,,,,,,,462.43201489999774,462.4480095000181,462.93296490001376,462.9414494000084,462.9664465000096,462.9664465000096,462.9664465000096,464.020637300011,Objects\256a.jpg,pre,o,1.05319690000033,None,,,,,,,,,00037,001,2026-01-16_23h19.04.686,MST_test,2024.2.0,59.80110153249478,2026-01-16 23h19.20.343161 +0530,
96,0,97,o,0.9594368999823928,None,97,0,96,464.03693150001345,,,,,,,,,,,,,,,,,,,,,,,,,,,,,,,,,,,,,,,,,,,,,,,,,,464.02073290001135,464.03693150001345,464.52188450001995,464.5356571000011,464.5553630000213,464.5553630000213,464.5553630000213,465.52601460000733,Objects\362b.jpg,post,o,0.9594368999823928,None,,,,,,,,,00037,001,2026-01-16_23h19.04.686,MST_test,2024.2.0,59.80110153249478,2026-01-16 23h19.20.343161 +0530,
97,0,98,s,1.8628357000125106,None,98,0,97,465.542076600017,,,,,,,,,,,,,,,,,,,,,,,,,,,,,,,,,,,,,,,,,,,,,,,,,,465.5261052999995,465.542076600017,466.02728410001146,466.0429899000155,466.06049500001245,466.06049500001245,466.06049500001245,467.9344276000047,Objects\196b.jpg,mid,s,1.8628357000125106,None,,,,,,,,,00037,001,2026-01-16_23h19.04.686,MST_test,2024.2.0,59.80110153249478,2026-01-16 23h19.20.343161 +0530,
98,0,99,s,5.902119000005769,None,99,0,98,467.95061520001036,,,,,,,,,,,,,,,,,,,,,,,,,,,,,,,,,,,,,,,,,,,,,,,,,,467.9345208000159,467.95061520001036,468.4356242000067,468.4456180999987,468.4690602000046,468.4690602000046,468.4690602000046,474.3736852000002,Objects\031b.jpg,mid,s,5.902119000005769,None,,,,,,,,,00037,001,2026-01-16_23h19.04.686,MST_test,2024.2.0,59.80110153249478,2026-01-16 23h19.20.343161 +0530,
99,0,100,s,0.8634064999932889,None,100,0,99,474.3898304000031,,,,,,,,,,,,,,,,,,,,,,,,,,,,,,,,,,,,,,,,,,,,,,,,,,474.3737766999984,474.3898304000031,474.87479520001216,474.87764399999287,474.8917575000087,474.8917575000087,474.8917575000087,475.7617523999943,Foils\042a.jpg,none,s,0.8634064999932889,None,,,,,,,,,00037,001,2026-01-16_23h19.04.686,MST_test,2024.2.0,59.80110153249478,2026-01-16 23h19.20.343161 +0530,
100,0,101,s,1.1962273999815807,None,101,0,100,475.77790509999613,,,,,,,,,,,,,,,,,,,,,,,,,,,,,,,,,,,,,,,,,,,,,,,,,,475.76184310001554,475.77790509999613,476.26309560000664,476.26618480001343,476.27964340001927,476.27964340001927,476.27964340001927,477.48467970002093,Objects\160a.jpg,pre,s,1.1962273999815807,None,,,,,,,,,00037,001,2026-01-16_23h19.04.686,MST_test,2024.2.0,59.80110153249478,2026-01-16 23h19.20.343161 +0530,
101,0,102,o,1.0000983999925666,None,102,0,101,477.50072969999746,,,,,,,,,,,,,,,,,,,,,,,,,,,,,,,,,,,,,,,,,,,,,,,,,,477.48489290001453,477.50072969999746,477.98580789999687,477.98891109999386,478.0025591000158,478.0025591000158,478.0025591000158,479.0071497000172,Objects\241a.jpg,pre,o,1.0000983999925666,None,,,,,,,,,00037,001,2026-01-16_23h19.04.686,MST_test,2024.2.0,59.80110153249478,2026-01-16 23h19.20.343161 +0530,
102,0,103,n,0.7828456000133883,None,103,0,102,479.0226246000093,,,,,,,,,,,,,,,,,,,,,,,,,,,,,,,,,,,,,,,,,,,,,,,,,,479.0072456000198,479.0226246000093,479.5079450000194,479.5111389000085,479.52452120001544,479.52452120001544,479.52452120001544,480.31117780000204,Foils\058a.jpg,none,n,0.7828456000133883,None,,,,,,,,,00037,001,2026-01-16_23h19.04.686,MST_test,2024.2.0,59.80110153249478,2026-01-16 23h19.20.343161 +0530,
103,0,104,s,2.007410299993353,None,104,0,103,480.3272801999992,,,,,,,,,,,,,,,,,,,,,,,,,,,,,,,,,,,,,,,,,,,,,,,,,,480.31127070001094,480.3272801999992,480.81225690001156,480.82031000001007,480.8286369999987,480.8286369999987,480.8286369999987,482.836690600001,Objects\222a.jpg,mid,s,2.007410299993353,None,,,,,,,,,00037,001,2026-01-16_23h19.04.686,MST_test,2024.2.0,59.80110153249478,2026-01-16 23h19.20.343161 +0530,
104,0,105,n,1.5938217999937478,None,105,0,104,482.8526700999937,,,,,,,,,,,,,,,,,,,,,,,,,,,,,,,,,,,,,,,,,,,,,,,,,,482.8367884000181,482.8526700999937,483.3378991000063,483.34646960001555,483.3540452000161,483.3540452000161,483.3540452000161,484.9607509000052,Foils\049a.jpg,none,n,1.5938217999937478,None,,,,,,,,,00037,001,2026-01-16_23h19.04.686,MST_test,2024.2.0,59.80110153249478,2026-01-16 23h19.20.343161 +0530,
105,0,106,s,1.4986180000123568,None,106,0,105,484.97701259999303,,,,,,,,,,,,,,,,,,,,,,,,,,,,,,,,,,,,,,,,,,,,,,,,,,484.9608423000027,484.97701259999303,485.4623126999941,485.47920659999363,485.4965121000132,485.4965121000132,485.4965121000132,487.00106559999404,Objects\303a.jpg,post,s,1.4986180000123568,None,,,,,,,,,00037,001,2026-01-16_23h19.04.686,MST_test,2024.2.0,59.80110153249478,2026-01-16 23h19.20.343161 +0530,
106,0,107,s,1.963987499999348,None,107,0,106,487.01741679999395,,,,,,,,,,,,,,,,,,,,,,,,,,,,,,,,,,,,,,,,,,,,,,,,,,487.0011710000108,487.01741679999395,487.5024687999976,487.5174549999938,487.5357110000041,487.5357110000041,487.5357110000041,489.5098552000127,Objects\131b.jpg,pre,s,1.963987499999348,None,,,,,,,,,00037,001,2026-01-16_23h19.04.686,MST_test,2024.2.0,59.80110153249478,2026-01-16 23h19.20.343161 +0530,
107,0,108,o,1.0868702000007033,None,108,0,107,489.5261805000191,,,,,,,,,,,,,,,,,,,,,,,,,,,,,,,,,,,,,,,,,,,,,,,,,,489.50996009999653,489.5261805000191,490.0112616000115,490.0139172000054,490.02788100001635,490.02788100001635,490.02788100001635,491.1157228999946,Objects\155a.jpg,pre,o,1.0868702000007033,None,,,,,,,,,00037,001,2026-01-16_23h19.04.686,MST_test,2024.2.0,59.80110153249478,2026-01-16 23h19.20.343161 +0530,
108,0,109,o,0.865281500009587,None,109,0,108,491.13179630000377,,,,,,,,,,,,,,,,,,,,,,,,,,,,,,,,,,,,,,,,,,,,,,,,,,491.1158217000193,491.13179630000377,491.6167587999953,491.62629040001775,491.65023709999514,491.65023709999514,491.65023709999514,492.5208117000002,Objects\204b.jpg,pre,o,0.865281500009587,None,,,,,,,,,00037,001,2026-01-16_23h19.04.686,MST_test,2024.2.0,59.80110153249478,2026-01-16 23h19.20.343161 +0530,
109,0,110,s,1.9710643999860622,None,110,0,109,492.536751800013,,,,,,,,,,,,,,,,,,,,,,,,,,,,,,,,,,,,,,,,,,,,,,,,,,492.5209023000207,492.536751800013,493.0218714000075,493.0362100000202,493.0559765000071,493.0559765000071,493.0559765000071,495.0296254999994,Objects\284b.jpg,post,s,1.9710643999860622,None,,,,,,,,,00037,001,2026-01-16_23h19.04.686,MST_test,2024.2.0,59.80110153249478,2026-01-16 23h19.20.343161 +0530,
110,0,111,n,1.9519132999994326,None,111,0,110,495.0455664000183,,,,,,,,,,,,,,,,,,,,,,,,,,,,,,,,,,,,,,,,,,,,,,,,,,495.0297157000168,495.0455664000183,495.53045510000084,495.5454754999955,495.56394200000796,495.56394200000796,495.56394200000796,497.52149360001204,Foils\065a.jpg,none,n,1.9519132999994326,None,,,,,,,,,00037,001,2026-01-16_23h19.04.686,MST_test,2024.2.0,59.80110153249478,2026-01-16 23h19.20.343161 +0530,
111,0,112,s,1.2763375000213273,None,112,0,111,497.53754370001843,,,,,,,,,,,,,,,,,,,,,,,,,,,,,,,,,,,,,,,,,,,,,,,,,,497.5215833999973,497.53754370001843,498.0226406000147,498.02641770002083,498.03914770000847,498.03914770000847,498.03914770000847,499.32753030001186,Objects\302b.jpg,post,s,1.2763375000213273,None,,,,,,,,,00037,001,2026-01-16_23h19.04.686,MST_test,2024.2.0,59.80110153249478,2026-01-16 23h19.20.343161 +0530,
112,0,113,s,1.3330608000105713,None,113,0,112,499.34376950000296,,,,,,,,,,,,,,,,,,,,,,,,,,,,,,,,,,,,,,,,,,,,,,,,,,499.3276356999995,499.34376950000296,499.8291462000052,499.8319920000213,499.84571100000176,499.84571100000176,499.84571100000176,501.1841590999975,Foils\066a.jpg,none,s,1.3330608000105713,None,,,,,,,,,00037,001,2026-01-16_23h19.04.686,MST_test,2024.2.0,59.80110153249478,2026-01-16 23h19.20.343161 +0530,
113,0,114,o,1.396898200007854,None,114,0,113,501.2005437000189,,,,,,,,,,,,,,,,,,,,,,,,,,,,,,,,,,,,,,,,,,,,,,,,,,501.1842599000083,501.2005437000189,501.6855123999994,501.6883698000165,501.70226690001437,501.70226690001437,501.70226690001437,503.1075561000034,Objects\148a.jpg,pre,o,1.396898200007854,None,,,,,,,,,00037,001,2026-01-16_23h19.04.686,MST_test,2024.2.0,59.80110153249478,2026-01-16 23h19.20.343161 +0530,
114,0,115,s,1.3623228000069503,None,115,0,114,503.12383300001966,,,,,,,,,,,,,,,,,,,,,,,,,,,,,,,,,,,,,,,,,,,,,,,,,,503.1076503999939,503.12383300001966,503.6090161000029,503.6226821000164,503.6422725000011,503.6422725000011,503.6422725000011,505.01420580002014,Objects\366b.jpg,post,s,1.3623228000069503,None,,,,,,,,,00037,001,2026-01-16_23h19.04.686,MST_test,2024.2.0,59.80110153249478,2026-01-16 23h19.20.343161 +0530,
115,0,116,s,2.375027600006433,None,116,0,115,505.0307838000008,,,,,,,,,,,,,,,,,,,,,,,,,,,,,,,,,,,,,,,,,,,,,,,,,,505.01429740001913,505.0307838000008,505.5156004000164,505.52967420002096,505.54906600000686,505.54906600000686,505.54906600000686,507.9250307000184,Objects\307b.jpg,post,s,2.375027600006433,None,,,,,,,,,00037,001,2026-01-16_23h19.04.686,MST_test,2024.2.0,59.80110153249478,2026-01-16 23h19.20.343161 +0530,
116,0,117,n,0.9916535999800544,None,117,0,116,507.9406799999997,,,,,,,,,,,,,,,,,,,,,,,,,,,,,,,,,,,,,,,,,,,,,,,,,,507.9251279000018,507.9406799999997,508.42590760000166,508.4363706000149,508.4600771999976,508.4600771999976,508.4600771999976,509.463095300016,Foils\105a.jpg,none,n,0.9916535999800544,None,,,,,,,,,00037,001,2026-01-16_23h19.04.686,MST_test,2024.2.0,59.80110153249478,2026-01-16 23h19.20.343161 +0530,
117,0,118,s,1.2622066999902017,None,118,0,117,509.479553400015,,,,,,,,,,,,,,,,,,,,,,,,,,,,,,,,,,,,,,,,,,,,,,,,,,509.463190200011,509.479553400015,509.96437970001716,509.96783680000226,509.98109469999326,509.98109469999326,509.98109469999326,511.2529924999981,Objects\053a.jpg,post,s,1.2622066999902017,None,,,,,,,,,00037,001,2026-01-16_23h19.04.686,MST_test,2024.2.0,59.80110153249478,2026-01-16 23h19.20.343161 +0530,
118,0,119,s,1.1041167999792378,None,119,0,118,511.2693050999951,,,,,,,,,,,,,,,,,,,,,,,,,,,,,,,,,,,,,,,,,,,,,,,,,,511.253083699994,511.2693050999951,511.75481139999465,511.7667008000135,511.78738970000995,511.78738970000995,511.78738970000995,512.9084547999955,Objects\176b.jpg,mid,s,1.1041167999792378,None,,,,,,,,,00037,001,2026-01-16_23h19.04.686,MST_test,2024.2.0,59.80110153249478,2026-01-16 23h19.20.343161 +0530,
119,0,120,s,1.104613600007724,None,120,0,119,512.9246608999965,,,,,,,,,,,,,,,,,,,,,,,,,,,,,,,,,,,,,,,,,,,,,,,,,,512.9085513000027,512.9246608999965,513.4099819000112,513.4130063000193,513.4268539000186,513.4268539000186,513.4268539000186,514.5479283000168,Objects\083b.jpg,mid,s,1.104613600007724,None,,,,,,,,,00037,001,2026-01-16_23h19.04.686,MST_test,2024.2.0,59.80110153249478,2026-01-16 23h19.20.343161 +0530,
120,0,121,n,1.5538760000199545,None,121,0,120,514.5638626000145,,,,,,,,,,,,,,,,,,,,,,,,,,,,,,,,,,,,,,,,,,,,,,,,,,514.5480243000202,514.5638626000145,515.0489525000157,515.0518265000137,515.0655880999984,515.0655880999984,515.0655880999984,516.621584700013,Foils\098a.jpg,none,n,1.5538760000199545,None,,,,,,,,,00037,001,2026-01-16_23h19.04.686,MST_test,2024.2.0,59.80110153249478,2026-01-16 23h19.20.343161 +0530,
121,0,122,n,0.815006099990569,None,122,0,121,516.6377810999984,,,,,,,,,,,,,,,,,,,,,,,,,,,,,,,,,,,,,,,,,,,,,,,,,,516.6216771000181,516.6377810999984,517.1227475000196,517.1345858999994,517.1564324999927,517.1564324999927,517.1564324999927,517.9767173000146,Objects\095b.jpg,mid,n,0.815006099990569,None,,,,,,,,,00037,001,2026-01-16_23h19.04.686,MST_test,2024.2.0,59.80110153249478,2026-01-16 23h19.20.343161 +0530,
122,0,123,s,1.2852630999987014,None,123,0,122,517.9928014000179,,,,,,,,,,,,,,,,,,,,,,,,,,,,,,,,,,,,,,,,,,,,,,,,,,517.9768173000193,517.9928014000179,518.4774846000073,518.4855900999974,518.4935263000079,518.4935263000079,518.4935263000079,519.7826027999981,Objects\195a.jpg,mid,s,1.2852630999987014,None,,,,,,,,,00037,001,2026-01-16_23h19.04.686,MST_test,2024.2.0,59.80110153249478,2026-01-16 23h19.20.343161 +0530,
123,0,124,o,3.966704699996626,None,124,0,123,519.7989460999961,,,,,,,,,,,,,,,,,,,,,,,,,,,,,,,,,,,,,,,,,,,,,,,,,,519.7826952000032,519.7989460999961,520.283917599998,520.2913613000128,520.3001168000046,520.3001168000046,520.3001168000046,524.2821475999954,Objects\162a.jpg,mid,o,3.966704699996626,None,,,,,,,,,00037,001,2026-01-16_23h19.04.686,MST_test,2024.2.0,59.80110153249478,2026-01-16 23h19.20.343161 +0530,
124,0,125,n,1.7628124000038952,None,125,0,124,524.2978400000138,,,,,,,,,,,,,,,,,,,,,,,,,,,,,,,,,,,,,,,,,,,,,,,,,,524.2822432999965,524.2978400000138,524.7830019000103,524.7924097000214,524.8162579000054,524.8162579000054,524.8162579000054,526.5898947000096,Objects\331b.jpg,pre,n,1.7628124000038952,None,,,,,,,,,00037,001,2026-01-16_23h19.04.686,MST_test,2024.2.0,59.80110153249478,2026-01-16 23h19.20.343161 +0530,
125,0,126,o,1.6240689000114799,None,126,0,125,526.6061870999984,,,,,,,,,,,,,,,,,,,,,,,,,,,,,,,,,,,,,,,,,,,,,,,,,,526.5899910000153,526.6061870999984,527.0909781999944,527.0941934000002,527.1077393000014,527.1077393000014,527.1077393000014,528.7472989000089,Objects\369a.jpg,mid,o,1.6240689000114799,None,,,,,,,,,00037,001,2026-01-16_23h19.04.686,MST_test,2024.2.0,59.80110153249478,2026-01-16 23h19.20.343161 +0530,
126,0,127,s,1.40993160000653,None,127,0,126,528.7634520000138,,,,,,,,,,,,,,,,,,,,,,,,,,,,,,,,,,,,,,,,,,,,,,,,,,528.7473919000186,528.7634520000138,529.2487970000075,529.259026100015,529.2818873999931,529.2818873999931,529.2818873999931,530.7042201000149,Objects\007b.jpg,pre,s,1.40993160000653,None,,,,,,,,,00037,001,2026-01-16_23h19.04.686,MST_test,2024.2.0,59.80110153249478,2026-01-16 23h19.20.343161 +0530,
127,0,128,s,1.4048712000076193,None,128,0,127,530.7202899999975,,,,,,,,,,,,,,,,,,,,,,,,,,,,,,,,,,,,,,,,,,,,,,,,,,530.7043249999988,530.7202899999975,531.2055005000148,531.2155730999948,531.238754799997,531.238754799997,531.238754799997,532.644753200002,Objects\276b.jpg,mid,s,1.4048712000076193,None,,,,,,,,,00037,001,2026-01-16_23h19.04.686,MST_test,2024.2.0,59.80110153249478,2026-01-16 23h19.20.343161 +0530,
128,0,129,n,1.2888928999891505,None,129,0,128,532.6605347000004,,,,,,,,,,,,,,,,,,,,,,,,,,,,,,,,,,,,,,,,,,,,,,,,,,532.64484980001,532.6605347000004,533.1455072000099,533.1521831999999,533.1622697999992,533.1622697999992,533.1622697999992,534.4674317000026,Objects\323b.jpg,post,n,1.2888928999891505,None,,,,,,,,,00037,001,2026-01-16_23h19.04.686,MST_test,2024.2.0,59.80110153249478,2026-01-16 23h19.20.343161 +0530,
129,0,130,o,2.073008999985177,None,130,0,129,534.4837451000058,,,,,,,,,,,,,,,,,,,,,,,,,,,,,,,,,,,,,,,,,,,,,,,,,,534.4675291000167,534.4837451000058,534.9686107000161,534.9761328000168,534.9855298000039,534.9855298000039,534.9855298000039,537.0602782000205,Objects\028a.jpg,post,o,2.073008999985177,None,,,,,,,,,00037,001,2026-01-16_23h19.04.686,MST_test,2024.2.0,59.80110153249478,2026-01-16 23h19.20.343161 +0530,
130,0,131,o,0.9780503000074532,None,131,0,130,537.0758816000016,,,,,,,,,,,,,,,,,,,,,,,,,,,,,,,,,,,,,,,,,,,,,,,,,,537.0603686000104,537.0758816000016,537.5610833000101,537.5642879999941,537.5777736000018,537.5777736000018,537.5777736000018,538.5652488000051,Objects\038a.jpg,pre,o,0.9780503000074532,None,,,,,,,,,00037,001,2026-01-16_23h19.04.686,MST_test,2024.2.0,59.80110153249478,2026-01-16 23h19.20.343161 +0530,
131,0,132,n,1.1203147000051104,None,132,0,131,538.5812955000147,,,,,,,,,,,,,,,,,,,,,,,,,,,,,,,,,,,,,,,,,,,,,,,,,,538.5653389000217,538.5812955000147,539.0663712999958,539.0693596000201,539.0828872999991,539.0828872999991,539.0828872999991,540.2043190000113,Foils\074a.jpg,none,n,1.1203147000051104,None,,,,,,,,,00037,001,2026-01-16_23h19.04.686,MST_test,2024.2.0,59.80110153249478,2026-01-16 23h19.20.343161 +0530,
132,0,133,s,1.5452992000209633,None,133,0,132,540.2202339000069,,,,,,,,,,,,,,,,,,,,,,,,,,,,,,,,,,,,,,,,,,,,,,,,,,540.2044084999943,540.2202339000069,540.7054252999951,540.7088366000098,540.7220496000082,540.7220496000082,540.7220496000082,542.2781758000201,Objects\057a.jpg,pre,s,1.5452992000209633,None,,,,,,,,,00037,001,2026-01-16_23h19.04.686,MST_test,2024.2.0,59.80110153249478,2026-01-16 23h19.20.343161 +0530,
133,0,134,s,0.9023265000141691,None,134,0,133,542.2941640000208,,,,,,,,,,,,,,,,,,,,,,,,,,,,,,,,,,,,,,,,,,,,,,,,,,542.2782693000045,542.2941640000208,542.7793622000027,542.789119699999,542.8126147000003,542.8126147000003,542.8126147000003,543.7165068000031,Objects\008b.jpg,post,s,0.9023265000141691,None,,,,,,,,,00037,001,2026-01-16_23h19.04.686,MST_test,2024.2.0,59.80110153249478,2026-01-16 23h19.20.343161 +0530,
134,0,135,s,1.584359200001927,None,135,0,134,543.7328234000015,,,,,,,,,,,,,,,,,,,,,,,,,,,,,,,,,,,,,,,,,,,,,,,,,,543.7166065000056,543.7328234000015,544.2176222999988,544.2274740000139,544.2510954000172,544.2510954000172,544.2510954000172,545.8404704999994,Objects\153b.jpg,pre,s,1.584359200001927,None,,,,,,,,,00037,001,2026-01-16_23h19.04.686,MST_test,2024.2.0,59.80110153249478,2026-01-16 23h19.20.343161 +0530,
135,0,136,s,1.0538033000193536,None,136,0,135,545.856750100007,,,,,,,,,,,,,,,,,,,,,,,,,,,,,,,,,,,,,,,,,,,,,,,,,,545.840694500017,545.856750100007,546.3417273999949,546.3448142000125,546.3584718000202,546.3584718000202,546.3584718000202,547.4131164000137,Objects\147a.jpg,pre,s,1.0538033000193536,None,,,,,,,,,00037,001,2026-01-16_23h19.04.686,MST_test,2024.2.0,59.80110153249478,2026-01-16 23h19.20.343161 +0530,
136,0,137,s,0.7362302000110503,None,137,0,136,547.4289975000138,,,,,,,,,,,,,,,,,,,,,,,,,,,,,,,,,,,,,,,,,,,,,,,,,,547.413220300019,547.4289975000138,547.9140264000162,547.917772500019,547.9306283000042,547.9306283000042,547.9306283000042,548.6837931000046,Foils\002a.jpg,none,s,0.7362302000110503,None,,,,,,,,,00037,001,2026-01-16_23h19.04.686,MST_test,2024.2.0,59.80110153249478,2026-01-16 23h19.20.343161 +0530,
137,0,138,s,1.1296949999814387,None,138,0,137,548.7000503000163,,,,,,,,,,,,,,,,,,,,,,,,,,,,,,,,,,,,,,,,,,,,,,,,,,548.6838848000043,548.7000503000163,549.1850441000133,549.1916747000068,549.202008799999,549.202008799999,549.202008799999,550.3399740000023,Objects\202a.jpg,pre,s,1.1296949999814387,None,,,,,,,,,00037,001,2026-01-16_23h19.04.686,MST_test,2024.2.0,59.80110153249478,2026-01-16 23h19.20.343161 +0530,
138,0,139,s,0.8565344999951776,None,139,0,138,550.355730100011,,,,,,,,,,,,,,,,,,,,,,,,,,,,,,,,,,,,,,,,,,,,,,,,,,550.3400661000051,550.355730100011,550.8409346000117,550.8547987000202,550.874172300013,550.874172300013,550.874172300013,551.7445481000177,Objects\321b.jpg,post,s,0.8565344999951776,None,,,,,,,,,00037,001,2026-01-16_23h19.04.686,MST_test,2024.2.0,59.80110153249478,2026-01-16 23h19.20.343161 +0530,
139,0,140,o,1.619512000004761,None,140,0,139,551.7606352000148,,,,,,,,,,,,,,,,,,,,,,,,,,,,,,,,,,,,,,,,,,,,,,,,,,551.7446418000036,551.7606352000148,552.2458703000157,552.2602447000099,552.2790952000069,552.2790952000069,552.2790952000069,553.9022900999989,Objects\087b.jpg,pre,o,1.619512000004761,None,,,,,,,,,00037,001,2026-01-16_23h19.04.686,MST_test,2024.2.0,59.80110153249478,2026-01-16 23h19.20.343161 +0530,
140,0,141,s,1.230322100018384,None,141,0,140,553.9183023000078,,,,,,,,,,,,,,,,,,,,,,,,,,,,,,,,,,,,,,,,,,,,,,,,,,553.9023867000069,553.9183023000078,554.4032961000048,554.4133885000192,554.4367813999997,554.4367813999997,554.4367813999997,555.6748537000094,Objects\024b.jpg,pre,s,1.230322100018384,None,,,,,,,,,00037,001,2026-01-16_23h19.04.686,MST_test,2024.2.0,59.80110153249478,2026-01-16 23h19.20.343161 +0530,
141,0,142,n,1.130344100005459,None,142,0,141,555.6912297999952,,,,,,,,,,,,,,,,,,,,,,,,,,,,,,,,,,,,,,,,,,,,,,,,,,555.6749470000213,555.6912297999952,556.1762139000057,556.1793588,556.1932178999996,556.1932178999996,556.1932178999996,557.3309506000078,Foils\113a.jpg,none,n,1.130344100005459,None,,,,,,,,,00037,001,2026-01-16_23h19.04.686,MST_test,2024.2.0,59.80110153249478,2026-01-16 23h19.20.343161 +0530,
142,0,143,n,1.2422818999912124,None,143,0,142,557.3469033000001,,,,,,,,,,,,,,,,,,,,,,,,,,,,,,,,,,,,,,,,,,,,,,,,,,557.3310441000212,557.3469033000001,557.8321858000127,557.8354634999996,557.8485781000054,557.8485781000054,557.8485781000054,559.1036872999975,Foils\010a.jpg,none,n,1.2422818999912124,None,,,,,,,,,00037,001,2026-01-16_23h19.04.686,MST_test,2024.2.0,59.80110153249478,2026-01-16 23h19.20.343161 +0530,
143,0,144,o,2.1651505999907386,None,144,0,143,559.1197618000151,,,,,,,,,,,,,,,,,,,,,,,,,,,,,,,,,,,,,,,,,,,,,,,,,,559.1037806000095,559.1197618000151,559.6049688000057,559.6075393999927,559.621456599998,559.621456599998,559.621456599998,561.7963384000177,Objects\119a.jpg,mid,o,2.1651505999907386,None,,,,,,,,,00037,001,2026-01-16_23h19.04.686,MST_test,2024.2.0,59.80110153249478,2026-01-16 23h19.20.343161 +0530,
144,0,145,s,2.1041116999986116,None,145,0,144,561.8126348000078,,,,,,,,,,,,,,,,,,,,,,,,,,,,,,,,,,,,,,,,,,,,,,,,,,561.7964363000065,561.8126348000078,562.2975931999972,562.3070041000028,562.3310817000165,562.3310817000165,562.3310817000165,564.4391595000052,Objects\006b.jpg,pre,s,2.1041116999986116,None,,,,,,,,,00037,001,2026-01-16_23h19.04.686,MST_test,2024.2.0,59.80110153249478,2026-01-16 23h19.20.343161 +0530,
145,0,146,n,1.4148436000104994,None,146,0,145,564.4550889999955,,,,,,,,,,,,,,,,,,,,,,,,,,,,,,,,,,,,,,,,,,,,,,,,,,564.4392534000217,564.4550889999955,564.940499999997,564.9477492000151,564.9564378000214,564.9564378000214,564.9564378000214,566.3791873000155,Objects\209b.jpg,post,n,1.4148436000104994,None,,,,,,,,,00037,001,2026-01-16_23h19.04.686,MST_test,2024.2.0,59.80110153249478,2026-01-16 23h19.20.343161 +0530,
146,0,147,s,1.0098502000037115,None,147,0,146,566.39540020001,,,,,,,,,,,,,,,,,,,,,,,,,,,,,,,,,,,,,,,,,,,,,,,,,,566.379291899997,566.39540020001,566.8806060000206,566.8954739000183,566.9138270000112,566.9138270000112,566.9138270000112,567.9350353000045,Objects\226b.jpg,pre,s,1.0098502000037115,None,,,,,,,,,00037,001,2026-01-16_23h19.04.686,MST_test,2024.2.0,59.80110153249478,2026-01-16 23h19.20.343161 +0530,
147,0,148,s,1.0476464999956079,None,148,0,147,567.9508381000196,,,,,,,,,,,,,,,,,,,,,,,,,,,,,,,,,,,,,,,,,,,,,,,,,,567.9351362000161,567.9508381000196,568.4360443000041,568.4436782000121,568.451896500017,568.451896500017,568.451896500017,569.5068297999969,Foils\057a.jpg,none,s,1.0476464999956079,None,,,,,,,,,00037,001,2026-01-16_23h19.04.686,MST_test,2024.2.0,59.80110153249478,2026-01-16 23h19.20.343161 +0530,
148,0,149,s,0.9858707999810576,None,149,0,148,569.5229992000095,,,,,,,,,,,,,,,,,,,,,,,,,,,,,,,,,,,,,,,,,,,,,,,,,,569.5069293999986,569.5229992000095,570.0079302999948,570.0174735000182,570.0416766999988,570.0416766999988,570.0416766999988,571.0288205000106,Objects\141b.jpg,mid,s,0.9858707999810576,None,,,,,,,,,00037,001,2026-01-16_23h19.04.686,MST_test,2024.2.0,59.80110153249478,2026-01-16 23h19.20.343161 +0530,
149,0,150,s,0.8950553000031505,None,150,0,149,571.0449527000019,,,,,,,,,,,,,,,,,,,,,,,,,,,,,,,,,,,,,,,,,,,,,,,,,,571.028913600021,571.0449527000019,571.529939,571.5393698000116,571.5634951000102,571.5634951000102,571.5634951000102,572.4673087999981,Objects\017b.jpg,mid,s,0.8950553000031505,None,,,,,,,,,00037,001,2026-01-16_23h19.04.686,MST_test,2024.2.0,59.80110153249478,2026-01-16 23h19.20.343161 +0530,
,,,,,,,,,,,,,,,,,,,,,,,,,,,,,,,,,,,,,,,,,,,,,,,,,,,,,,,,,,,,,,,,,,,,,,,,,572.4673738999991,572.4832125999965,572.4832125999965,574.2233237000182,space,1.7363692999933846,None,00037,001,2026-01-16_23h19.04.686,MST_test,2024.2.0,59.80110153249478,2026-01-16 23h19.20.343161 +0530,
