thisN,thisTrialN,thisRepN,key_resp_3.keys,key_resp_3.rt,key_resp_3.duration,trials.thisRepN,trials.thisTrialN,trials.thisN,thisRow.t,notes,intro_page.started,text.started,key_resp.started,intro_page.stopped,key_resp.keys,key_resp.rt,key_resp.duration,instructions.started,text_2.started,key_resp_2.started,instructions.stopped,key_resp_2.keys,key_resp_2.rt,key_resp_2.duration,demo1.started,image_1.started,image_2.started,text_7.started,key_resp_6.started,text_9.started,demo1.stopped,key_resp_6.keys,key_resp_6.rt,key_resp_6.duration,demo3.started,image_5.started,image_6.started,text_11.started,text_12.started,key_resp_8.started,demo3.stopped,key_resp_8.keys,key_resp_8.rt,key_resp_8.duration,demo_conclusion.started,text_13.started,key_resp_9.started,demo_conclusion.stopped,key_resp_9.keys,key_resp_9.rt,key_resp_9.duration,start_test.started,text_6.started,key_resp_5.started,start_test.stopped,key_resp_5.keys,key_resp_5.rt,key_resp_5.duration,ISI.started,text_4.started,text_4.stopped,ISI.stopped,routine_1.started,image.started,text_3.started,key_resp_3.started,routine_1.stopped,image_path,position_of_stimuli,trials.key_resp_3.keys,trials.key_resp_3.rt,trials.key_resp_3.duration,End_page.started,text_5.started,key_resp_4.started,End_page.stopped,key_resp_4.keys,key_resp_4.rt,key_resp_4.duration,participant,session,date,expName,psychopyVersion,frameRate,expStart,
,,,,,,,,,,,0.001825599989388138,0.0033195000141859055,0.0033195000141859055,5.537543700018432,space,5.5184336000238545,None,,,,,,,,,,,,,,,,,,,,,,,,,,,,,,,,,,,,,,,,,,,,,,,,,,,,,,,,,,,,,,,00064,001,2026-01-20_11h50.51.345,MST_test,2024.2.0,60.059482910336776,2026-01-20 11h50.59.053728 +0530,
,,,,,,,,,,,,,,,,,,5.537577100039925,5.55225629999768,5.55225629999768,18.219549100031145,space,12.666083900025114,None,,,,,,,,,,,,,,,,,,,,,,,,,,,,,,,,,,,,,,,,,,,,,,,,,,,,,,,,00064,001,2026-01-20_11h50.51.345,MST_test,2024.2.0,60.059482910336776,2026-01-20 11h50.59.053728 +0530,
,,,,,,,,,,,,,,,,,,,,,,,,,18.21957770001609,18.235955400043167,18.235955400043167,18.235955400043167,18.235955400043167,18.235955400043167,23.219702000031248,space,4.974899599968921,None,,,,,,,,,,,,,,,,,,,,,,,,,,,,,,,,,,,,,,,,,,,,,,00064,001,2026-01-20_11h50.51.345,MST_test,2024.2.0,60.059482910336776,2026-01-20 11h50.59.053728 +0530,
,,,,,,,,,,,,,,,,,,,,,,,,,,,,,,,,,,,23.219730800017715,23.23590550001245,23.23590550001245,23.23590550001245,23.23590550001245,23.23590550001245,28.669738700031303,space,5.422883199993521,None,,,,,,,,,,,,,,,,,,,,,,,,,,,,,,,,,,,,00064,001,2026-01-20_11h50.51.345,MST_test,2024.2.0,60.059482910336776,2026-01-20 11h50.59.053728 +0530,
,,,,,,,,,,,,,,,,,,,,,,,,,,,,,,,,,,,,,,,,,,,,,28.669768600026146,28.685528700007126,28.685528700007126,112.70282150001731,space,84.00416180002503,None,,,,,,,,,,,,,,,,,,,,,,,,,,,,,00064,001,2026-01-20_11h50.51.345,MST_test,2024.2.0,60.059482910336776,2026-01-20 11h50.59.053728 +0530,
,,,,,,,,,,,,,,,,,,,,,,,,,,,,,,,,,,,,,,,,,,,,,,,,,,,,112.70285970001714,112.72417689999565,112.72417689999565,163.56956979999086,space,50.83770929998718,None,,,,,,,,,,,,,,,,,,,,,,00064,001,2026-01-20_11h50.51.345,MST_test,2024.2.0,60.059482910336776,2026-01-20 11h50.59.053728 +0530,
0,0,1,o,2.285192899988033,None,1,0,0,163.58557210001163,,,,,,,,,,,,,,,,,,,,,,,,,,,,,,,,,,,,,,,,,,,,,,,,,,163.57342090003658,163.58557210001163,164.08573900000192,164.06925140001113,164.07893080002395,164.08573900000192,164.08573900000192,164.08573900000192,166.38626950001344,Objects\061a.jpg,mid,o,2.285192899988033,None,,,,,,,,00064,001,2026-01-20_11h50.51.345,MST_test,2024.2.0,60.059482910336776,2026-01-20 11h50.59.053728 +0530,
1,0,2,n,5.627688999986276,None,2,0,1,166.4023812999949,,,,,,,,,,,,,,,,,,,,,,,,,,,,,,,,,,,,,,,,,,,,,,,,,,166.38636860001134,166.4023812999949,166.90258220001124,166.88604670000495,166.89646710001398,166.90258220001124,166.90258220001124,166.90258220001124,172.53600650001317,Foils\098a.jpg,none,n,5.627688999986276,None,,,,,,,,00064,001,2026-01-20_11h50.51.345,MST_test,2024.2.0,60.059482910336776,2026-01-20 11h50.59.053728 +0530,
2,0,3,o,2.3257914999849163,None,3,0,2,172.55227109999396,,,,,,,,,,,,,,,,,,,,,,,,,,,,,,,,,,,,,,,,,,,,,,,,,,172.53609820001293,172.55227109999396,173.05254559998866,173.03579410002567,173.03881420003017,173.05254559998866,173.05254559998866,173.05254559998866,175.38616340002045,Objects\228a.jpg,post,o,2.3257914999849163,None,,,,,,,,00064,001,2026-01-20_11h50.51.345,MST_test,2024.2.0,60.059482910336776,2026-01-20 11h50.59.053728 +0530,
3,0,4,o,2.0037732999771833,None,4,0,3,175.4023562000366,,,,,,,,,,,,,,,,,,,,,,,,,,,,,,,,,,,,,,,,,,,,,,,,,,175.38626950001344,175.4023562000366,175.90255790000083,175.8858321000007,175.8882429000223,175.90255790000083,175.90255790000083,175.90255790000083,177.91955079999752,Objects\216a.jpg,post,o,2.0037732999771833,None,,,,,,,,00064,001,2026-01-20_11h50.51.345,MST_test,2024.2.0,60.059482910336776,2026-01-20 11h50.59.053728 +0530,
4,0,5,s,6.198519799974747,None,5,0,4,177.9354561000364,,,,,,,,,,,,,,,,,,,,,,,,,,,,,,,,,,,,,,,,,,,,,,,,,,177.91964060004102,177.9354561000364,178.43586140003754,178.41926430002786,178.42923070001416,178.43586140003754,178.43586140003754,178.43586140003754,184.63609460002044,Objects\267b.jpg,pre,s,6.198519799974747,None,,,,,,,,00064,001,2026-01-20_11h50.51.345,MST_test,2024.2.0,60.059482910336776,2026-01-20 11h50.59.053728 +0530,
5,0,6,o,1.9536599999992177,None,6,0,5,184.65238610003144,,,,,,,,,,,,,,,,,,,,,,,,,,,,,,,,,,,,,,,,,,,,,,,,,,184.63618520001182,184.65238610003144,185.15270810003858,185.1358683000435,185.13837010000134,185.15270810003858,185.15270810003858,185.15270810003858,187.11962260003202,Objects\244a.jpg,pre,o,1.9536599999992177,None,,,,,,,,00064,001,2026-01-20_11h50.51.345,MST_test,2024.2.0,60.059482910336776,2026-01-20 11h50.59.053728 +0530,
6,0,7,s,2.094624000019394,None,7,0,6,187.13561590004247,,,,,,,,,,,,,,,,,,,,,,,,,,,,,,,,,,,,,,,,,,,,,,,,,,187.11971380002797,187.13561590004247,187.6358497000183,187.61928790004458,187.62238260003505,187.6358497000183,187.6358497000183,187.6358497000183,189.73622960003559,Objects\302a.jpg,post,s,2.094624000019394,None,,,,,,,,00064,001,2026-01-20_11h50.51.345,MST_test,2024.2.0,60.059482910336776,2026-01-20 11h50.59.053728 +0530,
7,0,8,n,1.6288669000496157,None,8,0,7,189.75236410001526,,,,,,,,,,,,,,,,,,,,,,,,,,,,,,,,,,,,,,,,,,,,,,,,,,189.73632550000912,189.75236410001526,190.25283479999052,190.23586850002175,190.24783980002394,190.25283479999052,190.25283479999052,190.25283479999052,191.88662679999834,Foils\082a.jpg,none,n,1.6288669000496157,None,,,,,,,,00064,001,2026-01-20_11h50.51.345,MST_test,2024.2.0,60.059482910336776,2026-01-20 11h50.59.053728 +0530,
8,0,9,n,1.7349986999761313,None,9,0,8,191.90239820000716,,,,,,,,,,,,,,,,,,,,,,,,,,,,,,,,,,,,,,,,,,,,,,,,,,191.88672559999395,191.90239820000716,192.40269370004535,192.38625320000574,192.3969413000159,192.40269370004535,192.40269370004535,192.40269370004535,194.15295160003006,Foils\090a.jpg,none,n,1.7349986999761313,None,,,,,,,,00064,001,2026-01-20_11h50.51.345,MST_test,2024.2.0,60.059482910336776,2026-01-20 11h50.59.053728 +0530,
9,0,10,s,2.1650971000199206,None,10,0,9,194.16895419999491,,,,,,,,,,,,,,,,,,,,,,,,,,,,,,,,,,,,,,,,,,,,,,,,,,194.15304290002678,194.16895419999491,194.6692280000425,194.65280859998893,194.65520520001883,194.6692280000425,194.6692280000425,194.6692280000425,196.83607660001144,Objects\168a.jpg,mid,s,2.1650971000199206,None,,,,,,,,00064,001,2026-01-20_11h50.51.345,MST_test,2024.2.0,60.059482910336776,2026-01-20 11h50.59.053728 +0530,
10,0,11,s,2.4018281000317074,None,11,0,10,196.85237300000153,,,,,,,,,,,,,,,,,,,,,,,,,,,,,,,,,,,,,,,,,,,,,,,,,,196.83616860001348,196.85237300000153,197.3525462000398,197.33596510003554,197.3455615999992,197.3525462000398,197.3525462000398,197.3525462000398,199.76980020001065,Objects\204b.jpg,post,s,2.4018281000317074,None,,,,,,,,00064,001,2026-01-20_11h50.51.345,MST_test,2024.2.0,60.059482910336776,2026-01-20 11h50.59.053728 +0530,
11,0,12,o,3.7804257999523543,None,12,0,11,199.78570920001948,,,,,,,,,,,,,,,,,,,,,,,,,,,,,,,,,,,,,,,,,,,,,,,,,,199.76989540003706,199.78570920001948,200.2858960000449,200.26938810001593,200.27854160004063,200.2858960000449,200.2858960000449,200.2858960000449,204.06998690002365,Objects\305b.jpg,post,o,3.7804257999523543,None,,,,,,,,00064,001,2026-01-20_11h50.51.345,MST_test,2024.2.0,60.059482910336776,2026-01-20 11h50.59.053728 +0530,
12,0,13,s,3.847693999996409,None,13,0,12,204.08584240003256,,,,,,,,,,,,,,,,,,,,,,,,,,,,,,,,,,,,,,,,,,,,,,,,,,204.07009270001436,204.08584240003256,204.58593609998934,204.56935920001706,204.5719541000435,204.58593609998934,204.58593609998934,204.58593609998934,208.43636980000883,Objects\274a.jpg,mid,s,3.847693999996409,None,,,,,,,,00064,001,2026-01-20_11h50.51.345,MST_test,2024.2.0,60.059482910336776,2026-01-20 11h50.59.053728 +0530,
13,0,14,s,3.145351499959361,None,14,0,13,208.452442000038,,,,,,,,,,,,,,,,,,,,,,,,,,,,,,,,,,,,,,,,,,,,,,,,,,208.43646570004057,208.452442000038,208.9529876000015,208.93594860000303,208.94604529999197,208.9529876000015,208.9529876000015,208.9529876000015,212.10302780003985,Objects\342b.jpg,post,s,3.145351499959361,None,,,,,,,,00064,001,2026-01-20_11h50.51.345,MST_test,2024.2.0,60.059482910336776,2026-01-20 11h50.59.053728 +0530,
14,0,15,o,1.7661397000192665,None,15,0,14,212.11912809999194,,,,,,,,,,,,,,,,,,,,,,,,,,,,,,,,,,,,,,,,,,,,,,,,,,212.10312370001338,212.11912809999194,212.6194736000034,212.6028427000274,212.60609570000088,212.6194736000034,212.6194736000034,212.6194736000034,214.386367900006,Objects\369a.jpg,post,o,1.7661397000192665,None,,,,,,,,00064,001,2026-01-20_11h50.51.345,MST_test,2024.2.0,60.059482910336776,2026-01-20 11h50.59.053728 +0530,
15,0,16,s,2.908171199960634,None,16,0,15,214.40245779999532,,,,,,,,,,,,,,,,,,,,,,,,,,,,,,,,,,,,,,,,,,,,,,,,,,214.3864608000149,214.40245779999532,214.90269940003054,214.88593280001078,214.89619110000785,214.90269940003054,214.90269940003054,214.90269940003054,217.81981920002727,Objects\045b.jpg,mid,s,2.908171199960634,None,,,,,,,,00064,001,2026-01-20_11h50.51.345,MST_test,2024.2.0,60.059482910336776,2026-01-20 11h50.59.053728 +0530,
16,0,17,o,2.0816461999784224,None,17,0,16,217.835733600019,,,,,,,,,,,,,,,,,,,,,,,,,,,,,,,,,,,,,,,,,,,,,,,,,,217.8199252000195,217.835733600019,218.3359965000418,218.31937680003466,218.32171200000448,218.3359965000418,218.3359965000418,218.3359965000418,220.41981640004087,Objects\376a.jpg,post,o,2.0816461999784224,None,,,,,,,,00064,001,2026-01-20_11h50.51.345,MST_test,2024.2.0,60.059482910336776,2026-01-20 11h50.59.053728 +0530,
17,0,18,o,1.3620230000233278,None,18,0,17,220.4355748000089,,,,,,,,,,,,,,,,,,,,,,,,,,,,,,,,,,,,,,,,,,,,,,,,,,220.41991910000797,220.4355748000089,220.9358019999927,220.91941000003135,220.92201560002286,220.9358019999927,220.9358019999927,220.9358019999927,222.30305410001893,Objects\003a.jpg,mid,o,1.3620230000233278,None,,,,,,,,00064,001,2026-01-20_11h50.51.345,MST_test,2024.2.0,60.059482910336776,2026-01-20 11h50.59.053728 +0530,
18,0,19,o,6.838930500030983,None,19,0,18,222.3190551000298,,,,,,,,,,,,,,,,,,,,,,,,,,,,,,,,,,,,,,,,,,,,,,,,,,222.30314750003163,222.3190551000298,222.8193296000245,222.80273759999545,222.81221550004557,222.8193296000245,222.8193296000245,222.8193296000245,229.66999920003582,Objects\065b.jpg,pre,o,6.838930500030983,None,,,,,,,,00064,001,2026-01-20_11h50.51.345,MST_test,2024.2.0,60.059482910336776,2026-01-20 11h50.59.053728 +0530,
19,0,20,n,1.6395542999962345,None,20,0,19,229.68575330002932,,,,,,,,,,,,,,,,,,,,,,,,,,,,,,,,,,,,,,,,,,,,,,,,,,229.67009299999336,229.68575330002932,230.18613490002463,230.1693893999909,230.17908060003538,230.18613490002463,230.18613490002463,230.18613490002463,231.83603330003098,Foils\f5.jpg,none,n,1.6395542999962345,None,,,,,,,,00064,001,2026-01-20_11h50.51.345,MST_test,2024.2.0,60.059482910336776,2026-01-20 11h50.59.053728 +0530,
20,0,21,s,2.105036699969787,None,21,0,20,231.85246449999977,,,,,,,,,,,,,,,,,,,,,,,,,,,,,,,,,,,,,,,,,,,,,,,,,,231.83612530003302,231.85246449999977,232.3528309999965,232.33598989999155,232.34678920003353,232.3528309999965,232.3528309999965,232.3528309999965,234.469591400004,Objects\360b.jpg,pre,s,2.105036699969787,None,,,,,,,,00064,001,2026-01-20_11h50.51.345,MST_test,2024.2.0,60.059482910336776,2026-01-20 11h50.59.053728 +0530,
21,0,22,o,3.2635063999914564,None,22,0,21,234.48579910001718,,,,,,,,,,,,,,,,,,,,,,,,,,,,,,,,,,,,,,,,,,,,,,,,,,234.46968360000756,234.48579910001718,234.98613760003354,234.96936789999017,234.97278110001935,234.98613760003354,234.98613760003354,234.98613760003354,238.25312549999217,Objects\153a.jpg,mid,o,3.2635063999914564,None,,,,,,,,00064,001,2026-01-20_11h50.51.345,MST_test,2024.2.0,60.059482910336776,2026-01-20 11h50.59.053728 +0530,
22,0,23,n,1.5364370999741368,None,23,0,22,238.26921390002826,,,,,,,,,,,,,,,,,,,,,,,,,,,,,,,,,,,,,,,,,,,,,,,,,,238.25321809999878,238.26921390002826,238.76920219999738,238.75265330000548,238.7622727000271,238.76920219999738,238.76920219999738,238.76920219999738,240.319648100005,Foils\020b.jpg,none,n,1.5364370999741368,None,,,,,,,,00064,001,2026-01-20_11h50.51.345,MST_test,2024.2.0,60.059482910336776,2026-01-20 11h50.59.053728 +0530,
23,0,24,s,1.8453979000332765,None,24,0,23,240.3356493000174,,,,,,,,,,,,,,,,,,,,,,,,,,,,,,,,,,,,,,,,,,,,,,,,,,240.319739700004,240.3356493000174,240.83619140001247,240.81939330004388,240.8221360000316,240.83619140001247,240.83619140001247,240.83619140001247,242.68651860003592,Objects\352a.jpg,mid,s,1.8453979000332765,None,,,,,,,,00064,001,2026-01-20_11h50.51.345,MST_test,2024.2.0,60.059482910336776,2026-01-20 11h50.59.053728 +0530,
24,0,25,s,3.703759199997876,None,25,0,24,242.70247830002336,,,,,,,,,,,,,,,,,,,,,,,,,,,,,,,,,,,,,,,,,,,,,,,,,,242.68660880002426,242.70247830002336,243.2026831000112,243.18601659999695,243.19642230001045,243.2026831000112,243.2026831000112,243.2026831000112,246.9197615000303,Foils\065a.jpg,none,s,3.703759199997876,None,,,,,,,,00064,001,2026-01-20_11h50.51.345,MST_test,2024.2.0,60.059482910336776,2026-01-20 11h50.59.053728 +0530,
25,0,26,o,1.8936490999767557,None,26,0,25,246.93578410003101,,,,,,,,,,,,,,,,,,,,,,,,,,,,,,,,,,,,,,,,,,,,,,,,,,246.919854900043,246.93578410003101,247.4359989000368,247.41940670000622,247.42227540002204,247.4359989000368,247.4359989000368,247.4359989000368,249.33610340004088,Objects\048a.jpg,mid,o,1.8936490999767557,None,,,,,,,,00064,001,2026-01-20_11h50.51.345,MST_test,2024.2.0,60.059482910336776,2026-01-20 11h50.59.053728 +0530,
26,0,27,s,2.3409109999774955,None,27,0,26,249.35237790003885,,,,,,,,,,,,,,,,,,,,,,,,,,,,,,,,,,,,,,,,,,,,,,,,,,249.3361983000068,249.35237790003885,249.85267069999827,249.83592660003342,249.84774640004616,249.85267069999827,249.85267069999827,249.85267069999827,252.20296780002536,Foils\105a.jpg,none,s,2.3409109999774955,None,,,,,,,,00064,001,2026-01-20_11h50.51.345,MST_test,2024.2.0,60.059482910336776,2026-01-20 11h50.59.053728 +0530,
27,0,28,s,1.8275461999583058,None,28,0,27,252.21975320001366,,,,,,,,,,,,,,,,,,,,,,,,,,,,,,,,,,,,,,,,,,,,,,,,,,252.20305790001294,252.21975320001366,252.71922210004414,252.7027056000079,252.71212260000175,252.71922210004414,252.71922210004414,252.71922210004414,254.55307240004186,Foils\049a.jpg,none,s,1.8275461999583058,None,,,,,,,,00064,001,2026-01-20_11h50.51.345,MST_test,2024.2.0,60.059482910336776,2026-01-20 11h50.59.053728 +0530,
28,0,29,o,1.5813642999855801,None,29,0,28,254.5690171000315,,,,,,,,,,,,,,,,,,,,,,,,,,,,,,,,,,,,,,,,,,,,,,,,,,254.55318769998848,254.5690171000315,255.06928779999726,255.0528410000261,255.05539530003443,255.06928779999726,255.06928779999726,255.06928779999726,256.65300829999615,Objects\085a.jpg,post,o,1.5813642999855801,None,,,,,,,,00064,001,2026-01-20_11h50.51.345,MST_test,2024.2.0,60.059482910336776,2026-01-20 11h50.59.053728 +0530,
29,0,30,s,1.6175235999980941,None,30,0,29,256.66902480000863,,,,,,,,,,,,,,,,,,,,,,,,,,,,,,,,,,,,,,,,,,,,,,,,,,256.65310120000504,256.66902480000863,257.169280000031,257.1528072000365,257.162021600001,257.169280000031,257.169280000031,257.169280000031,258.8030536000151,Objects\091b.jpg,post,s,1.6175235999980941,None,,,,,,,,00064,001,2026-01-20_11h50.51.345,MST_test,2024.2.0,60.059482910336776,2026-01-20 11h50.59.053728 +0530,
30,0,31,o,2.802771100017708,None,31,0,30,258.81918510003015,,,,,,,,,,,,,,,,,,,,,,,,,,,,,,,,,,,,,,,,,,,,,,,,,,258.8031458000187,258.81918510003015,259.3192473000381,259.30280800000764,259.31249260000186,259.3192473000381,259.3192473000381,259.3192473000381,262.13629350002157,Objects\245b.jpg,pre,o,2.802771100017708,None,,,,,,,,00064,001,2026-01-20_11h50.51.345,MST_test,2024.2.0,60.059482910336776,2026-01-20 11h50.59.053728 +0530,
31,0,32,o,2.1584953000419773,None,32,0,31,262.1523316000239,,,,,,,,,,,,,,,,,,,,,,,,,,,,,,,,,,,,,,,,,,,,,,,,,,262.1363887999905,262.1523316000239,262.65259950002655,262.6358186000143,262.6448453000048,262.65259950002655,262.65259950002655,262.65259950002655,264.8196517000324,Objects\075b.jpg,post,o,2.1584953000419773,None,,,,,,,,00064,001,2026-01-20_11h50.51.345,MST_test,2024.2.0,60.059482910336776,2026-01-20 11h50.59.053728 +0530,
32,0,33,s,1.9462240999564528,None,33,0,32,264.83555499999784,,,,,,,,,,,,,,,,,,,,,,,,,,,,,,,,,,,,,,,,,,,,,,,,,,264.8197529000463,264.83555499999784,265.33615809999174,265.31940480001504,265.3307754000416,265.33615809999174,265.33615809999174,265.33615809999174,267.2863268000074,Objects\363b.jpg,pre,s,1.9462240999564528,None,,,,,,,,00064,001,2026-01-20_11h50.51.345,MST_test,2024.2.0,60.059482910336776,2026-01-20 11h50.59.053728 +0530,
33,0,34,s,1.8790310000185855,None,34,0,33,267.3023705999949,,,,,,,,,,,,,,,,,,,,,,,,,,,,,,,,,,,,,,,,,,,,,,,,,,267.2864303000388,267.3023705999949,267.8027597999899,267.7858150000102,267.7956218000036,267.8027597999899,267.8027597999899,267.8027597999899,269.68636150000384,Objects\185b.jpg,pre,s,1.8790310000185855,None,,,,,,,,00064,001,2026-01-20_11h50.51.345,MST_test,2024.2.0,60.059482910336776,2026-01-20 11h50.59.053728 +0530,
34,0,35,s,2.29505600000266,None,35,0,34,269.7023325000191,,,,,,,,,,,,,,,,,,,,,,,,,,,,,,,,,,,,,,,,,,,,,,,,,,269.68646390002687,269.7023325000191,270.2029043000075,270.18600039999,270.19550410000375,270.2029043000075,270.2029043000075,270.2029043000075,272.5030980000156,Objects\309b.jpg,mid,s,2.29505600000266,None,,,,,,,,00064,001,2026-01-20_11h50.51.345,MST_test,2024.2.0,60.059482910336776,2026-01-20 11h50.59.053728 +0530,
35,0,36,o,1.5666604999569245,None,36,0,35,272.5191257999977,,,,,,,,,,,,,,,,,,,,,,,,,,,,,,,,,,,,,,,,,,,,,,,,,,272.5031958000036,272.5191257999977,273.0193753000349,273.00271390000125,273.0053329000366,273.0193753000349,273.0193753000349,273.0193753000349,274.6029198000324,Objects\284a.jpg,mid,o,1.5666604999569245,None,,,,,,,,00064,001,2026-01-20_11h50.51.345,MST_test,2024.2.0,60.059482910336776,2026-01-20 11h50.59.053728 +0530,
36,0,37,s,3.4983463000389747,None,37,0,36,274.6189977999893,,,,,,,,,,,,,,,,,,,,,,,,,,,,,,,,,,,,,,,,,,,,,,,,,,274.60306320001837,274.6189977999893,275.11940110003343,275.10261570004513,275.112453400041,275.11940110003343,275.11940110003343,275.11940110003343,278.6195340999984,Objects\122b.jpg,pre,s,3.4983463000389747,None,,,,,,,,00064,001,2026-01-20_11h50.51.345,MST_test,2024.2.0,60.059482910336776,2026-01-20 11h50.59.053728 +0530,
37,0,38,s,2.050973300007172,None,38,0,37,278.6355775000411,,,,,,,,,,,,,,,,,,,,,,,,,,,,,,,,,,,,,,,,,,,,,,,,,,278.6196246999898,278.6355775000411,279.13595620001433,279.11922360002063,279.12948000000324,279.13595620001433,279.13595620001433,279.13595620001433,281.202972900006,Objects\353b.jpg,pre,s,2.050973300007172,None,,,,,,,,00064,001,2026-01-20_11h50.51.345,MST_test,2024.2.0,60.059482910336776,2026-01-20 11h50.59.053728 +0530,
38,0,39,s,2.7550837000017054,None,39,0,38,281.2189847000409,,,,,,,,,,,,,,,,,,,,,,,,,,,,,,,,,,,,,,,,,,,,,,,,,,281.2030692000408,281.2189847000409,281.7193976000417,281.70264420000603,281.7128466000431,281.7193976000417,281.7193976000417,281.7193976000417,284.4860969000147,Objects\301b.jpg,pre,s,2.7550837000017054,None,,,,,,,,00064,001,2026-01-20_11h50.51.345,MST_test,2024.2.0,60.059482910336776,2026-01-20 11h50.59.053728 +0530,
39,0,40,s,2.7682496000197716,None,40,0,39,284.50238200003514,,,,,,,,,,,,,,,,,,,,,,,,,,,,,,,,,,,,,,,,,,,,,,,,,,284.4861874000053,284.50238200003514,285.00257340003736,284.9858555000392,284.99543360003736,285.00257340003736,285.00257340003736,285.00257340003736,287.7863055000198,Foils\086a.jpg,none,s,2.7682496000197716,None,,,,,,,,00064,001,2026-01-20_11h50.51.345,MST_test,2024.2.0,60.059482910336776,2026-01-20 11h50.59.053728 +0530,
40,0,41,s,2.707995100005064,None,41,0,40,287.8023660000181,,,,,,,,,,,,,,,,,,,,,,,,,,,,,,,,,,,,,,,,,,,,,,,,,,287.7864048000192,287.8023660000181,288.30259320000187,288.28586810000706,288.2951284000301,288.30259320000187,288.30259320000187,288.30259320000187,291.01979320001556,Foils\074a.jpg,none,s,2.707995100005064,None,,,,,,,,00064,001,2026-01-20_11h50.51.345,MST_test,2024.2.0,60.059482910336776,2026-01-20 11h50.59.053728 +0530,
41,0,42,o,3.5054499999969266,None,42,0,41,291.0355770000024,,,,,,,,,,,,,,,,,,,,,,,,,,,,,,,,,,,,,,,,,,,,,,,,,,291.01988610002445,291.0355770000024,291.53610940004,291.519374400028,291.5291210000287,291.53610940004,291.53610940004,291.53610940004,295.0530008000205,Objects\182b.jpg,post,o,3.5054499999969266,None,,,,,,,,00064,001,2026-01-20_11h50.51.345,MST_test,2024.2.0,60.059482910336776,2026-01-20 11h50.59.053728 +0530,
42,0,43,o,1.3127900999970734,None,43,0,42,295.06904930004384,,,,,,,,,,,,,,,,,,,,,,,,,,,,,,,,,,,,,,,,,,,,,,,,,,295.05309780000243,295.06904930004384,295.5692282000091,295.55272310000146,295.55553340003826,295.5692282000091,295.5692282000091,295.5692282000091,296.886338900018,Objects\121a.jpg,pre,o,1.3127900999970734,None,,,,,,,,00064,001,2026-01-20_11h50.51.345,MST_test,2024.2.0,60.059482910336776,2026-01-20 11h50.59.053728 +0530,
43,0,44,s,1.6795850999769755,None,44,0,43,296.90240160003304,,,,,,,,,,,,,,,,,,,,,,,,,,,,,,,,,,,,,,,,,,,,,,,,,,296.8864426999935,296.90240160003304,297.40271330001997,297.3858457999886,297.3953750000219,297.40271330001997,297.40271330001997,297.40271330001997,299.0863020000397,Objects\348b.jpg,mid,s,1.6795850999769755,None,,,,,,,,00064,001,2026-01-20_11h50.51.345,MST_test,2024.2.0,60.059482910336776,2026-01-20 11h50.59.053728 +0530,
44,0,45,n,1.3837028999696486,None,45,0,44,299.10234810004476,,,,,,,,,,,,,,,,,,,,,,,,,,,,,,,,,,,,,,,,,,,,,,,,,,299.0863970000064,299.10234810004476,299.6027446000371,299.58583260001615,299.596795200021,299.6027446000371,299.6027446000371,299.6027446000371,301.00349239999196,Objects\231b.jpg,mid,n,1.3837028999696486,None,,,,,,,,00064,001,2026-01-20_11h50.51.345,MST_test,2024.2.0,60.059482910336776,2026-01-20 11h50.59.053728 +0530,
45,0,46,s,1.714431899948977,None,46,0,45,301.019163799996,,,,,,,,,,,,,,,,,,,,,,,,,,,,,,,,,,,,,,,,,,,,,,,,,,301.00359330000356,301.019163799996,301.51947729999665,301.50274080003146,301.50566960003925,301.51947729999665,301.51947729999665,301.51947729999665,303.23621980001917,Objects\087a.jpg,post,s,1.714431899948977,None,,,,,,,,00064,001,2026-01-20_11h50.51.345,MST_test,2024.2.0,60.059482910336776,2026-01-20 11h50.59.053728 +0530,
46,0,47,s,1.6741069999989122,None,47,0,46,303.25245050003286,,,,,,,,,,,,,,,,,,,,,,,,,,,,,,,,,,,,,,,,,,,,,,,,,,303.2363156999927,303.25245050003286,303.752587200026,303.7358681000187,303.7382378000184,303.752587200026,303.752587200026,303.752587200026,305.4361681000446,Objects\191a.jpg,pre,s,1.6741069999989122,None,,,,,,,,00064,001,2026-01-20_11h50.51.345,MST_test,2024.2.0,60.059482910336776,2026-01-20 11h50.59.053728 +0530,
47,0,48,s,1.5699624000117183,None,48,0,47,305.45238570001675,,,,,,,,,,,,,,,,,,,,,,,,,,,,,,,,,,,,,,,,,,,,,,,,,,305.4362599000451,305.45238570001675,305.95282450004015,305.93599000002723,305.9386661000317,305.95282450004015,305.95282450004015,305.95282450004015,307.5364002000424,Objects\256a.jpg,pre,s,1.5699624000117183,None,,,,,,,,00064,001,2026-01-20_11h50.51.345,MST_test,2024.2.0,60.059482910336776,2026-01-20 11h50.59.053728 +0530,
48,0,49,s,2.1734735000063665,None,49,0,48,307.55239690002054,,,,,,,,,,,,,,,,,,,,,,,,,,,,,,,,,,,,,,,,,,,,,,,,,,307.536490700033,307.55239690002054,308.05275880004046,308.0358039000421,308.03843860002235,308.05275880004046,308.05275880004046,308.05275880004046,310.23615260003135,Objects\239a.jpg,pre,s,2.1734735000063665,None,,,,,,,,00064,001,2026-01-20_11h50.51.345,MST_test,2024.2.0,60.059482910336776,2026-01-20 11h50.59.053728 +0530,
49,0,50,s,2.5132100000046194,None,50,0,49,310.25233640003717,,,,,,,,,,,,,,,,,,,,,,,,,,,,,,,,,,,,,,,,,,,,,,,,,,310.23624699999345,310.25233640003717,310.7527257000329,310.7358404000406,310.74677020002855,310.7527257000329,310.7527257000329,310.7527257000329,313.2696810000343,Objects\365b.jpg,pre,s,2.5132100000046194,None,,,,,,,,00064,001,2026-01-20_11h50.51.345,MST_test,2024.2.0,60.059482910336776,2026-01-20 11h50.59.053728 +0530,
50,0,51,n,1.4165189000195824,None,51,0,50,313.2856907999958,,,,,,,,,,,,,,,,,,,,,,,,,,,,,,,,,,,,,,,,,,,,,,,,,,313.26977100002114,313.2856907999958,313.78599080001004,313.7693985000369,313.77982430002885,313.78599080001004,313.78599080001004,313.78599080001004,315.203199999989,Foils\026a.jpg,none,n,1.4165189000195824,None,,,,,,,,00064,001,2026-01-20_11h50.51.345,MST_test,2024.2.0,60.059482910336776,2026-01-20 11h50.59.053728 +0530,
51,0,52,s,1.3063591999816708,None,52,0,51,315.21905390004395,,,,,,,,,,,,,,,,,,,,,,,,,,,,,,,,,,,,,,,,,,,,,,,,,,315.2032906000386,315.21905390004395,315.7193127000355,315.70265690004453,315.71211610001046,315.7193127000355,315.7193127000355,315.7193127000355,317.03619020001497,Objects\382b.jpg,mid,s,1.3063591999816708,None,,,,,,,,00064,001,2026-01-20_11h50.51.345,MST_test,2024.2.0,60.059482910336776,2026-01-20 11h50.59.053728 +0530,
52,0,53,s,1.5376030000043102,None,53,0,52,317.05239050003,,,,,,,,,,,,,,,,,,,,,,,,,,,,,,,,,,,,,,,,,,,,,,,,,,317.03628110000864,317.05239050003,317.5527990999981,317.5359087000252,317.5388273000135,317.5527990999981,317.5527990999981,317.5527990999981,319.1030862000189,Objects\316a.jpg,mid,s,1.5376030000043102,None,,,,,,,,00064,001,2026-01-20_11h50.51.345,MST_test,2024.2.0,60.059482910336776,2026-01-20 11h50.59.053728 +0530,
53,0,54,s,1.5829326000530273,None,54,0,53,319.11906130000716,,,,,,,,,,,,,,,,,,,,,,,,,,,,,,,,,,,,,,,,,,,,,,,,,,319.1031798000331,319.11906130000716,319.61957830004394,319.6028328000102,319.6129503000411,319.61957830004394,319.61957830004394,319.61957830004394,321.2032846999937,Foils\017a.jpg,none,s,1.5829326000530273,None,,,,,,,,00064,001,2026-01-20_11h50.51.345,MST_test,2024.2.0,60.059482910336776,2026-01-20 11h50.59.053728 +0530,
54,0,55,s,1.9381810000049882,None,55,0,54,321.2191585000255,,,,,,,,,,,,,,,,,,,,,,,,,,,,,,,,,,,,,,,,,,,,,,,,,,321.20337950001704,321.2191585000255,321.7195345000364,321.7027452000184,321.70551940001315,321.7195345000364,321.7195345000364,321.7195345000364,323.6697636000463,Objects\222a.jpg,pre,s,1.9381810000049882,None,,,,,,,,00064,001,2026-01-20_11h50.51.345,MST_test,2024.2.0,60.059482910336776,2026-01-20 11h50.59.053728 +0530,
55,0,56,s,16.727805199974682,None,56,0,55,323.68630040000426,,,,,,,,,,,,,,,,,,,,,,,,,,,,,,,,,,,,,,,,,,,,,,,,,,323.6698536000331,323.68630040000426,324.18604270002106,324.16940070001874,324.178817100008,324.18604270002106,324.18604270002106,324.18604270002106,340.9196781000355,Objects\368b.jpg,mid,s,16.727805199974682,None,,,,,,,,00064,001,2026-01-20_11h50.51.345,MST_test,2024.2.0,60.059482910336776,2026-01-20 11h50.59.053728 +0530,
56,0,57,s,1.046051500015892,None,57,0,56,340.93580060004024,,,,,,,,,,,,,,,,,,,,,,,,,,,,,,,,,,,,,,,,,,,,,,,,,,340.91976910002995,340.93580060004024,341.43622410000535,341.4194083000184,341.43012080003973,341.43622410000535,341.43622410000535,341.43622410000535,342.4864388999995,Foils\042a.jpg,none,s,1.046051500015892,None,,,,,,,,00064,001,2026-01-20_11h50.51.345,MST_test,2024.2.0,60.059482910336776,2026-01-20 11h50.59.053728 +0530,
57,0,58,s,3.943790900055319,None,58,0,57,342.5023835999891,,,,,,,,,,,,,,,,,,,,,,,,,,,,,,,,,,,,,,,,,,,,,,,,,,342.48653960000956,342.5023835999891,343.00263010000344,342.9861560999998,342.98853550001513,343.00263010000344,343.00263010000344,343.00263010000344,346.9530870000017,Objects\334a.jpg,pre,s,3.943790900055319,None,,,,,,,,00064,001,2026-01-20_11h50.51.345,MST_test,2024.2.0,60.059482910336776,2026-01-20 11h50.59.053728 +0530,
58,0,59,s,4.653114499989897,None,59,0,58,346.9691200000234,,,,,,,,,,,,,,,,,,,,,,,,,,,,,,,,,,,,,,,,,,,,,,,,,,346.95317769999383,346.9691200000234,347.46933200000785,347.4527286000084,347.4555420000106,347.46933200000785,347.46933200000785,347.46933200000785,352.1361865000217,Objects\160a.jpg,mid,s,4.653114499989897,None,,,,,,,,00064,001,2026-01-20_11h50.51.345,MST_test,2024.2.0,60.059482910336776,2026-01-20 11h50.59.053728 +0530,
59,0,60,o,1.5733726000180468,None,60,0,59,352.1524139000103,,,,,,,,,,,,,,,,,,,,,,,,,,,,,,,,,,,,,,,,,,,,,,,,,,352.1362831000006,352.1524139000103,352.6525919000269,352.6361108000274,352.63890930003254,352.6525919000269,352.6525919000269,352.6525919000269,354.23624570004176,Objects\056a.jpg,mid,o,1.5733726000180468,None,,,,,,,,00064,001,2026-01-20_11h50.51.345,MST_test,2024.2.0,60.059482910336776,2026-01-20 11h50.59.053728 +0530,
60,0,61,s,2.6491709999972954,None,61,0,60,354.252393200004,,,,,,,,,,,,,,,,,,,,,,,,,,,,,,,,,,,,,,,,,,,,,,,,,,354.23633630003314,354.252393200004,354.75260629999684,354.73593890003394,354.7384595000185,354.75260629999684,354.75260629999684,354.75260629999684,357.40308130002813,Objects\112a.jpg,post,s,2.6491709999972954,None,,,,,,,,00064,001,2026-01-20_11h50.51.345,MST_test,2024.2.0,60.059482910336776,2026-01-20 11h50.59.053728 +0530,
61,0,62,o,1.9148833999643102,None,62,0,61,357.41900709999027,,,,,,,,,,,,,,,,,,,,,,,,,,,,,,,,,,,,,,,,,,,,,,,,,,357.4031725000241,357.41900709999027,357.9192672999925,357.9026508000097,357.9123022000422,357.9192672999925,357.9192672999925,357.9192672999925,359.836302300042,Objects\094b.jpg,post,o,1.9148833999643102,None,,,,,,,,00064,001,2026-01-20_11h50.51.345,MST_test,2024.2.0,60.059482910336776,2026-01-20 11h50.59.053728 +0530,
62,0,63,s,1.3222361999796703,None,63,0,62,359.8523398000398,,,,,,,,,,,,,,,,,,,,,,,,,,,,,,,,,,,,,,,,,,,,,,,,,,359.836391800025,359.8523398000398,360.35256440000376,360.3359703000169,360.3454627000028,360.35256440000376,360.35256440000376,360.35256440000376,361.68646749999607,Objects\125b.jpg,post,s,1.3222361999796703,None,,,,,,,,00064,001,2026-01-20_11h50.51.345,MST_test,2024.2.0,60.059482910336776,2026-01-20 11h50.59.053728 +0530,
63,0,64,s,1.1517860000021756,None,64,0,63,361.70253140002023,,,,,,,,,,,,,,,,,,,,,,,,,,,,,,,,,,,,,,,,,,,,,,,,,,361.6865678000031,361.70253140002023,362.20271660003345,362.18583860003855,362.18848609999986,362.20271660003345,362.20271660003345,362.20271660003345,363.3696953000035,Objects\292a.jpg,mid,s,1.1517860000021756,None,,,,,,,,00064,001,2026-01-20_11h50.51.345,MST_test,2024.2.0,60.059482910336776,2026-01-20 11h50.59.053728 +0530,
64,0,65,o,1.8118665000074543,None,65,0,64,363.3856175999972,,,,,,,,,,,,,,,,,,,,,,,,,,,,,,,,,,,,,,,,,,,,,,,,,,363.3697890000185,363.3856175999972,363.8861746999901,363.86941839999054,363.8791642000433,363.8861746999901,363.8861746999901,363.8861746999901,365.70308480004314,Objects\049b.jpg,pre,o,1.8118665000074543,None,,,,,,,,00064,001,2026-01-20_11h50.51.345,MST_test,2024.2.0,60.059482910336776,2026-01-20 11h50.59.053728 +0530,
65,0,66,s,1.4222402999876067,None,66,0,65,365.7190442000283,,,,,,,,,,,,,,,,,,,,,,,,,,,,,,,,,,,,,,,,,,,,,,,,,,365.7031780999969,365.7190442000283,366.21942440001294,366.202660800016,366.20522290002555,366.21942440001294,366.21942440001294,366.21942440001294,367.6529547999962,Objects\041a.jpg,mid,s,1.4222402999876067,None,,,,,,,,00064,001,2026-01-20_11h50.51.345,MST_test,2024.2.0,60.059482910336776,2026-01-20 11h50.59.053728 +0530,
66,0,67,s,1.1696572999935597,None,67,0,66,367.66904599999543,,,,,,,,,,,,,,,,,,,,,,,,,,,,,,,,,,,,,,,,,,,,,,,,,,367.653049000015,367.66904599999543,368.16934820002643,368.15279790002387,368.1627238999936,368.16934820002643,368.16934820002643,368.16934820002643,369.3530864000204,Objects\062b.jpg,mid,s,1.1696572999935597,None,,,,,,,,00064,001,2026-01-20_11h50.51.345,MST_test,2024.2.0,60.059482910336776,2026-01-20 11h50.59.053728 +0530,
67,0,68,o,1.0292486000107601,None,68,0,67,369.36901110003237,,,,,,,,,,,,,,,,,,,,,,,,,,,,,,,,,,,,,,,,,,,,,,,,,,369.35318199999165,369.36901110003237,369.8694992000237,369.85266999999294,369.8554569000262,369.8694992000237,369.8694992000237,369.8694992000237,370.9031570000225,Objects\221a.jpg,mid,o,1.0292486000107601,None,,,,,,,,00064,001,2026-01-20_11h50.51.345,MST_test,2024.2.0,60.059482910336776,2026-01-20 11h50.59.053728 +0530,
68,0,69,o,1.3982082000002265,None,69,0,68,370.9190647000214,,,,,,,,,,,,,,,,,,,,,,,,,,,,,,,,,,,,,,,,,,,,,,,,,,370.9032533999998,370.9190647000214,371.4194138000021,371.40266830002656,371.41404220002005,371.4194138000021,371.4194138000021,371.4194138000021,372.8197451000451,Objects\341b.jpg,post,o,1.3982082000002265,None,,,,,,,,00064,001,2026-01-20_11h50.51.345,MST_test,2024.2.0,60.059482910336776,2026-01-20 11h50.59.053728 +0530,
69,0,70,o,1.3296358999796212,None,70,0,69,372.83559690002585,,,,,,,,,,,,,,,,,,,,,,,,,,,,,,,,,,,,,,,,,,,,,,,,,,372.8198384999996,372.83559690002585,373.3360073000076,373.31954500003485,373.3237427000422,373.3360073000076,373.3360073000076,373.3360073000076,374.66969230002724,Objects\330a.jpg,pre,o,1.3296358999796212,None,,,,,,,,00064,001,2026-01-20_11h50.51.345,MST_test,2024.2.0,60.059482910336776,2026-01-20 11h50.59.053728 +0530,
70,0,71,s,4.768036799971014,None,71,0,70,374.68596979998983,,,,,,,,,,,,,,,,,,,,,,,,,,,,,,,,,,,,,,,,,,,,,,,,,,374.66978330002166,374.68596979998983,375.1860436000279,375.1695105000399,375.17971460003173,375.1860436000279,375.1860436000279,375.1860436000279,379.9695608000038,Foils\073a.jpg,none,s,4.768036799971014,None,,,,,,,,00064,001,2026-01-20_11h50.51.345,MST_test,2024.2.0,60.059482910336776,2026-01-20 11h50.59.053728 +0530,
71,0,72,n,2.1319453999749385,None,72,0,71,379.9856732999906,,,,,,,,,,,,,,,,,,,,,,,,,,,,,,,,,,,,,,,,,,,,,,,,,,379.9696569000371,379.9856732999906,380.4857387000229,380.4693096000119,380.4790695999982,380.4857387000229,380.4857387000229,380.4857387000229,382.6196959000081,Foils\097a.jpg,none,n,2.1319453999749385,None,,,,,,,,00064,001,2026-01-20_11h50.51.345,MST_test,2024.2.0,60.059482910336776,2026-01-20 11h50.59.053728 +0530,
72,0,73,s,7.097955400007777,None,73,0,72,382.63557610003045,,,,,,,,,,,,,,,,,,,,,,,,,,,,,,,,,,,,,,,,,,,,,,,,,,382.619786700001,382.63557610003045,383.13596079999115,383.11930610000854,383.12918170000194,383.13596079999115,383.13596079999115,383.13596079999115,390.2362823000294,Objects\370b.jpg,post,s,7.097955400007777,None,,,,,,,,00064,001,2026-01-20_11h50.51.345,MST_test,2024.2.0,60.059482910336776,2026-01-20 11h50.59.053728 +0530,
73,0,74,s,1.473027500032913,None,74,0,73,390.252399399993,,,,,,,,,,,,,,,,,,,,,,,,,,,,,,,,,,,,,,,,,,,,,,,,,,390.236378600006,390.252399399993,390.7526889000437,390.7359105999931,390.7457623000373,390.7526889000437,390.7526889000437,390.7526889000437,392.23615980002796,Foils\057a.jpg,none,s,1.473027500032913,None,,,,,,,,00064,001,2026-01-20_11h50.51.345,MST_test,2024.2.0,60.059482910336776,2026-01-20 11h50.59.053728 +0530,
74,0,75,s,3.962009400012903,None,75,0,74,392.25241330004064,,,,,,,,,,,,,,,,,,,,,,,,,,,,,,,,,,,,,,,,,,,,,,,,,,392.2362487000064,392.25241330004064,392.7526527000009,392.7359160000342,392.74534560000757,392.7526527000009,392.7526527000009,392.7526527000009,396.7197321000276,Objects\164b.jpg,mid,s,3.962009400012903,None,,,,,,,,00064,001,2026-01-20_11h50.51.345,MST_test,2024.2.0,60.059482910336776,2026-01-20 11h50.59.053728 +0530,
75,0,76,n,2.494652099965606,None,76,0,75,396.7356118000462,,,,,,,,,,,,,,,,,,,,,,,,,,,,,,,,,,,,,,,,,,,,,,,,,,396.7198255000403,396.7356118000462,397.23605920001864,397.2192473000032,397.2281143,397.23605920001864,397.23605920001864,397.23605920001864,399.7363657000242,Foils\f7.jpg,none,n,2.494652099965606,None,,,,,,,,00064,001,2026-01-20_11h50.51.345,MST_test,2024.2.0,60.059482910336776,2026-01-20 11h50.59.053728 +0530,
76,0,77,o,1.6300050999852829,None,77,0,76,399.7524336000206,,,,,,,,,,,,,,,,,,,,,,,,,,,,,,,,,,,,,,,,,,,,,,,,,,399.7364610999939,399.7524336000206,400.2527169000241,400.2359445000184,400.2394346999936,400.2527169000241,400.2527169000241,400.2527169000241,401.88637419999577,Objects\173a.jpg,post,o,1.6300050999852829,None,,,,,,,,00064,001,2026-01-20_11h50.51.345,MST_test,2024.2.0,60.059482910336776,2026-01-20 11h50.59.053728 +0530,
77,0,78,o,1.3918308999855071,None,78,0,77,401.9024109999882,,,,,,,,,,,,,,,,,,,,,,,,,,,,,,,,,,,,,,,,,,,,,,,,,,401.8864676000085,401.9024109999882,402.4026835000259,402.38612229999853,402.38914310000837,402.4026835000259,402.4026835000259,402.4026835000259,403.80296840000665,Objects\090a.jpg,post,o,1.3918308999855071,None,,,,,,,,00064,001,2026-01-20_11h50.51.345,MST_test,2024.2.0,60.059482910336776,2026-01-20 11h50.59.053728 +0530,
78,0,79,s,1.4270850999746472,None,79,0,78,403.8190843000193,,,,,,,,,,,,,,,,,,,,,,,,,,,,,,,,,,,,,,,,,,,,,,,,,,403.80305580003187,403.8190843000193,404.31930870004,404.3028134999913,404.3121417000075,404.31930870004,404.31930870004,404.31930870004,405.75293150002835,Objects\181b.jpg,mid,s,1.4270850999746472,None,,,,,,,,00064,001,2026-01-20_11h50.51.345,MST_test,2024.2.0,60.059482910336776,2026-01-20 11h50.59.053728 +0530,
79,0,80,s,1.2375564000103623,None,80,0,79,405.76908380002715,,,,,,,,,,,,,,,,,,,,,,,,,,,,,,,,,,,,,,,,,,,,,,,,,,405.75302180001745,405.76908380002715,406.26947290002136,406.25269450002816,406.2641969000106,406.26947290002136,406.26947290002136,406.26947290002136,407.51991900004214,Objects\326b.jpg,mid,s,1.2375564000103623,None,,,,,,,,00064,001,2026-01-20_11h50.51.345,MST_test,2024.2.0,60.059482910336776,2026-01-20 11h50.59.053728 +0530,
80,0,81,s,0.8868675999692641,None,81,0,80,407.53568600001745,,,,,,,,,,,,,,,,,,,,,,,,,,,,,,,,,,,,,,,,,,,,,,,,,,407.5200199999963,407.53568600001745,408.0360005000257,408.01936120004393,408.02951750002103,408.0360005000257,408.0360005000257,408.0360005000257,408.93615660001524,Objects\142b.jpg,post,s,0.8868675999692641,None,,,,,,,,00064,001,2026-01-20_11h50.51.345,MST_test,2024.2.0,60.059482910336776,2026-01-20 11h50.59.053728 +0530,
81,0,82,o,1.245002600015141,None,82,0,81,408.95245790004265,,,,,,,,,,,,,,,,,,,,,,,,,,,,,,,,,,,,,,,,,,,,,,,,,,408.93625020002946,408.95245790004265,409.45287700003246,409.4358677000273,409.4389406000264,409.45287700003246,409.45287700003246,409.45287700003246,410.7029822000186,Objects\359a.jpg,mid,o,1.245002600015141,None,,,,,,,,00064,001,2026-01-20_11h50.51.345,MST_test,2024.2.0,60.059482910336776,2026-01-20 11h50.59.053728 +0530,
82,0,83,s,1.8146829000324942,None,83,0,82,410.71902540000156,,,,,,,,,,,,,,,,,,,,,,,,,,,,,,,,,,,,,,,,,,,,,,,,,,410.7030769000412,410.71902540000156,411.2194475000142,411.20271610002965,411.2053857000428,411.2194475000142,411.2194475000142,411.2194475000142,413.03630540001905,Objects\069a.jpg,pre,s,1.8146829000324942,None,,,,,,,,00064,001,2026-01-20_11h50.51.345,MST_test,2024.2.0,60.059482910336776,2026-01-20 11h50.59.053728 +0530,
83,0,84,s,1.1375569999800064,None,84,0,83,413.0523777999915,,,,,,,,,,,,,,,,,,,,,,,,,,,,,,,,,,,,,,,,,,,,,,,,,,413.03640060004545,413.0523777999915,413.55278420000104,413.5359637000365,413.54580970003735,413.55278420000104,413.55278420000104,413.55278420000104,414.70289559999947,Objects\080b.jpg,mid,s,1.1375569999800064,None,,,,,,,,00064,001,2026-01-20_11h50.51.345,MST_test,2024.2.0,60.059482910336776,2026-01-20 11h50.59.053728 +0530,
84,0,85,s,1.0710036999662407,None,85,0,84,414.71908230002737,,,,,,,,,,,,,,,,,,,,,,,,,,,,,,,,,,,,,,,,,,,,,,,,,,414.7029848000384,414.71908230002737,415.2193106000195,415.20271710003726,415.2119316000026,415.2193106000195,415.2193106000195,415.2193106000195,416.3029012000188,Objects\021b.jpg,post,s,1.0710036999662407,None,,,,,,,,00064,001,2026-01-20_11h50.51.345,MST_test,2024.2.0,60.059482910336776,2026-01-20 11h50.59.053728 +0530,
85,0,86,s,1.2147538000135683,None,86,0,85,416.31908260000637,,,,,,,,,,,,,,,,,,,,,,,,,,,,,,,,,,,,,,,,,,,,,,,,,,416.30299090000335,416.31908260000637,416.8192241000361,416.8026658000308,416.8053535000072,416.8192241000361,416.8192241000361,416.8192241000361,418.03635090001626,Objects\082a.jpg,pre,s,1.2147538000135683,None,,,,,,,,00064,001,2026-01-20_11h50.51.345,MST_test,2024.2.0,60.059482910336776,2026-01-20 11h50.59.053728 +0530,
86,0,87,o,1.129467700025998,None,87,0,86,418.0524125000229,,,,,,,,,,,,,,,,,,,,,,,,,,,,,,,,,,,,,,,,,,,,,,,,,,418.0364475999959,418.0524125000229,418.55262560001574,418.53593930002535,418.5392790000187,418.55262560001574,418.55262560001574,418.55262560001574,419.6863878000295,Objects\285a.jpg,post,o,1.129467700025998,None,,,,,,,,00064,001,2026-01-20_11h50.51.345,MST_test,2024.2.0,60.059482910336776,2026-01-20 11h50.59.053728 +0530,
87,0,88,s,1.9434985999832861,None,88,0,87,419.702344099991,,,,,,,,,,,,,,,,,,,,,,,,,,,,,,,,,,,,,,,,,,,,,,,,,,419.686477500014,419.702344099991,420.20261780003784,420.1859979000292,420.1885992999887,420.20261780003784,420.20261780003784,420.20261780003784,422.15295600000536,Objects\028a.jpg,post,s,1.9434985999832861,None,,,,,,,,00064,001,2026-01-20_11h50.51.345,MST_test,2024.2.0,60.059482910336776,2026-01-20 11h50.59.053728 +0530,
88,0,89,s,1.1404938000487164,None,89,0,88,422.16911320004147,,,,,,,,,,,,,,,,,,,,,,,,,,,,,,,,,,,,,,,,,,,,,,,,,,422.1530441000359,422.16911320004147,422.6694411000353,422.6528859999962,422.66296819999116,422.6694411000353,422.6694411000353,422.6694411000353,423.8197472000029,Objects\008b.jpg,mid,s,1.1404938000487164,None,,,,,,,,00064,001,2026-01-20_11h50.51.345,MST_test,2024.2.0,60.059482910336776,2026-01-20 11h50.59.053728 +0530,
89,0,90,s,1.1780163000221364,None,90,0,89,423.8356857000035,,,,,,,,,,,,,,,,,,,,,,,,,,,,,,,,,,,,,,,,,,,,,,,,,,423.8198360000388,423.8356857000035,424.33590679999907,424.31988260004437,424.32227639999473,424.33590679999907,424.33590679999907,424.33590679999907,425.5197421000339,Objects\175a.jpg,mid,s,1.1780163000221364,None,,,,,,,,00064,001,2026-01-20_11h50.51.345,MST_test,2024.2.0,60.059482910336776,2026-01-20 11h50.59.053728 +0530,
90,0,91,o,1.6059167999774218,None,91,0,90,425.5356548000127,,,,,,,,,,,,,,,,,,,,,,,,,,,,,,,,,,,,,,,,,,,,,,,,,,425.5198334000306,425.5356548000127,426.03591630002484,426.0193667000276,426.0219919999945,426.03591630002484,426.03591630002484,426.03591630002484,427.6533061999944,Objects\059a.jpg,pre,o,1.6059167999774218,None,,,,,,,,00064,001,2026-01-20_11h50.51.345,MST_test,2024.2.0,60.059482910336776,2026-01-20 11h50.59.053728 +0530,
91,0,92,s,2.0487998999888077,None,92,0,91,427.6690207000356,,,,,,,,,,,,,,,,,,,,,,,,,,,,,,,,,,,,,,,,,,,,,,,,,,427.653398800001,427.6690207000356,428.1693050999893,428.1526842000312,428.1626959000132,428.1693050999893,428.1693050999893,428.1693050999893,430.2197182000382,Objects\036b.jpg,mid,s,2.0487998999888077,None,,,,,,,,00064,001,2026-01-20_11h50.51.345,MST_test,2024.2.0,60.059482910336776,2026-01-20 11h50.59.053728 +0530,
92,0,93,s,2.7231036000302993,None,93,0,92,430.23568690003594,,,,,,,,,,,,,,,,,,,,,,,,,,,,,,,,,,,,,,,,,,,,,,,,,,430.21981270000106,430.23568690003594,430.735970800044,430.71966110001085,430.7222350999946,430.735970800044,430.735970800044,430.735970800044,433.46972290001577,Objects\172a.jpg,pre,s,2.7231036000302993,None,,,,,,,,00064,001,2026-01-20_11h50.51.345,MST_test,2024.2.0,60.059482910336776,2026-01-20 11h50.59.053728 +0530,
93,0,94,s,1.4160262999939732,None,94,0,93,433.48562089999905,,,,,,,,,,,,,,,,,,,,,,,,,,,,,,,,,,,,,,,,,,,,,,,,,,433.46981560002314,433.48562089999905,433.98612509999657,433.96935140003916,433.9800014999928,433.98612509999657,433.98612509999657,433.98612509999657,435.40297019999707,Objects\299b.jpg,pre,s,1.4160262999939732,None,,,,,,,,00064,001,2026-01-20_11h50.51.345,MST_test,2024.2.0,60.059482910336776,2026-01-20 11h50.59.053728 +0530,
94,0,95,n,2.2028653000015765,None,95,0,94,435.4190920999972,,,,,,,,,,,,,,,,,,,,,,,,,,,,,,,,,,,,,,,,,,,,,,,,,,435.40305850002915,435.4190920999972,435.9194314000197,435.90270870004315,435.91270119999535,435.9194314000197,435.9194314000197,435.9194314000197,438.13631090003764,Foils\034a.jpg,none,n,2.2028653000015765,None,,,,,,,,00064,001,2026-01-20_11h50.51.345,MST_test,2024.2.0,60.059482910336776,2026-01-20 11h50.59.053728 +0530,
95,0,96,s,5.2869275999837555,None,96,0,95,438.15236820001155,,,,,,,,,,,,,,,,,,,,,,,,,,,,,,,,,,,,,,,,,,,,,,,,,,438.1363989000092,438.15236820001155,438.65267089998815,438.63625989999855,438.6390436000074,438.65267089998815,438.65267089998815,438.65267089998815,443.9531310000457,Objects\171a.jpg,post,s,5.2869275999837555,None,,,,,,,,00064,001,2026-01-20_11h50.51.345,MST_test,2024.2.0,60.059482910336776,2026-01-20 11h50.59.053728 +0530,
96,0,97,s,1.4522467000060715,None,97,0,96,443.9692579000257,,,,,,,,,,,,,,,,,,,,,,,,,,,,,,,,,,,,,,,,,,,,,,,,,,443.95322140003555,443.9692579000257,444.4694465000066,444.4527069000178,444.46321700001135,444.4694465000066,444.4694465000066,444.4694465000066,445.93627480004216,Objects\137b.jpg,post,s,1.4522467000060715,None,,,,,,,,00064,001,2026-01-20_11h50.51.345,MST_test,2024.2.0,60.059482910336776,2026-01-20 11h50.59.053728 +0530,
97,0,98,s,1.157520900014788,None,98,0,97,445.95254790002946,,,,,,,,,,,,,,,,,,,,,,,,,,,,,,,,,,,,,,,,,,,,,,,,,,445.936363100016,445.95254790002946,446.4527333000442,446.4361833000439,446.44602650002344,446.4527333000442,446.4527333000442,446.4527333000442,447.6199564000126,Objects\192b.jpg,mid,s,1.157520900014788,None,,,,,,,,00064,001,2026-01-20_11h50.51.345,MST_test,2024.2.0,60.059482910336776,2026-01-20 11h50.59.053728 +0530,
98,0,99,o,1.8827597000054084,None,99,0,98,447.6359020000091,,,,,,,,,,,,,,,,,,,,,,,,,,,,,,,,,,,,,,,,,,,,,,,,,,447.6200498000253,447.6359020000091,448.135920300032,448.11944969999604,448.1218492999906,448.135920300032,448.135920300032,448.135920300032,450.02005920000374,Objects\141a.jpg,post,o,1.8827597000054084,None,,,,,,,,00064,001,2026-01-20_11h50.51.345,MST_test,2024.2.0,60.059482910336776,2026-01-20 11h50.59.053728 +0530,
99,0,100,o,3.018109299999196,None,100,0,99,450.0359666000004,,,,,,,,,,,,,,,,,,,,,,,,,,,,,,,,,,,,,,,,,,,,,,,,,,450.0201558000408,450.0359666000004,450.53612920001615,450.51956089999294,450.5220530999941,450.53612920001615,450.53612920001615,450.53612920001615,453.569721100037,Objects\276a.jpg,post,o,3.018109299999196,None,,,,,,,,00064,001,2026-01-20_11h50.51.345,MST_test,2024.2.0,60.059482910336776,2026-01-20 11h50.59.053728 +0530,
100,0,101,s,1.3403527000336908,None,101,0,100,453.5858605999965,,,,,,,,,,,,,,,,,,,,,,,,,,,,,,,,,,,,,,,,,,,,,,,,,,453.56981409998843,453.5858605999965,454.08617930003675,454.06948290002765,454.0729345,454.08617930003675,454.08617930003675,454.08617930003675,455.43644140003016,Objects\324a.jpg,mid,s,1.3403527000336908,None,,,,,,,,00064,001,2026-01-20_11h50.51.345,MST_test,2024.2.0,60.059482910336776,2026-01-20 11h50.59.053728 +0530,
101,0,102,s,0.9211803000071086,None,102,0,101,455.4525072000106,,,,,,,,,,,,,,,,,,,,,,,,,,,,,,,,,,,,,,,,,,,,,,,,,,455.4365319000208,455.4525072000106,455.9529082000372,455.93609370000195,455.9457330000005,455.9529082000372,455.9529082000372,455.9529082000372,456.88649850001093,Objects\208b.jpg,post,s,0.9211803000071086,None,,,,,,,,00064,001,2026-01-20_11h50.51.345,MST_test,2024.2.0,60.059482910336776,2026-01-20 11h50.59.053728 +0530,
102,0,103,n,1.1673687000293285,None,103,0,102,456.9025396000361,,,,,,,,,,,,,,,,,,,,,,,,,,,,,,,,,,,,,,,,,,,,,,,,,,456.88658799999394,456.9025396000361,457.4028474999941,457.38609720004024,457.3962921000202,457.4028474999941,457.4028474999941,457.4028474999941,458.5864644999965,Foils\081a.jpg,none,n,1.1673687000293285,None,,,,,,,,00064,001,2026-01-20_11h50.51.345,MST_test,2024.2.0,60.059482910336776,2026-01-20 11h50.59.053728 +0530,
103,0,104,n,2.044266000040807,None,104,0,103,458.6024507000111,,,,,,,,,,,,,,,,,,,,,,,,,,,,,,,,,,,,,,,,,,,,,,,,,,458.5865546000423,458.6024507000111,459.1027130000293,459.0860948000336,459.0954793000128,459.1027130000293,459.1027130000293,459.1027130000293,461.1531001999974,Foils\058a.jpg,none,n,2.044266000040807,None,,,,,,,,00064,001,2026-01-20_11h50.51.345,MST_test,2024.2.0,60.059482910336776,2026-01-20 11h50.59.053728 +0530,
104,0,105,o,1.3484096000320278,None,105,0,104,461.16919680003775,,,,,,,,,,,,,,,,,,,,,,,,,,,,,,,,,,,,,,,,,,,,,,,,,,461.15319169999566,461.16919680003775,461.6695347999921,461.6527909000288,461.6621285000001,461.6695347999921,461.6695347999921,461.6695347999921,463.0197255000239,Objects\251b.jpg,pre,o,1.3484096000320278,None,,,,,,,,00064,001,2026-01-20_11h50.51.345,MST_test,2024.2.0,60.059482910336776,2026-01-20 11h50.59.053728 +0530,
105,0,106,s,2.530114000022877,None,106,0,105,463.03584870003397,,,,,,,,,,,,,,,,,,,,,,,,,,,,,,,,,,,,,,,,,,,,,,,,,,463.019815800013,463.03584870003397,463.53611450002063,463.5194526000414,463.5225262999884,463.53611450002063,463.53611450002063,463.53611450002063,466.069769099995,Objects\031a.jpg,post,s,2.530114000022877,None,,,,,,,,00064,001,2026-01-20_11h50.51.345,MST_test,2024.2.0,60.059482910336776,2026-01-20 11h50.59.053728 +0530,
106,0,107,o,1.319777900003828,None,107,0,106,466.0858624000102,,,,,,,,,,,,,,,,,,,,,,,,,,,,,,,,,,,,,,,,,,,,,,,,,,466.06986280001,466.0858624000102,466.58612079999875,466.5695324999979,466.5795846999972,466.58612079999875,466.58612079999875,466.58612079999875,467.91972360003274,Objects\071b.jpg,pre,o,1.319777900003828,None,,,,,,,,00064,001,2026-01-20_11h50.51.345,MST_test,2024.2.0,60.059482910336776,2026-01-20 11h50.59.053728 +0530,
107,0,108,s,1.303018799982965,None,108,0,107,467.9358203000156,,,,,,,,,,,,,,,,,,,,,,,,,,,,,,,,,,,,,,,,,,,,,,,,,,467.9198148000287,467.9358203000156,468.4361047000275,468.41938179999124,468.4286553999991,468.4361047000275,468.4361047000275,468.4361047000275,469.7533024000004,Objects\076b.jpg,mid,s,1.303018799982965,None,,,,,,,,00064,001,2026-01-20_11h50.51.345,MST_test,2024.2.0,60.059482910336776,2026-01-20 11h50.59.053728 +0530,
108,0,109,s,1.1970090999966487,None,109,0,108,469.76910110004246,,,,,,,,,,,,,,,,,,,,,,,,,,,,,,,,,,,,,,,,,,,,,,,,,,469.7534022000036,469.76910110004246,470.26949410000816,470.252803600044,470.2553640000406,470.26949410000816,470.26949410000816,470.26949410000816,471.4698225000175,Objects\258a.jpg,mid,s,1.1970090999966487,None,,,,,,,,00064,001,2026-01-20_11h50.51.345,MST_test,2024.2.0,60.059482910336776,2026-01-20 11h50.59.053728 +0530,
109,0,110,o,2.088326499972027,None,110,0,109,471.485856000043,,,,,,,,,,,,,,,,,,,,,,,,,,,,,,,,,,,,,,,,,,,,,,,,,,471.4699110999936,471.485856000043,471.98596399999224,471.9695753999986,471.97264580003684,471.98596399999224,471.98596399999224,471.98596399999224,474.0864412999945,Objects\235a.jpg,pre,o,2.088326499972027,None,,,,,,,,00064,001,2026-01-20_11h50.51.345,MST_test,2024.2.0,60.059482910336776,2026-01-20 11h50.59.053728 +0530,
110,0,111,s,2.4479625000385568,None,111,0,110,474.10245320003014,,,,,,,,,,,,,,,,,,,,,,,,,,,,,,,,,,,,,,,,,,,,,,,,,,474.08653219998814,474.10245320003014,474.6029729000293,474.58630399999674,474.5964658000157,474.6029729000293,474.6029729000293,474.6029729000293,477.05352539999876,Objects\136b.jpg,pre,s,2.4479625000385568,None,,,,,,,,00064,001,2026-01-20_11h50.51.345,MST_test,2024.2.0,60.059482910336776,2026-01-20 11h50.59.053728 +0530,
111,0,112,s,0.9294781000353396,None,112,0,111,477.0693095999886,,,,,,,,,,,,,,,,,,,,,,,,,,,,,,,,,,,,,,,,,,,,,,,,,,477.05362300004344,477.0693095999886,477.5692825000151,477.5527959000319,477.562139799993,477.5692825000151,477.5692825000151,477.5692825000151,478.5031580000068,Objects\138b.jpg,mid,s,0.9294781000353396,None,,,,,,,,00064,001,2026-01-20_11h50.51.345,MST_test,2024.2.0,60.059482910336776,2026-01-20 11h50.59.053728 +0530,
112,0,113,s,1.4942196999909356,None,113,0,112,478.5192104000016,,,,,,,,,,,,,,,,,,,,,,,,,,,,,,,,,,,,,,,,,,,,,,,,,,478.50325650000013,478.5192104000016,479.01944270002423,479.0028167000273,479.01254780002637,479.01944270002423,479.01944270002423,479.01944270002423,480.51983130001463,Foils\101b.jpg,none,s,1.4942196999909356,None,,,,,,,,00064,001,2026-01-20_11h50.51.345,MST_test,2024.2.0,60.059482910336776,2026-01-20 11h50.59.053728 +0530,
113,0,114,s,1.1261794000165537,None,114,0,113,480.5359162000241,,,,,,,,,,,,,,,,,,,,,,,,,,,,,,,,,,,,,,,,,,,,,,,,,,480.5199227000121,480.5359162000241,481.0361499999999,481.0195692999987,481.02222210000036,481.0361499999999,481.0361499999999,481.0361499999999,482.1697186999954,Objects\073a.jpg,pre,s,1.1261794000165537,None,,,,,,,,00064,001,2026-01-20_11h50.51.345,MST_test,2024.2.0,60.059482910336776,2026-01-20 11h50.59.053728 +0530,
114,0,115,s,1.7011765000061132,None,115,0,114,482.1858578000101,,,,,,,,,,,,,,,,,,,,,,,,,,,,,,,,,,,,,,,,,,,,,,,,,,482.169810899999,482.1858578000101,482.6859384000418,482.66959549998865,482.6800846999977,482.6859384000418,482.6859384000418,482.6859384000418,484.403136500041,Foils\121a.jpg,none,s,1.7011765000061132,None,,,,,,,,00064,001,2026-01-20_11h50.51.345,MST_test,2024.2.0,60.059482910336776,2026-01-20 11h50.59.053728 +0530,
115,0,116,s,2.3864828000077978,None,116,0,115,484.4191446999903,,,,,,,,,,,,,,,,,,,,,,,,,,,,,,,,,,,,,,,,,,,,,,,,,,484.40322620002553,484.4191446999903,484.91942910000216,484.9028511000215,484.9125490000006,484.91942910000216,484.91942910000216,484.91942910000216,487.31966530001955,Objects\132b.jpg,mid,s,2.3864828000077978,None,,,,,,,,00064,001,2026-01-20_11h50.51.345,MST_test,2024.2.0,60.059482910336776,2026-01-20 11h50.59.053728 +0530,
116,0,117,o,1.5975381000316702,None,117,0,116,487.33584090002114,,,,,,,,,,,,,,,,,,,,,,,,,,,,,,,,,,,,,,,,,,,,,,,,,,487.31975900003454,487.33584090002114,487.8361155000166,487.8195682000369,487.8230803000042,487.8361155000166,487.8361155000166,487.8361155000166,489.43635470001027,Objects\288a.jpg,post,o,1.5975381000316702,None,,,,,,,,00064,001,2026-01-20_11h50.51.345,MST_test,2024.2.0,60.059482910336776,2026-01-20 11h50.59.053728 +0530,
117,0,118,s,2.5528019000194035,None,118,0,117,489.45253210002556,,,,,,,,,,,,,,,,,,,,,,,,,,,,,,,,,,,,,,,,,,,,,,,,,,489.43644530000165,489.45253210002556,489.9529155000346,489.9360788000049,489.9485210000421,489.9529155000346,489.9529155000346,489.9529155000346,492.51985500002047,Objects\384b.jpg,pre,s,2.5528019000194035,None,,,,,,,,00064,001,2026-01-20_11h50.51.345,MST_test,2024.2.0,60.059482910336776,2026-01-20 11h50.59.053728 +0530,
118,0,119,s,4.0937403999851085,None,119,0,118,492.5357881000382,,,,,,,,,,,,,,,,,,,,,,,,,,,,,,,,,,,,,,,,,,,,,,,,,,492.51994690002175,492.5357881000382,493.0361025999882,493.0197695000097,493.0327534000389,493.0361025999882,493.0361025999882,493.0361025999882,497.1364506999962,Foils\033a.jpg,none,s,4.0937403999851085,None,,,,,,,,00064,001,2026-01-20_11h50.51.345,MST_test,2024.2.0,60.059482910336776,2026-01-20 11h50.59.053728 +0530,
119,0,120,o,1.4051820000167936,None,120,0,119,497.1525956999976,,,,,,,,,,,,,,,,,,,,,,,,,,,,,,,,,,,,,,,,,,,,,,,,,,497.13654010003665,497.1525956999976,497.6527582000126,497.63619749998907,497.63926040002843,497.6527582000126,497.6527582000126,497.6527582000126,499.06963660003385,Objects\099a.jpg,pre,o,1.4051820000167936,None,,,,,,,,00064,001,2026-01-20_11h50.51.345,MST_test,2024.2.0,60.059482910336776,2026-01-20 11h50.59.053728 +0530,
120,0,121,o,1.208503500034567,None,121,0,120,499.0857029000181,,,,,,,,,,,,,,,,,,,,,,,,,,,,,,,,,,,,,,,,,,,,,,,,,,499.0697286000359,499.0857029000181,499.58597080002073,499.5693029999966,499.5726089000236,499.58597080002073,499.58597080002073,499.58597080002073,500.8031246000319,Objects\336a.jpg,post,o,1.208503500034567,None,,,,,,,,00064,001,2026-01-20_11h50.51.345,MST_test,2024.2.0,60.059482910336776,2026-01-20 11h50.59.053728 +0530,
121,0,122,s,6.106776600005105,None,122,0,121,500.8191438000067,,,,,,,,,,,,,,,,,,,,,,,,,,,,,,,,,,,,,,,,,,,,,,,,,,500.8032175000408,500.8191438000067,501.3195030000061,501.30262950004544,501.3127427000436,501.3195030000061,501.3195030000061,501.3195030000061,507.43629959999816,Objects\014b.jpg,post,s,6.106776600005105,None,,,,,,,,00064,001,2026-01-20_11h50.51.345,MST_test,2024.2.0,60.059482910336776,2026-01-20 11h50.59.053728 +0530,
122,0,123,s,1.0567543999641202,None,123,0,122,507.45236580003984,,,,,,,,,,,,,,,,,,,,,,,,,,,,,,,,,,,,,,,,,,,,,,,,,,507.4363872000249,507.45236580003984,507.9530858999933,507.9359461000422,507.94701300002635,507.9530858999933,507.9530858999933,507.9530858999933,509.0199382000137,Objects\240b.jpg,mid,s,1.0567543999641202,None,,,,,,,,00064,001,2026-01-20_11h50.51.345,MST_test,2024.2.0,60.059482910336776,2026-01-20 11h50.59.053728 +0530,
123,0,124,o,1.898168500047177,None,124,0,123,509.03567130002193,,,,,,,,,,,,,,,,,,,,,,,,,,,,,,,,,,,,,,,,,,,,,,,,,,509.0200391000253,509.03567130002193,509.5362851000391,509.5193545999937,509.52969980001217,509.5362851000391,509.5362851000391,509.5362851000391,511.4361171000055,Foils\106a.jpg,none,o,1.898168500047177,None,,,,,,,,00064,001,2026-01-20_11h50.51.345,MST_test,2024.2.0,60.059482910336776,2026-01-20 11h50.59.053728 +0530,
124,0,125,s,1.0252039000042714,None,125,0,124,511.4524507999886,,,,,,,,,,,,,,,,,,,,,,,,,,,,,,,,,,,,,,,,,,,,,,,,,,511.43620669998927,511.4524507999886,511.95284730003914,511.93587899999693,511.93927840003744,511.95284730003914,511.95284730003914,511.95284730003914,512.9863466999959,Objects\289a.jpg,pre,s,1.0252039000042714,None,,,,,,,,00064,001,2026-01-20_11h50.51.345,MST_test,2024.2.0,60.059482910336776,2026-01-20 11h50.59.053728 +0530,
125,0,126,s,2.874905899981968,None,126,0,125,513.0023900000378,,,,,,,,,,,,,,,,,,,,,,,,,,,,,,,,,,,,,,,,,,,,,,,,,,512.9864361000364,513.0023900000378,513.5028474000283,513.4860167000443,513.4887549999985,513.5028474000283,513.5028474000283,513.5028474000283,516.3865830000141,Objects\357a.jpg,post,s,2.874905899981968,None,,,,,,,,00064,001,2026-01-20_11h50.51.345,MST_test,2024.2.0,60.059482910336776,2026-01-20 11h50.59.053728 +0530,
126,0,127,o,1.8753023999743164,None,127,0,126,516.4024606000166,,,,,,,,,,,,,,,,,,,,,,,,,,,,,,,,,,,,,,,,,,,,,,,,,,516.3866771000321,516.4024606000166,516.9028214000282,516.8859558000113,516.8886501000379,516.9028214000282,516.9028214000282,516.9028214000282,518.7862120000063,Objects\331a.jpg,pre,o,1.8753023999743164,None,,,,,,,,00064,001,2026-01-20_11h50.51.345,MST_test,2024.2.0,60.059482910336776,2026-01-20 11h50.59.053728 +0530,
127,0,128,s,1.2437034999602474,None,128,0,127,518.8024245999986,,,,,,,,,,,,,,,,,,,,,,,,,,,,,,,,,,,,,,,,,,,,,,,,,,518.7863063000259,518.8024245999986,519.3028120000381,519.2860313000274,519.2953415000229,519.3028120000381,519.3028120000381,519.3028120000381,520.5529777000193,Objects\052b.jpg,mid,s,1.2437034999602474,None,,,,,,,,00064,001,2026-01-20_11h50.51.345,MST_test,2024.2.0,60.059482910336776,2026-01-20 11h50.59.053728 +0530,
128,0,129,s,1.1486937999725342,None,129,0,128,520.5690951000433,,,,,,,,,,,,,,,,,,,,,,,,,,,,,,,,,,,,,,,,,,,,,,,,,,520.5530672000023,520.5690951000433,521.0693057000171,521.0526474000071,521.0620355000137,521.0693057000171,521.0693057000171,521.0693057000171,522.2196258000331,Objects\169b.jpg,post,s,1.1486937999725342,None,,,,,,,,00064,001,2026-01-20_11h50.51.345,MST_test,2024.2.0,60.059482910336776,2026-01-20 11h50.59.053728 +0530,
129,0,130,s,0.7622471999493428,None,130,0,129,522.2355357999913,,,,,,,,,,,,,,,,,,,,,,,,,,,,,,,,,,,,,,,,,,,,,,,,,,522.2197155000176,522.2355357999913,522.7361884000129,522.7193366000429,522.7292607999989,522.7361884000129,522.7361884000129,522.7361884000129,523.5029846000252,Objects\243b.jpg,post,s,0.7622471999493428,None,,,,,,,,00064,001,2026-01-20_11h50.51.345,MST_test,2024.2.0,60.059482910336776,2026-01-20 11h50.59.053728 +0530,
130,0,131,s,0.9909601000254042,None,131,0,130,523.5191117000068,,,,,,,,,,,,,,,,,,,,,,,,,,,,,,,,,,,,,,,,,,,,,,,,,,523.5030734000029,523.5191117000068,524.0194482000079,524.0027738999925,524.0056554999901,524.0194482000079,524.0194482000079,524.0194482000079,525.0197493000305,Objects\140a.jpg,post,s,0.9909601000254042,None,,,,,,,,00064,001,2026-01-20_11h50.51.345,MST_test,2024.2.0,60.059482910336776,2026-01-20 11h50.59.053728 +0530,
131,0,132,s,0.874528200016357,None,132,0,131,525.0356369999936,,,,,,,,,,,,,,,,,,,,,,,,,,,,,,,,,,,,,,,,,,,,,,,,,,525.0198405000265,525.0356369999936,525.5359311000211,525.5193857999984,525.528844400018,525.5359311000211,525.5359311000211,525.5359311000211,526.4196792000439,Objects\135b.jpg,mid,s,0.874528200016357,None,,,,,,,,00064,001,2026-01-20_11h50.51.345,MST_test,2024.2.0,60.059482910336776,2026-01-20 11h50.59.053728 +0530,
132,0,133,s,1.1537971000070684,None,133,0,132,526.4356485999888,,,,,,,,,,,,,,,,,,,,,,,,,,,,,,,,,,,,,,,,,,,,,,,,,,526.4197689000284,526.4356485999888,526.9360833000392,526.9194793000352,526.9299413000117,526.9360833000392,526.9360833000392,526.9360833000392,528.1033037000452,Objects\303b.jpg,pre,s,1.1537971000070684,None,,,,,,,,00064,001,2026-01-20_11h50.51.345,MST_test,2024.2.0,60.059482910336776,2026-01-20 11h50.59.053728 +0530,
133,0,134,s,1.0230715000070632,None,134,0,133,528.1191560000298,,,,,,,,,,,,,,,,,,,,,,,,,,,,,,,,,,,,,,,,,,,,,,,,,,528.103397800005,528.1191560000298,528.619541299995,528.6026638000039,528.6124123000191,528.619541299995,528.619541299995,528.619541299995,529.6529123000219,Foils\018a.jpg,none,s,1.0230715000070632,None,,,,,,,,00064,001,2026-01-20_11h50.51.345,MST_test,2024.2.0,60.059482910336776,2026-01-20 11h50.59.053728 +0530,
134,0,135,s,0.9054337000125088,None,135,0,134,529.6691178000183,,,,,,,,,,,,,,,,,,,,,,,,,,,,,,,,,,,,,,,,,,,,,,,,,,529.6530021000071,529.6691178000183,530.1693025000277,530.1527975000208,530.155068800028,530.1693025000277,530.1693025000277,530.1693025000277,531.08616050001,Objects\157a.jpg,pre,s,0.9054337000125088,None,,,,,,,,00064,001,2026-01-20_11h50.51.345,MST_test,2024.2.0,60.059482910336776,2026-01-20 11h50.59.053728 +0530,
135,0,136,o,1.0802919000270776,None,136,0,135,531.1024468000396,,,,,,,,,,,,,,,,,,,,,,,,,,,,,,,,,,,,,,,,,,,,,,,,,,531.0862500999938,531.1024468000396,531.6029254000168,531.5860455000075,531.5960504999966,531.6029254000168,531.6029254000168,531.6029254000168,532.6864574000356,Objects\354b.jpg,post,o,1.0802919000270776,None,,,,,,,,00064,001,2026-01-20_11h50.51.345,MST_test,2024.2.0,60.059482910336776,2026-01-20 11h50.59.053728 +0530,
136,0,137,s,1.2148825000040233,None,137,0,136,532.7023807000369,,,,,,,,,,,,,,,,,,,,,,,,,,,,,,,,,,,,,,,,,,,,,,,,,,532.6865504000452,532.7023807000369,533.2029463000363,533.1858883000095,533.1957377000363,533.2029463000363,533.2029463000363,533.2029463000363,534.420341900026,Objects\174b.jpg,pre,s,1.2148825000040233,None,,,,,,,,00064,001,2026-01-20_11h50.51.345,MST_test,2024.2.0,60.059482910336776,2026-01-20 11h50.59.053728 +0530,
137,0,138,o,1.18620459997328,None,138,0,137,534.4358443000237,,,,,,,,,,,,,,,,,,,,,,,,,,,,,,,,,,,,,,,,,,,,,,,,,,534.420442600036,534.4358443000237,534.9359066000325,534.9193302000058,534.9217386000091,534.9359066000325,534.9359066000325,534.9359066000325,536.1363868000335,Objects\030a.jpg,mid,o,1.18620459997328,None,,,,,,,,00064,001,2026-01-20_11h50.51.345,MST_test,2024.2.0,60.059482910336776,2026-01-20 11h50.59.053728 +0530,
138,0,139,s,1.2214995000394993,None,139,0,138,536.1524035999901,,,,,,,,,,,,,,,,,,,,,,,,,,,,,,,,,,,,,,,,,,,,,,,,,,536.1364766000188,536.1524035999901,536.6526716999942,536.6359549000044,536.6452661000076,536.6526716999942,536.6526716999942,536.6526716999942,537.8862934000208,Foils\113a.jpg,none,s,1.2214995000394993,None,,,,,,,,00064,001,2026-01-20_11h50.51.345,MST_test,2024.2.0,60.059482910336776,2026-01-20 11h50.59.053728 +0530,
139,0,140,s,1.23155270004645,None,140,0,139,537.9023714000359,,,,,,,,,,,,,,,,,,,,,,,,,,,,,,,,,,,,,,,,,,,,,,,,,,537.8863831000053,537.9023714000359,538.4026790999924,538.3858940000064,538.3950959999929,538.4026790999924,538.4026790999924,538.4026790999924,539.6363251000294,Objects\097b.jpg,post,s,1.23155270004645,None,,,,,,,,00064,001,2026-01-20_11h50.51.345,MST_test,2024.2.0,60.059482910336776,2026-01-20 11h50.59.053728 +0530,
140,0,141,s,1.6578770999913104,None,141,0,140,539.6524756000144,,,,,,,,,,,,,,,,,,,,,,,,,,,,,,,,,,,,,,,,,,,,,,,,,,539.636419699993,539.6524756000144,540.1526531000272,540.1358879000181,540.1383160999976,540.1526531000272,540.1526531000272,540.1526531000272,541.8197875000187,Objects\077a.jpg,pre,s,1.6578770999913104,None,,,,,,,,00064,001,2026-01-20_11h50.51.345,MST_test,2024.2.0,60.059482910336776,2026-01-20 11h50.59.053728 +0530,
141,0,142,s,3.5784044000320137,None,142,0,141,541.8356492000166,,,,,,,,,,,,,,,,,,,,,,,,,,,,,,,,,,,,,,,,,,,,,,,,,,541.8198799000238,541.8356492000166,542.3358703000122,542.3195676000323,542.3289788000402,542.3358703000122,542.3358703000122,542.3358703000122,545.9197168000392,Foils\066a.jpg,none,s,3.5784044000320137,None,,,,,,,,00064,001,2026-01-20_11h50.51.345,MST_test,2024.2.0,60.059482910336776,2026-01-20 11h50.59.053728 +0530,
142,0,143,o,1.222799200040754,None,143,0,142,545.9357210000162,,,,,,,,,,,,,,,,,,,,,,,,,,,,,,,,,,,,,,,,,,,,,,,,,,545.9198107999982,545.9357210000162,546.4359154000413,546.4193671999965,546.4299208000302,546.4359154000413,546.4359154000413,546.4359154000413,547.6697451000218,Foils\002a.jpg,none,o,1.222799200040754,None,,,,,,,,00064,001,2026-01-20_11h50.51.345,MST_test,2024.2.0,60.059482910336776,2026-01-20 11h50.59.053728 +0530,
143,0,144,s,1.4242232000106014,None,144,0,143,547.6857579000061,,,,,,,,,,,,,,,,,,,,,,,,,,,,,,,,,,,,,,,,,,,,,,,,,,547.6698419000022,547.6857579000061,548.1861432000296,548.1694591999985,548.1797801000066,548.1861432000296,548.1861432000296,548.1861432000296,549.6198085999931,Objects\193b.jpg,pre,s,1.4242232000106014,None,,,,,,,,00064,001,2026-01-20_11h50.51.345,MST_test,2024.2.0,60.059482910336776,2026-01-20 11h50.59.053728 +0530,
144,0,145,s,2.7543623999808915,None,145,0,144,549.6360225999961,,,,,,,,,,,,,,,,,,,,,,,,,,,,,,,,,,,,,,,,,,,,,,,,,,549.6199007999967,549.6360225999961,550.135963400011,550.1194213000126,550.1317384000286,550.135963400011,550.135963400011,550.135963400011,552.902949100011,Objects\180b.jpg,post,s,2.7543623999808915,None,,,,,,,,00064,001,2026-01-20_11h50.51.345,MST_test,2024.2.0,60.059482910336776,2026-01-20 11h50.59.053728 +0530,
145,0,146,s,0.8071707999915816,None,146,0,145,552.9191194000305,,,,,,,,,,,,,,,,,,,,,,,,,,,,,,,,,,,,,,,,,,,,,,,,,,552.9030451000435,552.9191194000305,553.4195207000012,553.4027145000291,553.4138163000462,553.4195207000012,553.4195207000012,553.4195207000012,554.2362027000054,Objects\268b.jpg,pre,s,0.8071707999915816,None,,,,,,,,00064,001,2026-01-20_11h50.51.345,MST_test,2024.2.0,60.059482910336776,2026-01-20 11h50.59.053728 +0530,
146,0,147,s,1.153109700011555,None,147,0,146,554.2524605999934,,,,,,,,,,,,,,,,,,,,,,,,,,,,,,,,,,,,,,,,,,,,,,,,,,554.2362950000097,554.2524605999934,554.7527520000003,554.7359036999987,554.7449328000075,554.7527520000003,554.7527520000003,554.7527520000003,555.9195601000101,Foils\f6.jpg,none,s,1.153109700011555,None,,,,,,,,00064,001,2026-01-20_11h50.51.345,MST_test,2024.2.0,60.059482910336776,2026-01-20 11h50.59.053728 +0530,
147,0,148,s,0.9417837000219151,None,148,0,147,555.9357042000047,,,,,,,,,,,,,,,,,,,,,,,,,,,,,,,,,,,,,,,,,,,,,,,,,,555.9196515000076,555.9357042000047,556.4360283000278,556.419303200033,556.4222658000072,556.4360283000278,556.4360283000278,556.4360283000278,557.3862914000056,Objects\068a.jpg,pre,s,0.9417837000219151,None,,,,,,,,00064,001,2026-01-20_11h50.51.345,MST_test,2024.2.0,60.059482910336776,2026-01-20 11h50.59.053728 +0530,
148,0,149,s,2.219984699971974,None,149,0,148,557.4024485000409,,,,,,,,,,,,,,,,,,,,,,,,,,,,,,,,,,,,,,,,,,,,,,,,,,557.3863872000366,557.4024485000409,557.9026556999888,557.886115900008,557.8894712000038,557.9026556999888,557.9026556999888,557.9026556999888,560.1368172999937,Objects\144a.jpg,mid,s,2.219984699971974,None,,,,,,,,00064,001,2026-01-20_11h50.51.345,MST_test,2024.2.0,60.059482910336776,2026-01-20 11h50.59.053728 +0530,
149,0,150,n,3.0941860000020824,None,150,0,149,560.1524404000374,,,,,,,,,,,,,,,,,,,,,,,,,,,,,,,,,,,,,,,,,,,,,,,,,,560.1369140000315,560.1524404000374,560.6528094999958,560.6361641000258,560.6461100000306,560.6528094999958,560.6528094999958,560.6528094999958,563.7532321999897,Foils\010a.jpg,none,n,3.0941860000020824,None,,,,,,,,00064,001,2026-01-20_11h50.51.345,MST_test,2024.2.0,60.059482910336776,2026-01-20 11h50.59.053728 +0530,
,,,,,,,,,,,,,,,,,,,,,,,,,,,,,,,,,,,,,,,,,,,,,,,,,,,,,,,,,,,,,,,,,,,,,,,,,563.7532961000106,563.7693830000353,563.7693830000353,566.603035200038,space,2.825581900018733,None,00064,001,2026-01-20_11h50.51.345,MST_test,2024.2.0,60.059482910336776,2026-01-20 11h50.59.053728 +0530,
