thisN,thisTrialN,thisRepN,key_resp_3.keys,key_resp_3.rt,key_resp_3.duration,trials.thisRepN,trials.thisTrialN,trials.thisN,thisRow.t,notes,intro_page.started,text.started,key_resp.started,intro_page.stopped,key_resp.keys,key_resp.rt,key_resp.duration,instructions.started,text_2.started,key_resp_2.started,instructions.stopped,key_resp_2.keys,key_resp_2.rt,key_resp_2.duration,demo1.started,image_1.started,image_2.started,text_7.started,key_resp_6.started,text_9.started,demo1.stopped,key_resp_6.keys,key_resp_6.rt,key_resp_6.duration,demo3.started,image_5.started,image_6.started,text_11.started,text_12.started,key_resp_8.started,demo3.stopped,key_resp_8.keys,key_resp_8.rt,key_resp_8.duration,demo_conclusion.started,text_13.started,key_resp_9.started,demo_conclusion.stopped,key_resp_9.keys,key_resp_9.rt,key_resp_9.duration,start_test.started,text_6.started,key_resp_5.started,start_test.stopped,key_resp_5.keys,key_resp_5.rt,key_resp_5.duration,ISI.started,text_4.started,text_4.stopped,ISI.stopped,routine_1.started,image.started,text_3.started,key_resp_3.started,routine_1.stopped,image_path,position_of_stimuli,trials.key_resp_3.keys,trials.key_resp_3.rt,trials.key_resp_3.duration,End_page.started,text_5.started,key_resp_4.started,End_page.stopped,key_resp_4.keys,key_resp_4.rt,key_resp_4.duration,participant,session,date,expName,psychopyVersion,frameRate,expStart,
,,,,,,,,,,,0.0012031000005663373,0.002921699997386895,0.002921699997386895,5.2038377999997465,space,5.177919300000212,None,,,,,,,,,,,,,,,,,,,,,,,,,,,,,,,,,,,,,,,,,,,,,,,,,,,,,,,,,,,,,,,00063,001,2026-01-19_22h22.35.848,MST_test,2024.2.0,59.99030556656854,2026-01-19 22h23.10.122058 +0530,
,,,,,,,,,,,,,,,,,,5.203921699998318,5.219338200000493,5.219338200000493,11.696091099998739,space,6.465542500001902,None,,,,,,,,,,,,,,,,,,,,,,,,,,,,,,,,,,,,,,,,,,,,,,,,,,,,,,,,00063,001,2026-01-19_22h22.35.848,MST_test,2024.2.0,59.99030556656854,2026-01-19 22h23.10.122058 +0530,
,,,,,,,,,,,,,,,,,,,,,,,,,11.696184299999004,11.735225599997648,11.735225599997648,11.735225599997648,11.735225599997648,11.735225599997648,14.979901299997437,space,3.2374194000003627,None,,,,,,,,,,,,,,,,,,,,,,,,,,,,,,,,,,,,,,,,,,,,,,00063,001,2026-01-19_22h22.35.848,MST_test,2024.2.0,59.99030556656854,2026-01-19 22h23.10.122058 +0530,
,,,,,,,,,,,,,,,,,,,,,,,,,,,,,,,,,,,14.979994799999986,14.996276300000318,14.996276300000318,14.996276300000318,14.996276300000318,14.996276300000318,17.679797799999506,space,2.6729911000002176,None,,,,,,,,,,,,,,,,,,,,,,,,,,,,,,,,,,,,00063,001,2026-01-19_22h22.35.848,MST_test,2024.2.0,59.99030556656854,2026-01-19 22h23.10.122058 +0530,
,,,,,,,,,,,,,,,,,,,,,,,,,,,,,,,,,,,,,,,,,,,,,17.679905199998757,17.69586739999795,17.69586739999795,26.56312640000033,space,8.861413999999058,None,,,,,,,,,,,,,,,,,,,,,,,,,,,,,00063,001,2026-01-19_22h22.35.848,MST_test,2024.2.0,59.99030556656854,2026-01-19 22h23.10.122058 +0530,
,,,,,,,,,,,,,,,,,,,,,,,,,,,,,,,,,,,,,,,,,,,,,,,,,,,,26.56326259999696,26.593248599998333,26.593248599998333,66.62954159999936,space,40.02820580000116,None,,,,,,,,,,,,,,,,,,,,,,00063,001,2026-01-19_22h22.35.848,MST_test,2024.2.0,59.99030556656854,2026-01-19 22h23.10.122058 +0530,
0,0,1,o,8.346615200000087,None,1,0,0,66.64574209999773,,,,,,,,,,,,,,,,,,,,,,,,,,,,,,,,,,,,,,,,,,,,,,,,,,66.63894789999904,66.64574209999773,67.15469110000049,67.12928349999856,67.1525232999993,67.15469110000049,67.15469110000049,67.15469110000049,75.51305099999809,Objects\384a.jpg,mid,o,8.346615200000087,None,,,,,,,,00063,001,2026-01-19_22h22.35.848,MST_test,2024.2.0,59.99030556656854,2026-01-19 22h23.10.122058 +0530,
1,0,2,o,2.490857299999334,None,2,0,1,75.52912879999712,,,,,,,,,,,,,,,,,,,,,,,,,,,,,,,,,,,,,,,,,,,,,,,,,,75.51345939999737,75.52912879999712,76.06610179999916,76.01290099999824,76.0634773999991,76.06610179999916,76.06610179999916,76.06610179999916,78.56322139999975,Objects\087b.jpg,mid,o,2.490857299999334,None,,,,,,,,00063,001,2026-01-19_22h22.35.848,MST_test,2024.2.0,59.99030556656854,2026-01-19 22h23.10.122058 +0530,
2,0,3,n,3.4939889000015683,None,3,0,2,78.57916579999801,,,,,,,,,,,,,,,,,,,,,,,,,,,,,,,,,,,,,,,,,,,,,,,,,,78.56370640000023,78.57916579999801,79.07921089999945,79.06282250000004,79.07141529999717,79.07921089999945,79.07921089999945,79.07921089999945,82.57995250000022,Foils\082a.jpg,none,n,3.4939889000015683,None,,,,,,,,00063,001,2026-01-19_22h22.35.848,MST_test,2024.2.0,59.99030556656854,2026-01-19 22h23.10.122058 +0530,
3,0,4,o,2.1810396000000765,None,4,0,3,82.59573529999761,,,,,,,,,,,,,,,,,,,,,,,,,,,,,,,,,,,,,,,,,,,,,,,,,,82.58035919999747,82.59573529999761,83.09615489999851,83.07931099999769,83.09049930000037,83.09615489999851,83.09615489999851,83.09615489999851,85.2794920999986,Objects\365a.jpg,post,o,2.1810396000000765,None,,,,,,,,00063,001,2026-01-19_22h22.35.848,MST_test,2024.2.0,59.99030556656854,2026-01-19 22h23.10.122058 +0530,
4,0,5,n,2.3523357999984,None,5,0,4,85.29576909999741,,,,,,,,,,,,,,,,,,,,,,,,,,,,,,,,,,,,,,,,,,,,,,,,,,85.27986809999857,85.29576909999741,85.7961593,85.77957329999845,85.78898839999965,85.7961593,85.7961593,85.7961593,88.16320169999744,Foils\042a.jpg,none,n,2.3523357999984,None,,,,,,,,00063,001,2026-01-19_22h22.35.848,MST_test,2024.2.0,59.99030556656854,2026-01-19 22h23.10.122058 +0530,
5,0,6,s,2.685118900000816,None,6,0,5,88.17917169999782,,,,,,,,,,,,,,,,,,,,,,,,,,,,,,,,,,,,,,,,,,,,,,,,,,88.16366049999851,88.17917169999782,88.67941099999734,88.6628755999991,88.66899909999847,88.67941099999734,88.67941099999734,88.67941099999734,91.37980179999795,Foils\050a.jpg,none,s,2.685118900000816,None,,,,,,,,00063,001,2026-01-19_22h22.35.848,MST_test,2024.2.0,59.99030556656854,2026-01-19 22h23.10.122058 +0530,
6,0,7,s,4.292829599999095,None,7,0,6,91.39576639999723,,,,,,,,,,,,,,,,,,,,,,,,,,,,,,,,,,,,,,,,,,,,,,,,,,91.3801526999996,91.39576639999723,91.89614479999727,91.87920139999915,91.8859171999975,91.89614479999727,91.89614479999727,91.89614479999727,96.19647989999794,Objects\373a.jpg,mid,s,4.292829599999095,None,,,,,,,,00063,001,2026-01-19_22h22.35.848,MST_test,2024.2.0,59.99030556656854,2026-01-19 22h23.10.122058 +0530,
7,0,8,o,1.348228900002141,None,8,0,7,96.21240579999721,,,,,,,,,,,,,,,,,,,,,,,,,,,,,,,,,,,,,,,,,,,,,,,,,,96.196887099999,96.21240579999721,96.71297179999965,96.69620649999706,96.7062683999975,96.71297179999965,96.71297179999965,96.71297179999965,98.06285639999987,Objects\015a.jpg,mid,o,1.348228900002141,None,,,,,,,,00063,001,2026-01-19_22h22.35.848,MST_test,2024.2.0,59.99030556656854,2026-01-19 22h23.10.122058 +0530,
8,0,9,o,3.798443200001202,None,9,0,8,98.07913840000037,,,,,,,,,,,,,,,,,,,,,,,,,,,,,,,,,,,,,,,,,,,,,,,,,,98.06322379999983,98.07913840000037,98.6141738999977,98.5628794999975,98.6115162999995,98.6141738999977,98.6141738999977,98.6141738999977,102.42956269999922,Objects\157b.jpg,pre,o,3.798443200001202,None,,,,,,,,00063,001,2026-01-19_22h22.35.848,MST_test,2024.2.0,59.99030556656854,2026-01-19 22h23.10.122058 +0530,
9,0,10,n,1.3819994000004954,None,10,0,9,102.44583019999845,,,,,,,,,,,,,,,,,,,,,,,,,,,,,,,,,,,,,,,,,,,,,,,,,,102.42994799999724,102.44583019999845,102.96657649999906,102.9293211999975,102.96396149999782,102.96657649999906,102.96657649999906,102.96657649999906,104.36284599999999,Foils\121a.jpg,none,n,1.3819994000004954,None,,,,,,,,00063,001,2026-01-19_22h22.35.848,MST_test,2024.2.0,59.99030556656854,2026-01-19 22h23.10.122058 +0530,
10,0,11,s,2.8616875000006985,None,11,0,10,104.37905150000006,,,,,,,,,,,,,,,,,,,,,,,,,,,,,,,,,,,,,,,,,,,,,,,,,,104.36319299999741,104.37905150000006,104.8794831999985,104.86269700000048,104.86856169999737,104.8794831999985,104.8794831999985,104.8794831999985,107.74650079999992,Foils\f6.jpg,none,s,2.8616875000006985,None,,,,,,,,00063,001,2026-01-19_22h22.35.848,MST_test,2024.2.0,59.99030556656854,2026-01-19 22h23.10.122058 +0530,
11,0,12,s,1.7803419000010763,None,12,0,11,107.76248560000022,,,,,,,,,,,,,,,,,,,,,,,,,,,,,,,,,,,,,,,,,,,,,,,,,,107.74688059999971,107.76248560000022,108.28884299999845,108.24622799999997,108.28662869999971,108.28884299999845,108.28884299999845,108.28884299999845,110.07979029999842,Objects\255b.jpg,mid,s,1.7803419000010763,None,,,,,,,,00063,001,2026-01-19_22h22.35.848,MST_test,2024.2.0,59.99030556656854,2026-01-19 22h23.10.122058 +0530,
12,0,13,s,1.965856500002701,None,13,0,12,110.09563559999879,,,,,,,,,,,,,,,,,,,,,,,,,,,,,,,,,,,,,,,,,,,,,,,,,,110.08014840000033,110.09563559999879,110.62333509999735,110.57938189999913,110.62123729999803,110.62333509999735,110.62333509999735,110.62333509999735,112.59650659999897,Objects\054b.jpg,post,s,1.965856500002701,None,,,,,,,,00063,001,2026-01-19_22h22.35.848,MST_test,2024.2.0,59.99030556656854,2026-01-19 22h23.10.122058 +0530,
13,0,14,s,1.3964894999990065,None,14,0,13,112.61243479999757,,,,,,,,,,,,,,,,,,,,,,,,,,,,,,,,,,,,,,,,,,,,,,,,,,112.59685600000012,112.61243479999757,113.11266819999946,113.09606319999875,113.1018155999991,113.11266819999946,113.11266819999946,113.11266819999946,114.51387089999844,Objects\032a.jpg,mid,s,1.3964894999990065,None,,,,,,,,00063,001,2026-01-19_22h22.35.848,MST_test,2024.2.0,59.99030556656854,2026-01-19 22h23.10.122058 +0530,
14,0,15,s,0.9759344000012788,None,15,0,14,114.52914429999873,,,,,,,,,,,,,,,,,,,,,,,,,,,,,,,,,,,,,,,,,,,,,,,,,,114.51423929999874,114.52914429999873,115.02923949999968,115.01280169999882,115.0223064999991,115.02923949999968,115.02923949999968,115.02923949999968,116.01306269999986,Objects\022b.jpg,post,s,0.9759344000012788,None,,,,,,,,00063,001,2026-01-19_22h22.35.848,MST_test,2024.2.0,59.99030556656854,2026-01-19 22h23.10.122058 +0530,
15,0,16,s,2.723895099999936,None,16,0,15,116.02888359999997,,,,,,,,,,,,,,,,,,,,,,,,,,,,,,,,,,,,,,,,,,,,,,,,,,116.01342689999728,116.02888359999997,116.52927849999833,116.51278909999746,116.51975849999872,116.52927849999833,116.52927849999833,116.52927849999833,119.26305460000003,Objects\136a.jpg,post,s,2.723895099999936,None,,,,,,,,00063,001,2026-01-19_22h22.35.848,MST_test,2024.2.0,59.99030556656854,2026-01-19 22h23.10.122058 +0530,
16,0,17,o,1.4336390999997093,None,17,0,16,119.27902069999982,,,,,,,,,,,,,,,,,,,,,,,,,,,,,,,,,,,,,,,,,,,,,,,,,,119.26340509999864,119.27902069999982,119.77902890000041,119.76284089999899,119.77071059999798,119.77902890000041,119.77902890000041,119.77902890000041,121.22986019999735,Objects\086a.jpg,pre,o,1.4336390999997093,None,,,,,,,,00063,001,2026-01-19_22h22.35.848,MST_test,2024.2.0,59.99030556656854,2026-01-19 22h23.10.122058 +0530,
17,0,18,n,1.6024881000012101,None,18,0,17,121.24584229999891,,,,,,,,,,,,,,,,,,,,,,,,,,,,,,,,,,,,,,,,,,,,,,,,,,121.23022449999917,121.24584229999891,121.74605279999741,121.7295544999979,121.73419099999956,121.74605279999741,121.74605279999741,121.74605279999741,123.36305879999782,Foils\058a.jpg,none,n,1.6024881000012101,None,,,,,,,,00063,001,2026-01-19_22h22.35.848,MST_test,2024.2.0,59.99030556656854,2026-01-19 22h23.10.122058 +0530,
18,0,19,s,4.30118930000026,None,19,0,18,123.3791831999988,,,,,,,,,,,,,,,,,,,,,,,,,,,,,,,,,,,,,,,,,,,,,,,,,,123.36341019999963,123.3791831999988,123.87943660000019,123.86281450000024,123.87275999999838,123.87943660000019,123.87943660000019,123.87943660000019,128.19704259999708,Objects\229a.jpg,post,s,4.30118930000026,None,,,,,,,,00063,001,2026-01-19_22h22.35.848,MST_test,2024.2.0,59.99030556656854,2026-01-19 22h23.10.122058 +0530,
19,0,20,o,4.164508100002422,None,20,0,19,128.21242939999865,,,,,,,,,,,,,,,,,,,,,,,,,,,,,,,,,,,,,,,,,,,,,,,,,,128.19744179999907,128.21242939999865,128.71266009999817,128.69614619999993,128.70756450000044,128.71266009999817,128.71266009999817,128.71266009999817,132.87945799999943,Objects\071a.jpg,mid,o,4.164508100002422,None,,,,,,,,00063,001,2026-01-19_22h22.35.848,MST_test,2024.2.0,59.99030556656854,2026-01-19 22h23.10.122058 +0530,
20,0,21,s,1.6067935999999463,None,21,0,20,132.89640750000035,,,,,,,,,,,,,,,,,,,,,,,,,,,,,,,,,,,,,,,,,,,,,,,,,,132.87980699999753,132.89640750000035,133.4297884999978,133.37956399999894,133.42741430000024,133.4297884999978,133.4297884999978,133.4297884999978,135.04616229999738,Objects\218b.jpg,pre,s,1.6067935999999463,None,,,,,,,,00063,001,2026-01-19_22h22.35.848,MST_test,2024.2.0,59.99030556656854,2026-01-19 22h23.10.122058 +0530,
21,0,22,o,4.490318800002569,None,22,0,21,135.06229259999964,,,,,,,,,,,,,,,,,,,,,,,,,,,,,,,,,,,,,,,,,,,,,,,,,,135.0463686999974,135.06229259999964,135.56287510000038,135.5462238,135.55541139999696,135.56287510000038,135.56287510000038,135.56287510000038,140.06321099999695,Objects\262b.jpg,pre,o,4.490318800002569,None,,,,,,,,00063,001,2026-01-19_22h22.35.848,MST_test,2024.2.0,59.99030556656854,2026-01-19 22h23.10.122058 +0530,
22,0,23,n,2.977699899998697,None,23,0,22,140.07901869999841,,,,,,,,,,,,,,,,,,,,,,,,,,,,,,,,,,,,,,,,,,,,,,,,,,140.06358919999911,140.07901869999841,140.57951820000017,140.56288889999996,140.5732167999995,140.57951820000017,140.57951820000017,140.57951820000017,143.5631988999994,Foils\098a.jpg,none,n,2.977699899998697,None,,,,,,,,00063,001,2026-01-19_22h22.35.848,MST_test,2024.2.0,59.99030556656854,2026-01-19 22h23.10.122058 +0530,
23,0,24,s,1.9467716999970435,None,24,0,23,143.5791231999974,,,,,,,,,,,,,,,,,,,,,,,,,,,,,,,,,,,,,,,,,,,,,,,,,,143.56359689999954,143.5791231999974,144.1064157999972,144.06267079999816,144.10380959999748,144.1064157999972,144.1064157999972,144.1064157999972,146.06320869999763,Objects\066b.jpg,mid,s,1.9467716999970435,None,,,,,,,,00063,001,2026-01-19_22h22.35.848,MST_test,2024.2.0,59.99030556656854,2026-01-19 22h23.10.122058 +0530,
24,0,25,o,2.2417353999990155,None,25,0,24,146.07911089999834,,,,,,,,,,,,,,,,,,,,,,,,,,,,,,,,,,,,,,,,,,,,,,,,,,146.06366219999836,146.07911089999834,146.5794027999982,146.56287539999903,146.5693625999993,146.5794027999982,146.5794027999982,146.5794027999982,148.82978580000054,Foils\018a.jpg,none,o,2.2417353999990155,None,,,,,,,,00063,001,2026-01-19_22h22.35.848,MST_test,2024.2.0,59.99030556656854,2026-01-19 22h23.10.122058 +0530,
25,0,26,s,1.3386334999995597,None,26,0,25,148.84586080000008,,,,,,,,,,,,,,,,,,,,,,,,,,,,,,,,,,,,,,,,,,,,,,,,,,148.8302526999978,148.84586080000008,149.34606299999723,149.32948099999703,149.33816490000027,149.34606299999723,149.34606299999723,149.34606299999723,150.69625459999952,Objects\164a.jpg,pre,s,1.3386334999995597,None,,,,,,,,00063,001,2026-01-19_22h22.35.848,MST_test,2024.2.0,59.99030556656854,2026-01-19 22h23.10.122058 +0530,
26,0,27,s,3.0201106000022264,None,27,0,26,150.7122711999982,,,,,,,,,,,,,,,,,,,,,,,,,,,,,,,,,,,,,,,,,,,,,,,,,,150.6966180999989,150.7122711999982,151.24905450000006,151.1962343999985,151.2466953999974,151.24905450000006,151.24905450000006,151.24905450000006,154.27983269999822,Objects\089b.jpg,post,s,3.0201106000022264,None,,,,,,,,00063,001,2026-01-19_22h22.35.848,MST_test,2024.2.0,59.99030556656854,2026-01-19 22h23.10.122058 +0530,
27,0,28,o,2.2971742000008817,None,28,0,27,154.29577879999852,,,,,,,,,,,,,,,,,,,,,,,,,,,,,,,,,,,,,,,,,,,,,,,,,,154.28020529999776,154.29577879999852,154.79597529999955,154.77928469999824,154.7884258999984,154.79597529999955,154.79597529999955,154.79597529999955,157.0964056999983,Objects\178a.jpg,post,o,2.2971742000008817,None,,,,,,,,00063,001,2026-01-19_22h22.35.848,MST_test,2024.2.0,59.99030556656854,2026-01-19 22h23.10.122058 +0530,
28,0,29,o,1.4324280000000726,None,29,0,28,157.11251759999868,,,,,,,,,,,,,,,,,,,,,,,,,,,,,,,,,,,,,,,,,,,,,,,,,,157.09677329999977,157.11251759999868,157.6127333000004,157.59616950000054,157.60569119999855,157.6127333000004,157.6127333000004,157.6127333000004,159.04663919999803,Objects\180a.jpg,post,o,1.4324280000000726,None,,,,,,,,00063,001,2026-01-19_22h22.35.848,MST_test,2024.2.0,59.99030556656854,2026-01-19 22h23.10.122058 +0530,
29,0,30,n,1.8333237999977428,None,30,0,29,159.06252559999848,,,,,,,,,,,,,,,,,,,,,,,,,,,,,,,,,,,,,,,,,,,,,,,,,,159.04703949999748,159.06252559999848,159.56314699999712,159.54580910000004,159.55529670000033,159.56314699999712,159.56314699999712,159.56314699999712,161.41282460000002,Foils\105a.jpg,none,n,1.8333237999977428,None,,,,,,,,00063,001,2026-01-19_22h22.35.848,MST_test,2024.2.0,59.99030556656854,2026-01-19 22h23.10.122058 +0530,
30,0,31,s,1.7436336999999185,None,31,0,30,161.42916949999926,,,,,,,,,,,,,,,,,,,,,,,,,,,,,,,,,,,,,,,,,,,,,,,,,,161.41317509999863,161.42916949999926,161.94889749999857,161.91266089999772,161.94689509999807,161.94889749999857,161.94889749999857,161.94889749999857,163.69610509999984,Objects\141b.jpg,post,s,1.7436336999999185,None,,,,,,,,00063,001,2026-01-19_22h22.35.848,MST_test,2024.2.0,59.99030556656854,2026-01-19 22h23.10.122058 +0530,
31,0,32,o,2.536031199997524,None,32,0,31,163.7124960000001,,,,,,,,,,,,,,,,,,,,,,,,,,,,,,,,,,,,,,,,,,,,,,,,,,163.6964857999992,163.7124960000001,164.212504799998,164.1959569999999,164.20340329999817,164.212504799998,164.212504799998,164.212504799998,166.7630900999975,Objects\253b.jpg,pre,o,2.536031199997524,None,,,,,,,,00063,001,2026-01-19_22h22.35.848,MST_test,2024.2.0,59.99030556656854,2026-01-19 22h23.10.122058 +0530,
32,0,33,s,1.693631500002084,None,33,0,32,166.77918469999713,,,,,,,,,,,,,,,,,,,,,,,,,,,,,,,,,,,,,,,,,,,,,,,,,,166.76344229999813,166.77918469999713,,167.26346009999907,167.27183759999753,167.27957779999997,167.27957779999997,167.27957779999997,168.979798999997,Objects\270a.jpg,mid,s,1.693631500002084,None,,,,,,,,00063,001,2026-01-19_22h22.35.848,MST_test,2024.2.0,59.99030556656854,2026-01-19 22h23.10.122058 +0530,
33,0,34,o,2.4930726000020513,None,34,0,33,168.99575959999856,,,,,,,,,,,,,,,,,,,,,,,,,,,,,,,,,,,,,,,,,,,,,,,,,,168.98017049999908,168.99575959999856,169.49606899999708,169.47954240000035,169.48918779999804,169.49606899999708,169.49606899999708,169.49606899999708,171.99642329999915,Objects\347a.jpg,mid,o,2.4930726000020513,None,,,,,,,,00063,001,2026-01-19_22h22.35.848,MST_test,2024.2.0,59.99030556656854,2026-01-19 22h23.10.122058 +0530,
34,0,35,s,1.7801290999996127,None,35,0,34,172.01253039999938,,,,,,,,,,,,,,,,,,,,,,,,,,,,,,,,,,,,,,,,,,,,,,,,,,171.996773699997,172.01253039999938,172.51296969999748,172.49618559999726,172.5053446999991,172.51296969999748,172.51296969999748,172.51296969999748,174.29646769999817,Objects\375a.jpg,post,s,1.7801290999996127,None,,,,,,,,00063,001,2026-01-19_22h22.35.848,MST_test,2024.2.0,59.99030556656854,2026-01-19 22h23.10.122058 +0530,
35,0,36,n,1.727660200001992,None,36,0,35,174.3129912000004,,,,,,,,,,,,,,,,,,,,,,,,,,,,,,,,,,,,,,,,,,,,,,,,,,174.2968406,174.3129912000004,174.81294129999878,174.79618499999924,174.80293209999945,174.81294129999878,174.81294129999878,174.81294129999878,176.5464546000003,Foils\113a.jpg,none,n,1.727660200001992,None,,,,,,,,00063,001,2026-01-19_22h22.35.848,MST_test,2024.2.0,59.99030556656854,2026-01-19 22h23.10.122058 +0530,
36,0,37,n,1.9988798999984283,None,37,0,36,176.56248939999932,,,,,,,,,,,,,,,,,,,,,,,,,,,,,,,,,,,,,,,,,,,,,,,,,,176.54695039999933,176.56248939999932,177.06271650000053,177.04616199999873,177.0544544000004,177.06271650000053,177.06271650000053,177.06271650000053,179.0630988999983,Foils\106a.jpg,none,n,1.9988798999984283,None,,,,,,,,00063,001,2026-01-19_22h22.35.848,MST_test,2024.2.0,59.99030556656854,2026-01-19 22h23.10.122058 +0530,
37,0,38,s,1.5931807000015397,None,38,0,37,179.07919240000047,,,,,,,,,,,,,,,,,,,,,,,,,,,,,,,,,,,,,,,,,,,,,,,,,,179.06349039999986,179.07919240000047,179.57940830000007,179.56291259999853,179.57088289999956,179.57940830000007,179.57940830000007,179.57940830000007,181.17982039999697,Objects\041b.jpg,pre,s,1.5931807000015397,None,,,,,,,,00063,001,2026-01-19_22h22.35.848,MST_test,2024.2.0,59.99030556656854,2026-01-19 22h23.10.122058 +0530,
38,0,39,o,2.812258199999633,None,39,0,38,181.19576459999735,,,,,,,,,,,,,,,,,,,,,,,,,,,,,,,,,,,,,,,,,,,,,,,,,,181.18017509999845,181.19576459999735,181.696201499999,181.67956739999863,181.68735489999744,181.696201499999,181.696201499999,181.696201499999,184.51274099999864,Objects\251a.jpg,mid,o,2.812258199999633,None,,,,,,,,00063,001,2026-01-19_22h22.35.848,MST_test,2024.2.0,59.99030556656854,2026-01-19 22h23.10.122058 +0530,
39,0,40,n,1.3035654999985127,None,40,0,39,184.52950549999878,,,,,,,,,,,,,,,,,,,,,,,,,,,,,,,,,,,,,,,,,,,,,,,,,,184.51309469999978,184.52950549999878,185.02957199999946,185.0126872999972,185.02201269999932,185.02957199999946,185.02957199999946,185.02957199999946,186.34646399999838,Foils\090a.jpg,none,n,1.3035654999985127,None,,,,,,,,00063,001,2026-01-19_22h22.35.848,MST_test,2024.2.0,59.99030556656854,2026-01-19 22h23.10.122058 +0530,
40,0,41,s,1.959325899999385,None,41,0,40,186.36250279999877,,,,,,,,,,,,,,,,,,,,,,,,,,,,,,,,,,,,,,,,,,,,,,,,,,186.34684489999927,186.36250279999877,186.91779349999706,186.84617679999792,186.91520189999937,186.91779349999706,186.91779349999706,186.91779349999706,188.87988649999897,Objects\330b.jpg,mid,s,1.959325899999385,None,,,,,,,,00063,001,2026-01-19_22h22.35.848,MST_test,2024.2.0,59.99030556656854,2026-01-19 22h23.10.122058 +0530,
41,0,42,o,1.352222299999994,None,42,0,41,188.89585929999885,,,,,,,,,,,,,,,,,,,,,,,,,,,,,,,,,,,,,,,,,,,,,,,,,,188.88025449999986,188.89585929999885,189.39625349999915,189.37951169999724,189.3881330999975,189.39625349999915,189.39625349999915,189.39625349999915,190.76281059999747,Objects\049a.jpg,post,o,1.352222299999994,None,,,,,,,,00063,001,2026-01-19_22h22.35.848,MST_test,2024.2.0,59.99030556656854,2026-01-19 22h23.10.122058 +0530,
42,0,43,n,1.0378664000018034,None,43,0,42,190.7787862999976,,,,,,,,,,,,,,,,,,,,,,,,,,,,,,,,,,,,,,,,,,,,,,,,,,190.7631309999997,190.7787862999976,191.27923149999697,191.262901099999,191.2714137999974,191.27923149999697,191.27923149999697,191.27923149999697,192.32939279999846,Foils\049a.jpg,none,n,1.0378664000018034,None,,,,,,,,00063,001,2026-01-19_22h22.35.848,MST_test,2024.2.0,59.99030556656854,2026-01-19 22h23.10.122058 +0530,
43,0,44,n,1.6951757999995607,None,44,0,43,192.34583989999737,,,,,,,,,,,,,,,,,,,,,,,,,,,,,,,,,,,,,,,,,,,,,,,,,,192.32973919999858,192.34583989999737,192.8459389999989,192.8296365999995,192.83544069999698,192.8459389999989,192.8459389999989,192.8459389999989,194.5467843999977,Foils\033a.jpg,none,n,1.6951757999995607,None,,,,,,,,00063,001,2026-01-19_22h22.35.848,MST_test,2024.2.0,59.99030556656854,2026-01-19 22h23.10.122058 +0530,
44,0,45,o,3.395513299998129,None,45,0,44,194.5625379999983,,,,,,,,,,,,,,,,,,,,,,,,,,,,,,,,,,,,,,,,,,,,,,,,,,194.54720499999894,194.5625379999983,195.0894163999983,195.04603750000024,195.08735439999873,195.0894163999983,195.0894163999983,195.0894163999983,198.49641100000008,Objects\147b.jpg,mid,o,3.395513299998129,None,,,,,,,,00063,001,2026-01-19_22h22.35.848,MST_test,2024.2.0,59.99030556656854,2026-01-19 22h23.10.122058 +0530,
45,0,46,o,1.0794849000012618,None,46,0,45,198.5124997999992,,,,,,,,,,,,,,,,,,,,,,,,,,,,,,,,,,,,,,,,,,,,,,,,,,198.49679399999877,198.5124997999992,199.0131855999971,198.99584569999934,199.0048078999971,199.0131855999971,199.0131855999971,199.0131855999971,200.09634109999752,Objects\374a.jpg,pre,o,1.0794849000012618,None,,,,,,,,00063,001,2026-01-19_22h22.35.848,MST_test,2024.2.0,59.99030556656854,2026-01-19 22h23.10.122058 +0530,
46,0,47,n,2.7486928999969678,None,47,0,46,200.11250199999995,,,,,,,,,,,,,,,,,,,,,,,,,,,,,,,,,,,,,,,,,,,,,,,,,,200.09678129999884,200.11250199999995,200.65641589999723,200.59609529999943,200.65421509999942,200.65641589999723,200.65641589999723,200.65641589999723,203.41313959999752,Objects\345b.jpg,mid,n,2.7486928999969678,None,,,,,,,,00063,001,2026-01-19_22h22.35.848,MST_test,2024.2.0,59.99030556656854,2026-01-19 22h23.10.122058 +0530,
47,0,48,n,1.3074818000022788,None,48,0,47,203.4291932999986,,,,,,,,,,,,,,,,,,,,,,,,,,,,,,,,,,,,,,,,,,,,,,,,,,203.41348819999985,203.4291932999986,203.92917339999985,203.91296949999742,203.9212856999984,203.92917339999985,203.92917339999985,203.92917339999985,205.2462599999999,Foils\074a.jpg,none,n,1.3074818000022788,None,,,,,,,,00063,001,2026-01-19_22h22.35.848,MST_test,2024.2.0,59.99030556656854,2026-01-19 22h23.10.122058 +0530,
48,0,49,n,1.026200999996945,None,49,0,48,205.26243079999767,,,,,,,,,,,,,,,,,,,,,,,,,,,,,,,,,,,,,,,,,,,,,,,,,,205.24661139999807,205.26243079999767,205.76290799999697,205.74644419999822,205.7528663999983,205.76290799999697,205.76290799999697,205.76290799999697,206.79642429999876,Foils\f7.jpg,none,n,1.026200999996945,None,,,,,,,,00063,001,2026-01-19_22h22.35.848,MST_test,2024.2.0,59.99030556656854,2026-01-19 22h23.10.122058 +0530,
49,0,50,o,1.6108749000013631,None,50,0,49,206.8125134999973,,,,,,,,,,,,,,,,,,,,,,,,,,,,,,,,,,,,,,,,,,,,,,,,,,206.7967725999988,206.8125134999973,207.33761599999707,207.29606819999753,207.33547220000037,207.33761599999707,207.33761599999707,207.33761599999707,208.9627416000003,Objects\354b.jpg,post,o,1.6108749000013631,None,,,,,,,,00063,001,2026-01-19_22h22.35.848,MST_test,2024.2.0,59.99030556656854,2026-01-19 22h23.10.122058 +0530,
50,0,51,s,1.0748147999984212,None,51,0,50,208.97916859999896,,,,,,,,,,,,,,,,,,,,,,,,,,,,,,,,,,,,,,,,,,,,,,,,,,208.9628561999998,208.97916859999896,209.50563549999788,209.46289169999727,209.50347549999788,209.50563549999788,209.50563549999788,209.50563549999788,210.59643109999888,Objects\114b.jpg,pre,s,1.0748147999984212,None,,,,,,,,00063,001,2026-01-19_22h22.35.848,MST_test,2024.2.0,59.99030556656854,2026-01-19 22h23.10.122058 +0530,
51,0,52,s,3.912716899998486,None,52,0,51,210.61249459999817,,,,,,,,,,,,,,,,,,,,,,,,,,,,,,,,,,,,,,,,,,,,,,,,,,210.596870399997,210.61249459999817,211.13974359999702,211.0961561999975,211.137241299999,211.13974359999702,211.13974359999702,211.13974359999702,215.06317569999737,Objects\131b.jpg,pre,s,3.912716899998486,None,,,,,,,,00063,001,2026-01-19_22h22.35.848,MST_test,2024.2.0,59.99030556656854,2026-01-19 22h23.10.122058 +0530,
52,0,53,s,1.708133900003304,None,53,0,52,215.07922889999827,,,,,,,,,,,,,,,,,,,,,,,,,,,,,,,,,,,,,,,,,,,,,,,,,,215.06354139999894,215.07922889999827,215.600309999998,215.56256609999764,215.59814559999722,215.600309999998,215.600309999998,215.600309999998,217.31306579999728,Objects\343b.jpg,post,s,1.708133900003304,None,,,,,,,,00063,001,2026-01-19_22h22.35.848,MST_test,2024.2.0,59.99030556656854,2026-01-19 22h23.10.122058 +0530,
53,0,54,o,1.3753028999999515,None,54,0,53,217.3288176999995,,,,,,,,,,,,,,,,,,,,,,,,,,,,,,,,,,,,,,,,,,,,,,,,,,217.31346859999758,217.3288176999995,217.8295591999995,217.81334149999748,217.81959469999856,217.8295591999995,217.8295591999995,217.8295591999995,219.21317249999993,Objects\259a.jpg,pre,o,1.3753028999999515,None,,,,,,,,00063,001,2026-01-19_22h22.35.848,MST_test,2024.2.0,59.99030556656854,2026-01-19 22h23.10.122058 +0530,
54,0,55,s,1.915412499998638,None,55,0,54,219.22915369999828,,,,,,,,,,,,,,,,,,,,,,,,,,,,,,,,,,,,,,,,,,,,,,,,,,219.2135273999993,219.22915369999828,219.76898269999947,219.71289609999803,219.7667610999997,219.76898269999947,219.76898269999947,219.76898269999947,221.69604069999696,Objects\109b.jpg,pre,s,1.915412499998638,None,,,,,,,,00063,001,2026-01-19_22h22.35.848,MST_test,2024.2.0,59.99030556656854,2026-01-19 22h23.10.122058 +0530,
55,0,56,s,1.8316100999982154,None,56,0,55,221.71197570000004,,,,,,,,,,,,,,,,,,,,,,,,,,,,,,,,,,,,,,,,,,,,,,,,,,221.696393299997,221.71197570000004,222.22950189999756,222.19622379999782,222.2274335000002,222.22950189999756,222.22950189999756,222.22950189999756,224.06276849999995,Objects\073b.jpg,pre,s,1.8316100999982154,None,,,,,,,,00063,001,2026-01-19_22h22.35.848,MST_test,2024.2.0,59.99030556656854,2026-01-19 22h23.10.122058 +0530,
56,0,57,n,3.265059299999848,None,57,0,56,224.07920209999793,,,,,,,,,,,,,,,,,,,,,,,,,,,,,,,,,,,,,,,,,,,,,,,,,,224.0631211,224.07920209999793,224.57940899999812,224.5628622999975,224.57130719999986,224.57940899999812,224.57940899999812,224.57940899999812,227.84630040000047,Objects\226a.jpg,post,n,3.265059299999848,None,,,,,,,,00063,001,2026-01-19_22h22.35.848,MST_test,2024.2.0,59.99030556656854,2026-01-19 22h23.10.122058 +0530,
57,0,58,s,1.3142699999989418,None,58,0,57,227.8619097999981,,,,,,,,,,,,,,,,,,,,,,,,,,,,,,,,,,,,,,,,,,,,,,,,,,227.84665479999967,227.8619097999981,228.36283269999694,228.34621939999852,228.3532634999974,228.36283269999694,228.36283269999694,228.36283269999694,229.6795609999972,Objects\217b.jpg,post,s,1.3142699999989418,None,,,,,,,,00063,001,2026-01-19_22h22.35.848,MST_test,2024.2.0,59.99030556656854,2026-01-19 22h23.10.122058 +0530,
58,0,59,n,1.5447984999991604,None,59,0,58,229.69586530000015,,,,,,,,,,,,,,,,,,,,,,,,,,,,,,,,,,,,,,,,,,,,,,,,,,229.68000539999775,229.69586530000015,230.1963001999975,230.17956269999922,230.18778100000054,230.1963001999975,230.1963001999975,230.1963001999975,231.74653689999832,Objects\334a.jpg,pre,n,1.5447984999991604,None,,,,,,,,00063,001,2026-01-19_22h22.35.848,MST_test,2024.2.0,59.99030556656854,2026-01-19 22h23.10.122058 +0530,
59,0,60,n,1.670433299997967,None,60,0,59,231.7623997999981,,,,,,,,,,,,,,,,,,,,,,,,,,,,,,,,,,,,,,,,,,,,,,,,,,231.74700929999744,231.7623997999981,232.26263599999947,232.24625749999905,232.2551683999991,232.26263599999947,232.26263599999947,232.26263599999947,233.94625679999808,Objects\137a.jpg,pre,n,1.670433299997967,None,,,,,,,,00063,001,2026-01-19_22h22.35.848,MST_test,2024.2.0,59.99030556656854,2026-01-19 22h23.10.122058 +0530,
60,0,61,o,0.8317274999972142,None,61,0,60,233.9621410999971,,,,,,,,,,,,,,,,,,,,,,,,,,,,,,,,,,,,,,,,,,,,,,,,,,233.94660769999973,233.9621410999971,234.49325549999776,234.44622700000036,234.49133909999728,234.49325549999776,234.49325549999776,234.49325549999776,235.32986479999818,Foils\026a.jpg,none,o,0.8317274999972142,None,,,,,,,,00063,001,2026-01-19_22h22.35.848,MST_test,2024.2.0,59.99030556656854,2026-01-19 22h23.10.122058 +0530,
61,0,62,o,1.1587990000007267,None,62,0,61,235.34585519999746,,,,,,,,,,,,,,,,,,,,,,,,,,,,,,,,,,,,,,,,,,,,,,,,,,235.3302487999972,235.34585519999746,235.84628849999717,235.829570599999,235.83771929999784,235.84628849999717,235.84628849999717,235.84628849999717,237.01309050000054,Objects\232a.jpg,pre,o,1.1587990000007267,None,,,,,,,,00063,001,2026-01-19_22h22.35.848,MST_test,2024.2.0,59.99030556656854,2026-01-19 22h23.10.122058 +0530,
62,0,63,s,0.7941902000020491,None,63,0,62,237.0291913000001,,,,,,,,,,,,,,,,,,,,,,,,,,,,,,,,,,,,,,,,,,,,,,,,,,237.01344549999703,237.0291913000001,237.56289280000055,237.51282340000034,237.5602958999989,237.56289280000055,237.56289280000055,237.56289280000055,238.36315209999884,Objects\209b.jpg,mid,s,0.7941902000020491,None,,,,,,,,00063,001,2026-01-19_22h22.35.848,MST_test,2024.2.0,59.99030556656854,2026-01-19 22h23.10.122058 +0530,
63,0,64,s,2.202304799997364,None,64,0,63,238.3791031999972,,,,,,,,,,,,,,,,,,,,,,,,,,,,,,,,,,,,,,,,,,,,,,,,,,238.3635018999994,238.3791031999972,238.8903384999976,238.8628957999972,238.88822179999988,238.8903384999976,238.8903384999976,238.8903384999976,241.09617719999733,Objects\010b.jpg,mid,s,2.202304799997364,None,,,,,,,,00063,001,2026-01-19_22h22.35.848,MST_test,2024.2.0,59.99030556656854,2026-01-19 22h23.10.122058 +0530,
64,0,65,o,0.9678224999988743,None,65,0,64,241.1123888999973,,,,,,,,,,,,,,,,,,,,,,,,,,,,,,,,,,,,,,,,,,,,,,,,,,241.09652909999932,241.1123888999973,241.61276409999846,241.59624419999818,241.6022379999995,241.61276409999846,241.61276409999846,241.61276409999846,242.59648190000007,Objects\317a.jpg,mid,o,0.9678224999988743,None,,,,,,,,00063,001,2026-01-19_22h22.35.848,MST_test,2024.2.0,59.99030556656854,2026-01-19 22h23.10.122058 +0530,
65,0,66,s,0.8594524000000092,None,66,0,65,242.61264350000056,,,,,,,,,,,,,,,,,,,,,,,,,,,,,,,,,,,,,,,,,,,,,,,,,,242.59683159999986,242.61264350000056,243.1127020999993,243.09623139999894,243.10490989999744,243.1127020999993,243.1127020999993,243.1127020999993,243.97956619999968,Objects\248a.jpg,post,s,0.8594524000000092,None,,,,,,,,00063,001,2026-01-19_22h22.35.848,MST_test,2024.2.0,59.99030556656854,2026-01-19 22h23.10.122058 +0530,
66,0,67,n,1.1162609000020893,None,67,0,66,243.99568179999915,,,,,,,,,,,,,,,,,,,,,,,,,,,,,,,,,,,,,,,,,,,,,,,,,,243.97971870000038,243.99568179999915,244.49630219999744,244.47949089999747,244.4881960999992,244.49630219999744,244.49630219999744,244.49630219999744,245.613863999999,Foils\020b.jpg,none,n,1.1162609000020893,None,,,,,,,,00063,001,2026-01-19_22h22.35.848,MST_test,2024.2.0,59.99030556656854,2026-01-19 22h23.10.122058 +0530,
67,0,68,o,0.9525007000011101,None,68,0,67,245.62879419999808,,,,,,,,,,,,,,,,,,,,,,,,,,,,,,,,,,,,,,,,,,,,,,,,,,245.61425219999728,245.62879419999808,246.14857619999748,246.11289099999703,246.14602019999802,246.14857619999748,246.14857619999748,246.14857619999748,247.11314879999918,Objects\203b.jpg,mid,o,0.9525007000011101,None,,,,,,,,00063,001,2026-01-19_22h22.35.848,MST_test,2024.2.0,59.99030556656854,2026-01-19 22h23.10.122058 +0530,
68,0,69,n,1.9434528999991016,None,69,0,68,247.1290119999976,,,,,,,,,,,,,,,,,,,,,,,,,,,,,,,,,,,,,,,,,,,,,,,,,,247.11349619999964,247.1290119999976,247.62963559999844,247.61289639999814,247.62538969999878,247.62963559999844,247.62963559999844,247.62963559999844,249.57959919999848,Objects\315b.jpg,post,n,1.9434528999991016,None,,,,,,,,00063,001,2026-01-19_22h22.35.848,MST_test,2024.2.0,59.99030556656854,2026-01-19 22h23.10.122058 +0530,
69,0,70,s,1.0523834000014176,None,70,0,69,249.59585349999907,,,,,,,,,,,,,,,,,,,,,,,,,,,,,,,,,,,,,,,,,,,,,,,,,,249.57997519999844,249.59585349999907,250.09601429999748,250.07935609999913,250.08592999999746,250.09601429999748,250.09601429999748,250.09601429999748,251.16314919999786,Objects\016a.jpg,mid,s,1.0523834000014176,None,,,,,,,,00063,001,2026-01-19_22h22.35.848,MST_test,2024.2.0,59.99030556656854,2026-01-19 22h23.10.122058 +0530,
70,0,71,n,1.372112000000925,None,71,0,70,251.17899019999822,,,,,,,,,,,,,,,,,,,,,,,,,,,,,,,,,,,,,,,,,,,,,,,,,,251.16349689999697,251.17899019999822,251.70498289999887,251.66306709999844,251.70282919999954,251.70498289999887,251.70498289999887,251.70498289999887,253.0794922999994,Objects\153b.jpg,mid,n,1.372112000000925,None,,,,,,,,00063,001,2026-01-19_22h22.35.848,MST_test,2024.2.0,59.99030556656854,2026-01-19 22h23.10.122058 +0530,
71,0,72,s,2.3682893000004697,None,72,0,71,253.0958408999977,,,,,,,,,,,,,,,,,,,,,,,,,,,,,,,,,,,,,,,,,,,,,,,,,,253.07985659999758,253.0958408999977,253.59609989999808,253.5795502999972,253.58832809999876,253.59609989999808,253.59609989999808,253.59609989999808,255.97966389999783,Foils\073a.jpg,none,s,2.3682893000004697,None,,,,,,,,00063,001,2026-01-19_22h22.35.848,MST_test,2024.2.0,59.99030556656854,2026-01-19 22h23.10.122058 +0530,
72,0,73,s,1.5323994999998831,None,73,0,72,255.99587210000027,,,,,,,,,,,,,,,,,,,,,,,,,,,,,,,,,,,,,,,,,,,,,,,,,,255.9798484999992,255.99587210000027,256.49607249999826,256.4791480999993,256.4855284000005,256.49607249999826,256.49607249999826,256.49607249999826,258.0296543999975,Foils\009a.jpg,none,s,1.5323994999998831,None,,,,,,,,00063,001,2026-01-19_22h22.35.848,MST_test,2024.2.0,59.99030556656854,2026-01-19 22h23.10.122058 +0530,
73,0,74,s,0.9704528000002028,None,74,0,73,258.0458282999971,,,,,,,,,,,,,,,,,,,,,,,,,,,,,,,,,,,,,,,,,,,,,,,,,,258.0300035,258.0458282999971,258.54659529999844,258.5295004999971,258.53937999999835,258.54659529999844,258.54659529999844,258.54659529999844,259.52975890000016,Objects\324a.jpg,mid,s,0.9704528000002028,None,,,,,,,,00063,001,2026-01-19_22h22.35.848,MST_test,2024.2.0,59.99030556656854,2026-01-19 22h23.10.122058 +0530,
74,0,75,n,0.9021154000001843,None,75,0,74,259.545858999998,,,,,,,,,,,,,,,,,,,,,,,,,,,,,,,,,,,,,,,,,,,,,,,,,,259.5302171999974,259.545858999998,260.0462256999999,260.0292922999979,260.0348664999983,260.0462256999999,260.0462256999999,260.0462256999999,260.96403439999995,Foils\017a.jpg,none,n,0.9021154000001843,None,,,,,,,,00063,001,2026-01-19_22h22.35.848,MST_test,2024.2.0,59.99030556656854,2026-01-19 22h23.10.122058 +0530,
75,0,76,o,0.7896943999985524,None,76,0,75,260.9788406999978,,,,,,,,,,,,,,,,,,,,,,,,,,,,,,,,,,,,,,,,,,,,,,,,,,260.9643799999976,260.9788406999978,261.4793522999971,261.4629126,261.4719888999971,261.4793522999971,261.4793522999971,261.4793522999971,262.2801108999993,Objects\132a.jpg,pre,o,0.7896943999985524,None,,,,,,,,00063,001,2026-01-19_22h22.35.848,MST_test,2024.2.0,59.99030556656854,2026-01-19 22h23.10.122058 +0530,
76,0,77,n,1.1361919000009948,None,77,0,76,262.29583920000005,,,,,,,,,,,,,,,,,,,,,,,,,,,,,,,,,,,,,,,,,,,,,,,,,,262.28047829999923,262.29583920000005,262.7961856000002,262.77950919999785,262.7876952999977,262.7961856000002,262.7961856000002,262.7961856000002,263.9465151000004,Foils\034a.jpg,none,n,1.1361919000009948,None,,,,,,,,00063,001,2026-01-19_22h22.35.848,MST_test,2024.2.0,59.99030556656854,2026-01-19 22h23.10.122058 +0530,
77,0,78,o,0.982458399997995,None,78,0,77,263.9625856999992,,,,,,,,,,,,,,,,,,,,,,,,,,,,,,,,,,,,,,,,,,,,,,,,,,263.9468667000001,263.9625856999992,264.4626110999998,264.4460390999993,264.45467429999917,264.4626110999998,264.4626110999998,264.4626110999998,265.44660569999905,Foils\057a.jpg,none,o,0.982458399997995,None,,,,,,,,00063,001,2026-01-19_22h22.35.848,MST_test,2024.2.0,59.99030556656854,2026-01-19 22h23.10.122058 +0530,
78,0,79,n,1.089767599998595,None,79,0,78,265.4625062999985,,,,,,,,,,,,,,,,,,,,,,,,,,,,,,,,,,,,,,,,,,,,,,,,,,265.4469754999991,265.4625062999985,265.9631636999984,265.9461190000002,265.95534469999984,265.9631636999984,265.9631636999984,265.9631636999984,267.06314999999813,Objects\332a.jpg,pre,n,1.089767599998595,None,,,,,,,,00063,001,2026-01-19_22h22.35.848,MST_test,2024.2.0,59.99030556656854,2026-01-19 22h23.10.122058 +0530,
79,0,80,o,2.761442300001363,None,80,0,79,267.0791121999973,,,,,,,,,,,,,,,,,,,,,,,,,,,,,,,,,,,,,,,,,,,,,,,,,,267.0634984999997,267.0791121999973,267.5795306999971,267.56290850000005,267.5714483999982,267.5795306999971,267.5795306999971,267.5795306999971,270.3466307999988,Objects\061a.jpg,post,o,2.761442300001363,None,,,,,,,,00063,001,2026-01-19_22h22.35.848,MST_test,2024.2.0,59.99030556656854,2026-01-19 22h23.10.122058 +0530,
80,0,81,n,1.262502499997936,None,81,0,80,270.36234799999875,,,,,,,,,,,,,,,,,,,,,,,,,,,,,,,,,,,,,,,,,,,,,,,,,,270.3470645999987,270.36234799999875,270.86255489999894,270.8466966999986,270.8525297999986,270.86255489999894,270.86255489999894,270.86255489999894,272.13067239999873,Objects\140a.jpg,post,n,1.262502499997936,None,,,,,,,,00063,001,2026-01-19_22h22.35.848,MST_test,2024.2.0,59.99030556656854,2026-01-19 22h23.10.122058 +0530,
81,0,82,s,1.2766919000023336,None,82,0,81,272.14585969999825,,,,,,,,,,,,,,,,,,,,,,,,,,,,,,,,,,,,,,,,,,,,,,,,,,272.13102079999953,272.14585969999825,272.67166609999913,272.62925709999763,272.669117999998,272.67166609999913,272.67166609999913,272.67166609999913,273.9632227999973,Objects\371b.jpg,pre,s,1.2766919000023336,None,,,,,,,,00063,001,2026-01-19_22h22.35.848,MST_test,2024.2.0,59.99030556656854,2026-01-19 22h23.10.122058 +0530,
82,0,83,o,1.5410663000002387,None,83,0,82,273.97911380000005,,,,,,,,,,,,,,,,,,,,,,,,,,,,,,,,,,,,,,,,,,,,,,,,,,273.963452699998,273.97911380000005,274.4795744999974,274.4629222000003,274.46934789999796,274.4795744999974,274.4795744999974,274.4795744999974,276.0297632999973,Objects\030a.jpg,pre,o,1.5410663000002387,None,,,,,,,,00063,001,2026-01-19_22h22.35.848,MST_test,2024.2.0,59.99030556656854,2026-01-19 22h23.10.122058 +0530,
83,0,84,n,0.9621038000004773,None,84,0,83,276.0458465999982,,,,,,,,,,,,,,,,,,,,,,,,,,,,,,,,,,,,,,,,,,,,,,,,,,276.0301150999985,276.0458465999982,276.5460781999973,276.5294909999975,276.5371736999987,276.5460781999973,276.5460781999973,276.5460781999973,277.51236620000054,Foils\066a.jpg,none,n,0.9621038000004773,None,,,,,,,,00063,001,2026-01-19_22h22.35.848,MST_test,2024.2.0,59.99030556656854,2026-01-19 22h23.10.122058 +0530,
84,0,85,n,1.2045751000005112,None,85,0,84,277.52865419999944,,,,,,,,,,,,,,,,,,,,,,,,,,,,,,,,,,,,,,,,,,,,,,,,,,277.5124924999982,277.52865419999944,,278.0127169999978,278.04554350000035,278.0484785999979,278.0484785999979,278.0484785999979,279.2631369999981,Objects\201b.jpg,mid,n,1.2045751000005112,None,,,,,,,,00063,001,2026-01-19_22h22.35.848,MST_test,2024.2.0,59.99030556656854,2026-01-19 22h23.10.122058 +0530,
85,0,86,n,1.321615799999563,None,86,0,85,279.2791029,,,,,,,,,,,,,,,,,,,,,,,,,,,,,,,,,,,,,,,,,,,,,,,,,,279.26348379999763,279.2791029,279.7795518999992,279.7628982999995,279.7722775000002,279.7795518999992,279.7795518999992,279.7795518999992,281.11388409999927,Objects\377a.jpg,post,n,1.321615799999563,None,,,,,,,,00063,001,2026-01-19_22h22.35.848,MST_test,2024.2.0,59.99030556656854,2026-01-19 22h23.10.122058 +0530,
86,0,87,n,1.7669787999984692,None,87,0,86,281.1291491999982,,,,,,,,,,,,,,,,,,,,,,,,,,,,,,,,,,,,,,,,,,,,,,,,,,281.11426869999923,281.1291491999982,281.62972239999726,281.61283059999914,281.62163599999985,281.62972239999726,281.62972239999726,281.62972239999726,283.41350939999757,Objects\133b.jpg,post,n,1.7669787999984692,None,,,,,,,,00063,001,2026-01-19_22h22.35.848,MST_test,2024.2.0,59.99030556656854,2026-01-19 22h23.10.122058 +0530,
87,0,88,s,1.189019700002973,None,88,0,87,283.42903300000035,,,,,,,,,,,,,,,,,,,,,,,,,,,,,,,,,,,,,,,,,,,,,,,,,,283.4138553999983,283.42903300000035,283.95940269999846,283.9129211999971,283.95663799999966,283.95940269999846,283.95940269999846,283.95940269999846,285.16322659999787,Objects\202b.jpg,post,s,1.189019700002973,None,,,,,,,,00063,001,2026-01-19_22h22.35.848,MST_test,2024.2.0,59.99030556656854,2026-01-19 22h23.10.122058 +0530,
88,0,89,n,1.7414828999972087,None,89,0,88,285.17911979999917,,,,,,,,,,,,,,,,,,,,,,,,,,,,,,,,,,,,,,,,,,,,,,,,,,285.1635897999986,285.17911979999917,285.67954479999753,285.6629079999984,285.671967899998,285.67954479999753,285.67954479999753,285.67954479999753,287.4294308999997,Foils\101b.jpg,none,n,1.7414828999972087,None,,,,,,,,00063,001,2026-01-19_22h22.35.848,MST_test,2024.2.0,59.99030556656854,2026-01-19 22h23.10.122058 +0530,
89,0,90,n,1.431084900003043,None,90,0,89,287.44587479999973,,,,,,,,,,,,,,,,,,,,,,,,,,,,,,,,,,,,,,,,,,,,,,,,,,287.4298180000005,287.44587479999973,287.9654989999981,287.92950629999905,287.9630072,287.9654989999981,287.9654989999981,287.9654989999981,289.4132193999976,Objects\282b.jpg,mid,n,1.431084900003043,None,,,,,,,,00063,001,2026-01-19_22h22.35.848,MST_test,2024.2.0,59.99030556656854,2026-01-19 22h23.10.122058 +0530,
90,0,91,o,1.4673552999993262,None,91,0,90,289.4287282000005,,,,,,,,,,,,,,,,,,,,,,,,,,,,,,,,,,,,,,,,,,,,,,,,,,289.41359269999884,289.4287282000005,289.9293254000004,289.9129251999984,289.91812299999947,289.9293254000004,289.9293254000004,289.9293254000004,291.41317569999956,Objects\144a.jpg,pre,o,1.4673552999993262,None,,,,,,,,00063,001,2026-01-19_22h22.35.848,MST_test,2024.2.0,59.99030556656854,2026-01-19 22h23.10.122058 +0530,
91,0,92,o,1.937812500000291,None,92,0,91,291.4291598999989,,,,,,,,,,,,,,,,,,,,,,,,,,,,,,,,,,,,,,,,,,,,,,,,,,291.4135169999972,291.4291598999989,291.9468296999985,291.9129183999976,291.9445825999974,291.9468296999985,291.9468296999985,291.9468296999985,293.8964522999995,Objects\200b.jpg,post,o,1.937812500000291,None,,,,,,,,00063,001,2026-01-19_22h22.35.848,MST_test,2024.2.0,59.99030556656854,2026-01-19 22h23.10.122058 +0530,
92,0,93,o,2.21255949999977,None,93,0,92,293.91250880000007,,,,,,,,,,,,,,,,,,,,,,,,,,,,,,,,,,,,,,,,,,,,,,,,,,293.8966825999996,293.91250880000007,294.44049950000044,294.3960853999997,294.43825229999857,294.44049950000044,294.44049950000044,294.44049950000044,296.6632017999982,Objects\204b.jpg,post,o,2.21255949999977,None,,,,,,,,00063,001,2026-01-19_22h22.35.848,MST_test,2024.2.0,59.99030556656854,2026-01-19 22h23.10.122058 +0530,
93,0,94,s,0.8943570999981603,None,94,0,93,296.6790884999973,,,,,,,,,,,,,,,,,,,,,,,,,,,,,,,,,,,,,,,,,,,,,,,,,,296.6636433999993,296.6790884999973,297.214677699998,297.162918799997,297.21229649999805,297.214677699998,297.214677699998,297.214677699998,298.1131069000003,Objects\296b.jpg,pre,s,0.8943570999981603,None,,,,,,,,00063,001,2026-01-19_22h22.35.848,MST_test,2024.2.0,59.99030556656854,2026-01-19 22h23.10.122058 +0530,
94,0,95,n,2.4367975999994087,None,95,0,94,298.1291870999994,,,,,,,,,,,,,,,,,,,,,,,,,,,,,,,,,,,,,,,,,,,,,,,,,,298.1134471000005,298.1291870999994,298.6642286999995,298.6127204000004,298.6608965999985,298.6642286999995,298.6642286999995,298.6642286999995,301.1134963000004,Objects\263b.jpg,pre,n,2.4367975999994087,None,,,,,,,,00063,001,2026-01-19_22h22.35.848,MST_test,2024.2.0,59.99030556656854,2026-01-19 22h23.10.122058 +0530,
95,0,96,n,1.0074630999988585,None,96,0,95,301.12952909999876,,,,,,,,,,,,,,,,,,,,,,,,,,,,,,,,,,,,,,,,,,,,,,,,,,301.1138729999984,301.12952909999876,301.6295484000002,301.6128362999989,301.6202013000002,301.6295484000002,301.6295484000002,301.6295484000002,302.6462963999984,Foils\f5.jpg,none,n,1.0074630999988585,None,,,,,,,,00063,001,2026-01-19_22h22.35.848,MST_test,2024.2.0,59.99030556656854,2026-01-19 22h23.10.122058 +0530,
96,0,97,o,0.9566535000012664,None,97,0,96,302.66243699999904,,,,,,,,,,,,,,,,,,,,,,,,,,,,,,,,,,,,,,,,,,,,,,,,,,302.6466384999985,302.66243699999904,,303.14761969999745,303.1893476999976,303.1917171999994,303.1917171999994,303.1917171999994,304.1627088999994,Objects\118b.jpg,mid,o,0.9566535000012664,None,,,,,,,,00063,001,2026-01-19_22h22.35.848,MST_test,2024.2.0,59.99030556656854,2026-01-19 22h23.10.122058 +0530,
97,0,98,n,1.7416108999968856,None,98,0,97,304.1787392999977,,,,,,,,,,,,,,,,,,,,,,,,,,,,,,,,,,,,,,,,,,,,,,,,,,304.16303159999734,304.1787392999977,304.6794169999994,304.6628117,304.6720118999983,304.6794169999994,304.6794169999994,304.6794169999994,306.429590599997,Foils\093b.jpg,none,n,1.7416108999968856,None,,,,,,,,00063,001,2026-01-19_22h22.35.848,MST_test,2024.2.0,59.99030556656854,2026-01-19 22h23.10.122058 +0530,
98,0,99,s,0.979123699999036,None,99,0,98,306.4458562,,,,,,,,,,,,,,,,,,,,,,,,,,,,,,,,,,,,,,,,,,,,,,,,,,306.4299374999973,306.4458562,306.9458879999984,306.92936559999725,306.93505860000005,306.9458879999984,306.9458879999984,306.9458879999984,307.92971939999916,Objects\111a.jpg,pre,s,0.979123699999036,None,,,,,,,,00063,001,2026-01-19_22h22.35.848,MST_test,2024.2.0,59.99030556656854,2026-01-19 22h23.10.122058 +0530,
99,0,100,o,0.9661569000018062,None,100,0,99,307.9458814999998,,,,,,,,,,,,,,,,,,,,,,,,,,,,,,,,,,,,,,,,,,,,,,,,,,307.93010389999836,307.9458814999998,308.44626739999876,308.42976759999874,308.4391547999985,308.44626739999876,308.44626739999876,308.44626739999876,309.4142820999987,Objects\281a.jpg,post,o,0.9661569000018062,None,,,,,,,,00063,001,2026-01-19_22h22.35.848,MST_test,2024.2.0,59.99030556656854,2026-01-19 22h23.10.122058 +0530,
100,0,101,n,0.9469658999987587,None,101,0,100,309.42920310000045,,,,,,,,,,,,,,,,,,,,,,,,,,,,,,,,,,,,,,,,,,,,,,,,,,309.41462789999787,309.42920310000045,309.9296426000001,309.9128095999986,309.92186159999983,309.9296426000001,309.9296426000001,309.9296426000001,310.87948219999817,Objects\250a.jpg,pre,n,0.9469658999987587,None,,,,,,,,00063,001,2026-01-19_22h22.35.848,MST_test,2024.2.0,59.99030556656854,2026-01-19 22h23.10.122058 +0530,
101,0,102,s,1.175104800000554,None,102,0,101,310.8958000999992,,,,,,,,,,,,,,,,,,,,,,,,,,,,,,,,,,,,,,,,,,,,,,,,,,310.87982799999736,310.8958000999992,311.4293618999982,311.3793678999973,311.4271955999975,311.4293618999982,311.4293618999982,311.4293618999982,312.6130252999974,Objects\194b.jpg,mid,s,1.175104800000554,None,,,,,,,,00063,001,2026-01-19_22h22.35.848,MST_test,2024.2.0,59.99030556656854,2026-01-19 22h23.10.122058 +0530,
102,0,103,o,0.9550343999981123,None,103,0,102,312.6290921,,,,,,,,,,,,,,,,,,,,,,,,,,,,,,,,,,,,,,,,,,,,,,,,,,312.61336929999743,312.6290921,313.1295399999981,313.1129077000005,313.1198805999993,313.1295399999981,313.1295399999981,313.1295399999981,314.0965566999985,Objects\364a.jpg,post,o,0.9550343999981123,None,,,,,,,,00063,001,2026-01-19_22h22.35.848,MST_test,2024.2.0,59.99030556656854,2026-01-19 22h23.10.122058 +0530,
103,0,104,n,1.1437654000001203,None,104,0,103,314.11230369999976,,,,,,,,,,,,,,,,,,,,,,,,,,,,,,,,,,,,,,,,,,,,,,,,,,314.096906499999,314.11230369999976,314.61296070000026,314.5959691999997,314.6050708999974,314.61296070000026,314.61296070000026,314.61296070000026,315.7631677999998,Objects\173a.jpg,post,n,1.1437654000001203,None,,,,,,,,00063,001,2026-01-19_22h22.35.848,MST_test,2024.2.0,59.99030556656854,2026-01-19 22h23.10.122058 +0530,
104,0,105,s,0.842317999999068,None,105,0,104,315.7791201,,,,,,,,,,,,,,,,,,,,,,,,,,,,,,,,,,,,,,,,,,,,,,,,,,315.76353299999755,315.7791201,316.3060803999979,316.26291649999985,316.30402179999874,316.3060803999979,316.3060803999979,316.3060803999979,317.1631675999997,Objects\025b.jpg,mid,s,0.842317999999068,None,,,,,,,,00063,001,2026-01-19_22h22.35.848,MST_test,2024.2.0,59.99030556656854,2026-01-19 22h23.10.122058 +0530,
105,0,106,o,1.054012699998566,None,106,0,105,317.1791115999986,,,,,,,,,,,,,,,,,,,,,,,,,,,,,,,,,,,,,,,,,,,,,,,,,,317.1635181999991,317.1791115999986,317.70300329999736,317.66288319999876,317.7005023999991,317.70300329999736,317.70300329999736,317.70300329999736,318.7628506000001,Objects\082b.jpg,pre,o,1.054012699998566,None,,,,,,,,00063,001,2026-01-19_22h22.35.848,MST_test,2024.2.0,59.99030556656854,2026-01-19 22h23.10.122058 +0530,
106,0,107,n,1.421261700001196,None,107,0,106,318.7791173000005,,,,,,,,,,,,,,,,,,,,,,,,,,,,,,,,,,,,,,,,,,,,,,,,,,318.76321259999895,318.7791173000005,319.2791225999972,319.262711899999,319.27111859999786,319.2791225999972,319.2791225999972,319.2791225999972,320.71318059999976,Objects\064a.jpg,mid,n,1.421261700001196,None,,,,,,,,00063,001,2026-01-19_22h22.35.848,MST_test,2024.2.0,59.99030556656854,2026-01-19 22h23.10.122058 +0530,
107,0,108,s,1.1829150000012305,None,108,0,107,320.7290393999974,,,,,,,,,,,,,,,,,,,,,,,,,,,,,,,,,,,,,,,,,,,,,,,,,,320.71349949999785,320.7290393999974,321.2294719999991,321.2127894000005,321.22159819999797,321.2294719999991,321.2294719999991,321.2294719999991,322.4294544999975,Objects\182a.jpg,post,s,1.1829150000012305,None,,,,,,,,00063,001,2026-01-19_22h22.35.848,MST_test,2024.2.0,59.99030556656854,2026-01-19 22h23.10.122058 +0530,
108,0,109,s,1.9629767999977048,None,109,0,108,322.44584939999913,,,,,,,,,,,,,,,,,,,,,,,,,,,,,,,,,,,,,,,,,,,,,,,,,,322.42980199999874,322.44584939999913,322.94602099999975,322.9295091999993,322.93822100000034,322.94602099999975,322.94602099999975,322.94602099999975,324.91316169999845,Objects\242a.jpg,pre,s,1.9629767999977048,None,,,,,,,,00063,001,2026-01-19_22h22.35.848,MST_test,2024.2.0,59.99030556656854,2026-01-19 22h23.10.122058 +0530,
109,0,110,o,1.0791800999977568,None,110,0,109,324.9291114999978,,,,,,,,,,,,,,,,,,,,,,,,,,,,,,,,,,,,,,,,,,,,,,,,,,324.91351639999993,324.9291114999978,325.45380809999915,325.41291160000037,325.4509930999993,325.45380809999915,325.45380809999915,325.45380809999915,326.5472970999981,Objects\174b.jpg,post,o,1.0791800999977568,None,,,,,,,,00063,001,2026-01-19_22h22.35.848,MST_test,2024.2.0,59.99030556656854,2026-01-19 22h23.10.122058 +0530,
110,0,111,o,0.7903922999976203,None,111,0,110,326.5622913999978,,,,,,,,,,,,,,,,,,,,,,,,,,,,,,,,,,,,,,,,,,,,,,,,,,326.5476904999996,326.5622913999978,327.06260909999764,327.04624859999967,327.054451,327.06260909999764,327.06260909999764,327.06260909999764,327.86315679999825,Objects\040a.jpg,mid,o,0.7903922999976203,None,,,,,,,,00063,001,2026-01-19_22h22.35.848,MST_test,2024.2.0,59.99030556656854,2026-01-19 22h23.10.122058 +0530,
111,0,112,n,0.7216040999992401,None,112,0,111,327.87911899999744,,,,,,,,,,,,,,,,,,,,,,,,,,,,,,,,,,,,,,,,,,,,,,,,,,327.86349549999795,327.87911899999744,328.3794065999973,328.36291359999814,328.3728950000004,328.3794065999973,328.3794065999973,328.3794065999973,329.11315979999927,Foils\002a.jpg,none,n,0.7216040999992401,None,,,,,,,,00063,001,2026-01-19_22h22.35.848,MST_test,2024.2.0,59.99030556656854,2026-01-19 22h23.10.122058 +0530,
112,0,113,o,0.9749348999976064,None,113,0,112,329.1291158999993,,,,,,,,,,,,,,,,,,,,,,,,,,,,,,,,,,,,,,,,,,,,,,,,,,329.11350019999736,329.1291158999993,329.6295162999995,329.6121859999985,329.62082929999815,329.6295162999995,329.6295162999995,329.6295162999995,330.61313990000053,Objects\360a.jpg,mid,o,0.9749348999976064,None,,,,,,,,00063,001,2026-01-19_22h22.35.848,MST_test,2024.2.0,59.99030556656854,2026-01-19 22h23.10.122058 +0530,
113,0,114,o,1.169675000001007,None,114,0,113,330.62912249999863,,,,,,,,,,,,,,,,,,,,,,,,,,,,,,,,,,,,,,,,,,,,,,,,,,330.6134901999976,330.62912249999863,331.1549441999996,331.11291319999873,331.1526328999971,331.1549441999996,331.1549441999996,331.1549441999996,332.32976939999935,Objects\319b.jpg,pre,o,1.169675000001007,None,,,,,,,,00063,001,2026-01-19_22h22.35.848,MST_test,2024.2.0,59.99030556656854,2026-01-19 22h23.10.122058 +0530,
114,0,115,o,1.1344023999990895,None,115,0,114,332.34578169999804,,,,,,,,,,,,,,,,,,,,,,,,,,,,,,,,,,,,,,,,,,,,,,,,,,332.3301145000005,332.34578169999804,332.8461518999975,332.82938730000023,332.8411629999973,332.8461518999975,332.8461518999975,332.8461518999975,333.99637809999695,Objects\297a.jpg,pre,o,1.1344023999990895,None,,,,,,,,00063,001,2026-01-19_22h22.35.848,MST_test,2024.2.0,59.99030556656854,2026-01-19 22h23.10.122058 +0530,
115,0,116,s,0.9979521999994176,None,116,0,115,334.01238029999877,,,,,,,,,,,,,,,,,,,,,,,,,,,,,,,,,,,,,,,,,,,,,,,,,,333.9967481999993,334.01238029999877,334.54257249999864,334.496315999997,334.5401951999993,334.54257249999864,334.54257249999864,334.54257249999864,335.5465207999987,Objects\106b.jpg,mid,s,0.9979521999994176,None,,,,,,,,00063,001,2026-01-19_22h22.35.848,MST_test,2024.2.0,59.99030556656854,2026-01-19 22h23.10.122058 +0530,
116,0,117,o,1.5260460999998031,None,117,0,116,335.56245039999703,,,,,,,,,,,,,,,,,,,,,,,,,,,,,,,,,,,,,,,,,,,,,,,,,,335.5468671999988,335.56245039999703,336.06299939999735,336.0461808999971,336.0531420999978,336.06299939999735,336.06299939999735,336.06299939999735,337.5965639999995,Objects\304a.jpg,post,o,1.5260460999998031,None,,,,,,,,00063,001,2026-01-19_22h22.35.848,MST_test,2024.2.0,59.99030556656854,2026-01-19 22h23.10.122058 +0530,
117,0,118,o,0.9934777000016766,None,118,0,117,337.612515599998,,,,,,,,,,,,,,,,,,,,,,,,,,,,,,,,,,,,,,,,,,,,,,,,,,337.59693889999835,337.612515599998,338.13884549999784,338.0962402999976,338.13618289999795,338.13884549999784,338.13884549999784,338.13884549999784,339.14642319999984,Objects\128b.jpg,post,o,0.9934777000016766,None,,,,,,,,00063,001,2026-01-19_22h22.35.848,MST_test,2024.2.0,59.99030556656854,2026-01-19 22h23.10.122058 +0530,
118,0,119,n,1.006367500001943,None,119,0,118,339.1625052999989,,,,,,,,,,,,,,,,,,,,,,,,,,,,,,,,,,,,,,,,,,,,,,,,,,339.1467703999988,339.1625052999989,339.66260639999746,339.6461371999976,339.6548487,339.66260639999746,339.66260639999746,339.66260639999746,340.6796754999996,Foils\010a.jpg,none,n,1.006367500001943,None,,,,,,,,00063,001,2026-01-19_22h22.35.848,MST_test,2024.2.0,59.99030556656854,2026-01-19 22h23.10.122058 +0530,
119,0,120,n,1.1467430000011518,None,120,0,119,340.69584739999846,,,,,,,,,,,,,,,,,,,,,,,,,,,,,,,,,,,,,,,,,,,,,,,,,,340.68004929999734,340.69584739999846,341.2259258999984,341.1795168999997,341.2236458999978,341.2259258999984,341.2259258999984,341.2259258999984,342.37964849999844,Objects\316b.jpg,post,n,1.1467430000011518,None,,,,,,,,00063,001,2026-01-19_22h22.35.848,MST_test,2024.2.0,59.99030556656854,2026-01-19 22h23.10.122058 +0530,
120,0,121,o,1.1239343000015651,None,121,0,120,342.3957828999992,,,,,,,,,,,,,,,,,,,,,,,,,,,,,,,,,,,,,,,,,,,,,,,,,,342.38003259999823,342.3957828999992,342.8964135999995,342.8792218999988,342.8889815000002,342.8964135999995,342.8964135999995,342.8964135999995,344.0295473999977,Objects\295a.jpg,pre,o,1.1239343000015651,None,,,,,,,,00063,001,2026-01-19_22h22.35.848,MST_test,2024.2.0,59.99030556656854,2026-01-19 22h23.10.122058 +0530,
121,0,122,o,1.7067016000000876,None,122,0,121,344.0457690999974,,,,,,,,,,,,,,,,,,,,,,,,,,,,,,,,,,,,,,,,,,,,,,,,,,344.02980919999754,344.0457690999974,344.54628149999917,344.5295186999974,344.5392303999979,344.54628149999917,344.54628149999917,344.54628149999917,346.26320320000013,Objects\108a.jpg,mid,o,1.7067016000000876,None,,,,,,,,00063,001,2026-01-19_22h22.35.848,MST_test,2024.2.0,59.99030556656854,2026-01-19 22h23.10.122058 +0530,
122,0,123,s,1.4010177000018302,None,123,0,122,346.2791225999972,,,,,,,,,,,,,,,,,,,,,,,,,,,,,,,,,,,,,,,,,,,,,,,,,,346.26355639999747,346.2791225999972,,346.7636195999985,346.77265830000033,346.77935069999876,346.77935069999876,346.77935069999876,348.1967819999991,Objects\161b.jpg,post,s,1.4010177000018302,None,,,,,,,,00063,001,2026-01-19_22h22.35.848,MST_test,2024.2.0,59.99030556656854,2026-01-19 22h23.10.122058 +0530,
123,0,124,o,2.180015599999024,None,124,0,123,348.21252449999884,,,,,,,,,,,,,,,,,,,,,,,,,,,,,,,,,,,,,,,,,,,,,,,,,,348.1971405000004,348.21252449999884,348.7129633000004,348.695960699999,348.70514139999796,348.7129633000004,348.7129633000004,348.7129633000004,350.8967112999999,Objects\335a.jpg,mid,o,2.180015599999024,None,,,,,,,,00063,001,2026-01-19_22h22.35.848,MST_test,2024.2.0,59.99030556656854,2026-01-19 22h23.10.122058 +0530,
124,0,125,s,1.3828257000022859,None,125,0,124,350.9125865999995,,,,,,,,,,,,,,,,,,,,,,,,,,,,,,,,,,,,,,,,,,,,,,,,,,350.8970842999988,350.9125865999995,351.4137523999998,351.3962517,351.4064789999975,351.4137523999998,351.4137523999998,351.4137523999998,352.81320069999856,Objects\239a.jpg,post,s,1.3828257000022859,None,,,,,,,,00063,001,2026-01-19_22h22.35.848,MST_test,2024.2.0,59.99030556656854,2026-01-19 22h23.10.122058 +0530,
125,0,126,o,1.6033796000010625,None,126,0,125,352.8291176999992,,,,,,,,,,,,,,,,,,,,,,,,,,,,,,,,,,,,,,,,,,,,,,,,,,352.8135457999997,352.8291176999992,353.3295947999977,353.31262309999875,353.3207939999993,353.3295947999977,353.3295947999977,353.3295947999977,354.94651689999955,Objects\045a.jpg,mid,o,1.6033796000010625,None,,,,,,,,00063,001,2026-01-19_22h22.35.848,MST_test,2024.2.0,59.99030556656854,2026-01-19 22h23.10.122058 +0530,
126,0,127,n,1.363599799999065,None,127,0,126,354.96253889999934,,,,,,,,,,,,,,,,,,,,,,,,,,,,,,,,,,,,,,,,,,,,,,,,,,354.94686,354.96253889999934,355.4893792999974,355.44597539999813,355.4873883,355.4893792999974,355.4893792999974,355.4893792999974,356.86316090000037,Objects\120b.jpg,pre,n,1.363599799999065,None,,,,,,,,00063,001,2026-01-19_22h22.35.848,MST_test,2024.2.0,59.99030556656854,2026-01-19 22h23.10.122058 +0530,
127,0,128,s,1.1615341999968223,None,128,0,127,356.87915149999753,,,,,,,,,,,,,,,,,,,,,,,,,,,,,,,,,,,,,,,,,,,,,,,,,,356.86350499999753,356.87915149999753,357.3793353000001,357.3629177999974,357.3676130999993,357.3793353000001,357.3793353000001,357.3793353000001,358.54642359999707,Objects\052b.jpg,post,s,1.1615341999968223,None,,,,,,,,00063,001,2026-01-19_22h22.35.848,MST_test,2024.2.0,59.99030556656854,2026-01-19 22h23.10.122058 +0530,
128,0,129,n,2.5218318000006548,None,129,0,128,358.5625446999984,,,,,,,,,,,,,,,,,,,,,,,,,,,,,,,,,,,,,,,,,,,,,,,,,,358.54676619999736,358.5625446999984,359.0906032999992,359.04625139999916,359.08827759999986,359.0906032999992,359.0906032999992,359.0906032999992,361.62979189999896,Objects\336b.jpg,mid,n,2.5218318000006548,None,,,,,,,,00063,001,2026-01-19_22h22.35.848,MST_test,2024.2.0,59.99030556656854,2026-01-19 22h23.10.122058 +0530,
129,0,130,o,1.960144799999398,None,130,0,129,361.6458229999989,,,,,,,,,,,,,,,,,,,,,,,,,,,,,,,,,,,,,,,,,,,,,,,,,,361.63016979999884,361.6458229999989,362.18018089999896,362.1295141999981,362.17773730000044,362.18018089999896,362.18018089999896,362.18018089999896,364.1461539999982,Objects\205b.jpg,post,o,1.960144799999398,None,,,,,,,,00063,001,2026-01-19_22h22.35.848,MST_test,2024.2.0,59.99030556656854,2026-01-19 22h23.10.122058 +0530,
130,0,131,s,1.2304151999996975,None,131,0,130,364.16218429999935,,,,,,,,,,,,,,,,,,,,,,,,,,,,,,,,,,,,,,,,,,,,,,,,,,364.14650690000053,364.16218429999935,364.6625729999978,364.6461866999998,364.65896209999846,364.6625729999978,364.6625729999978,364.6625729999978,365.8964793999985,Objects\184a.jpg,post,s,1.2304151999996975,None,,,,,,,,00063,001,2026-01-19_22h22.35.848,MST_test,2024.2.0,59.99030556656854,2026-01-19 22h23.10.122058 +0530,
131,0,132,n,1.1106245000009949,None,132,0,131,365.9125553999984,,,,,,,,,,,,,,,,,,,,,,,,,,,,,,,,,,,,,,,,,,,,,,,,,,365.8968543999981,365.9125553999984,366.43035149999923,366.3961939999972,366.42822369999703,366.43035149999923,366.43035149999923,366.43035149999923,367.54632039999706,Objects\077b.jpg,post,n,1.1106245000009949,None,,,,,,,,00063,001,2026-01-19_22h22.35.848,MST_test,2024.2.0,59.99030556656854,2026-01-19 22h23.10.122058 +0530,
132,0,133,o,1.8386899000033736,None,133,0,132,367.5625294999991,,,,,,,,,,,,,,,,,,,,,,,,,,,,,,,,,,,,,,,,,,,,,,,,,,367.5466677000004,367.5625294999991,368.0623016999998,368.04623309999806,368.05497040000046,368.0623016999998,368.0623016999998,368.0623016999998,369.9131920999971,Objects\104a.jpg,mid,o,1.8386899000033736,None,,,,,,,,00063,001,2026-01-19_22h22.35.848,MST_test,2024.2.0,59.99030556656854,2026-01-19 22h23.10.122058 +0530,
133,0,134,o,1.6313281000002462,None,134,0,133,369.9291201999986,,,,,,,,,,,,,,,,,,,,,,,,,,,,,,,,,,,,,,,,,,,,,,,,,,369.91353099999833,369.9291201999986,,370.41425589999926,370.4243709000002,370.4296628999982,370.4296628999982,370.4296628999982,372.063005,Objects\256a.jpg,pre,o,1.6313281000002462,None,,,,,,,,00063,001,2026-01-19_22h22.35.848,MST_test,2024.2.0,59.99030556656854,2026-01-19 22h23.10.122058 +0530,
134,0,135,o,1.1131683999992674,None,135,0,134,372.07888699999967,,,,,,,,,,,,,,,,,,,,,,,,,,,,,,,,,,,,,,,,,,,,,,,,,,372.0633543999975,372.07888699999967,372.57962789999874,372.5629349999981,372.5721440999987,372.57962789999874,372.57962789999874,372.57962789999874,373.6964369999987,Objects\241a.jpg,mid,o,1.1131683999992674,None,,,,,,,,00063,001,2026-01-19_22h22.35.848,MST_test,2024.2.0,59.99030556656854,2026-01-19 22h23.10.122058 +0530,
135,0,136,s,1.3840883000011672,None,136,0,135,373.71252319999985,,,,,,,,,,,,,,,,,,,,,,,,,,,,,,,,,,,,,,,,,,,,,,,,,,373.6967807000001,373.71252319999985,374.21259479999935,374.1959747999972,374.2036019999978,374.21259479999935,374.21259479999935,374.21259479999935,375.61323189999894,Objects\190a.jpg,pre,s,1.3840883000011672,None,,,,,,,,00063,001,2026-01-19_22h22.35.848,MST_test,2024.2.0,59.99030556656854,2026-01-19 22h23.10.122058 +0530,
136,0,137,o,0.8113038999981654,None,137,0,136,375.62923359999695,,,,,,,,,,,,,,,,,,,,,,,,,,,,,,,,,,,,,,,,,,,,,,,,,,375.6136069999993,375.62923359999695,376.12965549999717,376.11295339999924,376.119755599997,376.12965549999717,376.12965549999717,376.12965549999717,376.94643240000005,Objects\300a.jpg,post,o,0.8113038999981654,None,,,,,,,,00063,001,2026-01-19_22h22.35.848,MST_test,2024.2.0,59.99030556656854,2026-01-19 22h23.10.122058 +0530,
137,0,138,n,0.9812973000007332,None,138,0,137,376.9625161999975,,,,,,,,,,,,,,,,,,,,,,,,,,,,,,,,,,,,,,,,,,,,,,,,,,376.94677260000026,376.9625161999975,377.48746089999986,377.44620099999884,377.4850942999983,377.48746089999986,377.48746089999986,377.48746089999986,378.47986449999735,Objects\046b.jpg,pre,n,0.9812973000007332,None,,,,,,,,00063,001,2026-01-19_22h22.35.848,MST_test,2024.2.0,59.99030556656854,2026-01-19 22h23.10.122058 +0530,
138,0,139,o,1.6927161999992677,None,139,0,138,378.49579079999967,,,,,,,,,,,,,,,,,,,,,,,,,,,,,,,,,,,,,,,,,,,,,,,,,,378.48022499999934,378.49579079999967,379.0396652999989,378.97958970000036,379.0375654999989,379.0396652999989,379.0396652999989,379.0396652999989,380.7464617000005,Objects\085b.jpg,pre,o,1.6927161999992677,None,,,,,,,,00063,001,2026-01-19_22h22.35.848,MST_test,2024.2.0,59.99030556656854,2026-01-19 22h23.10.122058 +0530,
139,0,140,o,1.2460586999986845,None,140,0,139,380.7623375999974,,,,,,,,,,,,,,,,,,,,,,,,,,,,,,,,,,,,,,,,,,,,,,,,,,380.7468190999971,380.7623375999974,381.2622902000003,381.24612969999725,381.2552137999992,381.2622902000003,381.2622902000003,381.2622902000003,382.512905399999,Objects\096b.jpg,pre,o,1.2460586999986845,None,,,,,,,,00063,001,2026-01-19_22h22.35.848,MST_test,2024.2.0,59.99030556656854,2026-01-19 22h23.10.122058 +0530,
140,0,141,s,0.9754336000005424,None,141,0,140,382.5292311999983,,,,,,,,,,,,,,,,,,,,,,,,,,,,,,,,,,,,,,,,,,,,,,,,,,382.51328060000014,382.5292311999983,383.0291741999972,383.012527699997,383.0220165999999,383.0291741999972,383.0291741999972,383.0291741999972,384.01310249999733,Objects\042a.jpg,pre,s,0.9754336000005424,None,,,,,,,,00063,001,2026-01-19_22h22.35.848,MST_test,2024.2.0,59.99030556656854,2026-01-19 22h23.10.122058 +0530,
141,0,142,s,1.0595651000003272,None,142,0,141,384.0291870000001,,,,,,,,,,,,,,,,,,,,,,,,,,,,,,,,,,,,,,,,,,,,,,,,,,384.0134474999977,384.0291870000001,,384.51362789999985,384.5200397999979,384.52938749999885,384.52938749999885,384.52938749999885,385.5965176999998,Objects\193a.jpg,mid,s,1.0595651000003272,None,,,,,,,,00063,001,2026-01-19_22h22.35.848,MST_test,2024.2.0,59.99030556656854,2026-01-19 22h23.10.122058 +0530,
142,0,143,s,1.4339964000027976,None,143,0,142,385.6124691999976,,,,,,,,,,,,,,,,,,,,,,,,,,,,,,,,,,,,,,,,,,,,,,,,,,385.59686539999893,385.6124691999976,386.13901129999795,386.0961107000003,386.13701070000025,386.13901129999795,386.13901129999795,386.13901129999795,387.5798407000002,Objects\020b.jpg,mid,s,1.4339964000027976,None,,,,,,,,00063,001,2026-01-19_22h22.35.848,MST_test,2024.2.0,59.99030556656854,2026-01-19 22h23.10.122058 +0530,
143,0,144,n,1.0135194000031333,None,144,0,143,387.59588839999924,,,,,,,,,,,,,,,,,,,,,,,,,,,,,,,,,,,,,,,,,,,,,,,,,,387.58018589999847,387.59588839999924,388.09582489999957,388.079497499999,388.08941330000016,388.09582489999957,388.09582489999957,388.09582489999957,389.11282319999737,Objects\091b.jpg,mid,n,1.0135194000031333,None,,,,,,,,00063,001,2026-01-19_22h22.35.848,MST_test,2024.2.0,59.99030556656854,2026-01-19 22h23.10.122058 +0530,
144,0,145,n,0.9699168999977701,None,145,0,144,389.12919630000033,,,,,,,,,,,,,,,,,,,,,,,,,,,,,,,,,,,,,,,,,,,,,,,,,,389.1131795000001,389.12919630000033,389.6585434999979,389.61286109999855,389.65638860000035,389.6585434999979,389.6585434999979,389.6585434999979,390.62998030000017,Foils\081a.jpg,none,n,0.9699168999977701,None,,,,,,,,00063,001,2026-01-19_22h22.35.848,MST_test,2024.2.0,59.99030556656854,2026-01-19 22h23.10.122058 +0530,
145,0,146,o,0.7494339999975637,None,146,0,145,390.6462982999983,,,,,,,,,,,,,,,,,,,,,,,,,,,,,,,,,,,,,,,,,,,,,,,,,,390.63032380000004,390.6462982999983,391.17552389999764,391.13002159999814,391.1733107999971,391.17552389999764,391.17552389999764,391.17552389999764,391.9303841999972,Objects\284b.jpg,mid,o,0.7494339999975637,None,,,,,,,,00063,001,2026-01-19_22h22.35.848,MST_test,2024.2.0,59.99030556656854,2026-01-19 22h23.10.122058 +0530,
146,0,147,o,0.9349245000012161,None,147,0,146,391.9458635999981,,,,,,,,,,,,,,,,,,,,,,,,,,,,,,,,,,,,,,,,,,,,,,,,,,391.9307321999986,391.9458635999981,392.4774856999975,392.4296149999973,392.4753071999985,392.4774856999975,392.4774856999975,392.4774856999975,393.4132151999984,Objects\199b.jpg,pre,o,0.9349245000012161,None,,,,,,,,00063,001,2026-01-19_22h22.35.848,MST_test,2024.2.0,59.99030556656854,2026-01-19 22h23.10.122058 +0530,
147,0,148,n,2.0349628000003577,None,148,0,147,393.4291964999975,,,,,,,,,,,,,,,,,,,,,,,,,,,,,,,,,,,,,,,,,,,,,,,,,,393.41356859999723,393.4291964999975,,393.91346729999714,393.9236888999985,393.929577699997,393.929577699997,393.929577699997,395.97996819999753,Objects\269a.jpg,pre,n,2.0349628000003577,None,,,,,,,,00063,001,2026-01-19_22h22.35.848,MST_test,2024.2.0,59.99030556656854,2026-01-19 22h23.10.122058 +0530,
148,0,149,n,0.8763440000002447,None,149,0,148,395.996113899997,,,,,,,,,,,,,,,,,,,,,,,,,,,,,,,,,,,,,,,,,,,,,,,,,,395.9803408999978,395.996113899997,396.4962667999971,396.4793073000001,396.4884170000005,396.4962667999971,396.4962667999971,396.4962667999971,397.37987259999863,Objects\350b.jpg,pre,n,0.8763440000002447,None,,,,,,,,00063,001,2026-01-19_22h22.35.848,MST_test,2024.2.0,59.99030556656854,2026-01-19 22h23.10.122058 +0530,
149,0,150,o,0.700337700000091,None,150,0,149,397.3958619999976,,,,,,,,,,,,,,,,,,,,,,,,,,,,,,,,,,,,,,,,,,,,,,,,,,397.380221899999,397.3958619999976,397.8960740000002,397.87960199999725,397.88926509999874,397.8960740000002,397.8960740000002,397.8960740000002,398.6132564999971,Objects\122b.jpg,post,o,0.700337700000091,None,,,,,,,,00063,001,2026-01-19_22h22.35.848,MST_test,2024.2.0,59.99030556656854,2026-01-19 22h23.10.122058 +0530,
,,,,,,,,,,,,,,,,,,,,,,,,,,,,,,,,,,,,,,,,,,,,,,,,,,,,,,,,,,,,,,,,,,,,,,,,,398.61348779999753,398.62906459999795,398.62906459999795,399.96264339999834,space,1.3276745000002848,None,00063,001,2026-01-19_22h22.35.848,MST_test,2024.2.0,59.99030556656854,2026-01-19 22h23.10.122058 +0530,
