thisN,thisTrialN,thisRepN,key_resp_3.keys,key_resp_3.rt,key_resp_3.duration,trials.thisRepN,trials.thisTrialN,trials.thisN,thisRow.t,notes,intro_page.started,text.started,key_resp.started,intro_page.stopped,key_resp.keys,key_resp.rt,key_resp.duration,instructions.started,text_2.started,key_resp_2.started,instructions.stopped,key_resp_2.keys,key_resp_2.rt,key_resp_2.duration,demo1.started,image_1.started,image_2.started,text_7.started,key_resp_6.started,text_9.started,demo1.stopped,key_resp_6.keys,key_resp_6.rt,key_resp_6.duration,demo3.started,image_5.started,image_6.started,text_11.started,text_12.started,key_resp_8.started,demo3.stopped,key_resp_8.keys,key_resp_8.rt,key_resp_8.duration,demo_conclusion.started,text_13.started,key_resp_9.started,demo_conclusion.stopped,key_resp_9.keys,key_resp_9.rt,key_resp_9.duration,start_test.started,text_6.started,key_resp_5.started,start_test.stopped,key_resp_5.keys,key_resp_5.rt,key_resp_5.duration,ISI.started,text_4.started,ISI.stopped,routine_1.started,image.started,text_3.started,key_resp_3.started,routine_1.stopped,image_path,position_of_stimuli,trials.key_resp_3.keys,trials.key_resp_3.rt,trials.key_resp_3.duration,text_4.stopped,End_page.started,text_5.started,key_resp_4.started,End_page.stopped,key_resp_4.keys,key_resp_4.rt,key_resp_4.duration,participant,session,date,expName,psychopyVersion,frameRate,expStart,
,,,,,,,,,,,0.01601319998735562,0.03231350000714883,0.03231350000714883,82.4424034000258,space,82.40148770000087,None,,,,,,,,,,,,,,,,,,,,,,,,,,,,,,,,,,,,,,,,,,,,,,,,,,,,,,,,,,,,,,,00061,001,2026-01-19_18h08.07.496,MST_test,2024.2.0,59.776650520278906,2026-01-19 18h08.21.674033 +0530,
,,,,,,,,,,,,,,,,,,82.44244130002335,82.47277799999574,82.47277799999574,93.81314839998959,space,11.32929999998305,None,,,,,,,,,,,,,,,,,,,,,,,,,,,,,,,,,,,,,,,,,,,,,,,,,,,,,,,,00061,001,2026-01-19_18h08.07.496,MST_test,2024.2.0,59.776650520278906,2026-01-19 18h08.21.674033 +0530,
,,,,,,,,,,,,,,,,,,,,,,,,,93.81317720003426,93.82973639998818,93.82973639998818,93.82973639998818,93.82973639998818,93.82973639998818,98.8977806000039,space,5.054047200013883,None,,,,,,,,,,,,,,,,,,,,,,,,,,,,,,,,,,,,,,,,,,,,,,00061,001,2026-01-19_18h08.07.496,MST_test,2024.2.0,59.776650520278906,2026-01-19 18h08.21.674033 +0530,
,,,,,,,,,,,,,,,,,,,,,,,,,,,,,,,,,,,98.89781689998927,98.91347660002066,98.91347660002066,98.91347660002066,98.91347660002066,98.91347660002066,109.802111099998,space,10.88105710002128,None,,,,,,,,,,,,,,,,,,,,,,,,,,,,,,,,,,,,00061,001,2026-01-19_18h08.07.496,MST_test,2024.2.0,59.776650520278906,2026-01-19 18h08.21.674033 +0530,
,,,,,,,,,,,,,,,,,,,,,,,,,,,,,,,,,,,,,,,,,,,,,109.80213840003125,109.81822100002319,109.81822100002319,126.97915060003288,space,17.14426219998859,None,,,,,,,,,,,,,,,,,,,,,,,,,,,,,00061,001,2026-01-19_18h08.07.496,MST_test,2024.2.0,59.776650520278906,2026-01-19 18h08.21.674033 +0530,
,,,,,,,,,,,,,,,,,,,,,,,,,,,,,,,,,,,,,,,,,,,,,,,,,,,,126.97918429999845,127.0117591000162,127.0117591000162,258.5065642000409,space,131.48618200002238,None,,,,,,,,,,,,,,,,,,,,,,00061,001,2026-01-19_18h08.07.496,MST_test,2024.2.0,59.776650520278906,2026-01-19 18h08.21.674033 +0530,
0,0,1,o,14.623885500011966,None,1,0,0,258.52292429999216,,,,,,,,,,,,,,,,,,,,,,,,,,,,,,,,,,,,,,,,,,,,,,,,,,258.51022440003,258.52292429999216,259.00780720001785,259.02661760000046,259.04158880002797,259.04158880002797,259.04158880002797,273.676398599986,Objects\336b.jpg,post,o,14.623885500011966,None,,,,,,,,,00061,001,2026-01-19_18h08.07.496,MST_test,2024.2.0,59.776650520278906,2026-01-19 18h08.21.674033 +0530,
1,0,2,s,3.3673734000185505,None,2,0,1,273.69251860002987,,,,,,,,,,,,,,,,,,,,,,,,,,,,,,,,,,,,,,,,,,,,,,,,,,273.6764946000185,273.69251860002987,274.17808199999854,274.1926886999863,274.21100439998554,274.21100439998554,274.21100439998554,277.5900557000423,Objects\378b.jpg,mid,s,3.3673734000185505,None,,,,,,,,,00061,001,2026-01-19_18h08.07.496,MST_test,2024.2.0,59.776650520278906,2026-01-19 18h08.21.674033 +0530,
2,0,3,s,2.8132062000222504,None,3,0,2,277.6061081000371,,,,,,,,,,,,,,,,,,,,,,,,,,,,,,,,,,,,,,,,,,,,,,,,,,277.59015150001505,277.6061081000371,278.0913206000114,278.10803340002894,278.1252476000227,278.1252476000227,278.1252476000227,280.9514686000184,Objects\350b.jpg,post,s,2.8132062000222504,None,,,,,,,,,00061,001,2026-01-19_18h08.07.496,MST_test,2024.2.0,59.776650520278906,2026-01-19 18h08.21.674033 +0530,
3,0,4,o,2.002526200027205,None,4,0,3,280.96758820000105,,,,,,,,,,,,,,,,,,,,,,,,,,,,,,,,,,,,,,,,,,,,,,,,,,280.9515643999912,280.96758820000105,281.4531091999961,281.4688659000094,281.4869510999997,281.4869510999997,281.4869510999997,283.49374519998673,Objects\234b.jpg,mid,o,2.002526200027205,None,,,,,,,,,00061,001,2026-01-19_18h08.07.496,MST_test,2024.2.0,59.776650520278906,2026-01-19 18h08.21.674033 +0530,
4,0,5,o,1.205863600014709,None,5,0,4,283.50992330000736,,,,,,,,,,,,,,,,,,,,,,,,,,,,,,,,,,,,,,,,,,,,,,,,,,283.49383960000705,283.50992330000736,283.99491930002114,284.0046814000234,284.0284355999902,284.0284355999902,284.0284355999902,285.24978380004177,Objects\182b.jpg,pre,o,1.205863600014709,None,,,,,,,,,00061,001,2026-01-19_18h08.07.496,MST_test,2024.2.0,59.776650520278906,2026-01-19 18h08.21.674033 +0530,
5,0,6,o,0.8901390000246465,None,6,0,5,285.26609340001596,,,,,,,,,,,,,,,,,,,,,,,,,,,,,,,,,,,,,,,,,,,,,,,,,,285.2498854000005,285.26609340001596,285.75106999999844,285.7539043999859,285.76779950002674,285.76779950002674,285.76779950002674,286.6716725000297,Objects\376a.jpg,pre,o,0.8901390000246465,None,,,,,,,,,00061,001,2026-01-19_18h08.07.496,MST_test,2024.2.0,59.776650520278906,2026-01-19 18h08.21.674033 +0530,
6,0,7,s,4.011990499973763,None,7,0,6,286.68761339999037,,,,,,,,,,,,,,,,,,,,,,,,,,,,,,,,,,,,,,,,,,,,,,,,,,286.67176490003476,286.68761339999037,287.1728194000316,287.1823635000037,287.20606250001583,287.20606250001583,287.20606250001583,291.22095470002387,Objects\163b.jpg,post,s,4.011990499973763,None,,,,,,,,,00061,001,2026-01-19_18h08.07.496,MST_test,2024.2.0,59.776650520278906,2026-01-19 18h08.21.674033 +0530,
7,0,8,o,10.319716199999675,None,8,0,7,291.23699060000945,,,,,,,,,,,,,,,,,,,,,,,,,,,,,,,,,,,,,,,,,,,,,,,,,,291.2210532000172,291.23699060000945,291.7219771000091,291.7375245000003,291.7560852000024,291.7560852000024,291.7560852000024,302.0764171000337,Objects\265b.jpg,pre,o,10.319716199999675,None,,,,,,,,,00061,001,2026-01-19_18h08.07.496,MST_test,2024.2.0,59.776650520278906,2026-01-19 18h08.21.674033 +0530,
8,0,9,o,0.9293958999915048,None,9,0,8,302.0917829000391,,,,,,,,,,,,,,,,,,,,,,,,,,,,,,,,,,,,,,,,,,,,,,,,,,302.07652130001225,302.0917829000391,302.5770150999888,302.58492990001105,302.59292760002427,302.59292760002427,302.59292760002427,303.5304674000363,Objects\043a.jpg,post,o,0.9293958999915048,None,,,,,,,,,00061,001,2026-01-19_18h08.07.496,MST_test,2024.2.0,59.776650520278906,2026-01-19 18h08.21.674033 +0530,
9,0,10,o,0.7299143999698572,None,10,0,9,303.54697730002226,,,,,,,,,,,,,,,,,,,,,,,,,,,,,,,,,,,,,,,,,,,,,,,,,,303.5305756999878,303.54697730002226,304.0317295999848,304.03439159999834,304.0484768000315,304.0484768000315,304.0484768000315,304.7852997999871,Objects\073a.jpg,post,o,0.7299143999698572,None,,,,,,,,,00061,001,2026-01-19_18h08.07.496,MST_test,2024.2.0,59.776650520278906,2026-01-19 18h08.21.674033 +0530,
10,0,11,o,0.7636781000182964,None,11,0,10,304.8015153000015,,,,,,,,,,,,,,,,,,,,,,,,,,,,,,,,,,,,,,,,,,,,,,,,,,304.78541200002655,304.8015153000015,305.28624670003774,305.2923338999972,305.303027499991,305.303027499991,305.303027499991,306.0728442000109,Objects\227a.jpg,pre,o,0.7636781000182964,None,,,,,,,,,00061,001,2026-01-19_18h08.07.496,MST_test,2024.2.0,59.776650520278906,2026-01-19 18h08.21.674033 +0530,
11,0,12,o,0.7542038999963552,None,12,0,11,306.0890470999875,,,,,,,,,,,,,,,,,,,,,,,,,,,,,,,,,,,,,,,,,,,,,,,,,,306.0729450000217,306.0890470999875,306.57409310003277,306.5832511000335,306.6075808000169,306.6075808000169,306.6075808000169,307.37737910001306,Objects\171b.jpg,pre,o,0.7542038999963552,None,,,,,,,,,00061,001,2026-01-19_18h08.07.496,MST_test,2024.2.0,59.776650520278906,2026-01-19 18h08.21.674033 +0530,
12,0,13,o,1.3304224999737926,None,13,0,12,307.393582699995,,,,,,,,,,,,,,,,,,,,,,,,,,,,,,,,,,,,,,,,,,,,,,,,,,307.3774752999889,307.393582699995,307.87851830001455,307.8813073000056,307.8954047000152,307.8954047000152,307.8954047000152,309.2338073999854,Foils\098a.jpg,none,o,1.3304224999737926,None,,,,,,,,,00061,001,2026-01-19_18h08.07.496,MST_test,2024.2.0,59.776650520278906,2026-01-19 18h08.21.674033 +0530,
13,0,14,o,0.7779051999677904,None,14,0,13,309.25008450000314,,,,,,,,,,,,,,,,,,,,,,,,,,,,,,,,,,,,,,,,,,,,,,,,,,309.2339015000034,309.25008450000314,309.735162500001,309.73795229999814,309.75170100003015,309.75170100003015,309.75170100003015,310.5386026999913,Objects\017b.jpg,post,o,0.7779051999677904,None,,,,,,,,,00061,001,2026-01-19_18h08.07.496,MST_test,2024.2.0,59.776650520278906,2026-01-19 18h08.21.674033 +0530,
14,0,15,n,8.48934830003418,None,15,0,14,310.55452460004017,,,,,,,,,,,,,,,,,,,,,,,,,,,,,,,,,,,,,,,,,,,,,,,,,,310.5386985000223,310.55452460004017,311.0398451000219,311.0424854999874,311.0562512000324,311.0562512000324,311.0562512000324,319.55335360002937,Foils\074a.jpg,none,n,8.48934830003418,None,,,,,,,,,00061,001,2026-01-19_18h08.07.496,MST_test,2024.2.0,59.776650520278906,2026-01-19 18h08.21.674033 +0530,
15,0,16,s,2.698892100015655,None,16,0,15,319.5695529000368,,,,,,,,,,,,,,,,,,,,,,,,,,,,,,,,,,,,,,,,,,,,,,,,,,319.55344680004055,319.5695529000368,320.05450190004194,320.06906270002946,320.087989200023,320.087989200023,320.087989200023,322.79795300000114,Objects\258b.jpg,pre,s,2.698892100015655,None,,,,,,,,,00061,001,2026-01-19_18h08.07.496,MST_test,2024.2.0,59.776650520278906,2026-01-19 18h08.21.674033 +0530,
16,0,17,s,1.4700578000047244,None,17,0,16,322.8142409999855,,,,,,,,,,,,,,,,,,,,,,,,,,,,,,,,,,,,,,,,,,,,,,,,,,322.79809609998483,322.8142409999855,323.29920140001923,323.3069342999952,323.31586100003915,323.31586100003915,323.31586100003915,324.7883872000384,Objects\071a.jpg,pre,s,1.4700578000047244,None,,,,,,,,,00061,001,2026-01-19_18h08.07.496,MST_test,2024.2.0,59.776650520278906,2026-01-19 18h08.21.674033 +0530,
17,0,18,o,1.3512975999619812,None,18,0,17,324.804423100024,,,,,,,,,,,,,,,,,,,,,,,,,,,,,,,,,,,,,,,,,,,,,,,,,,324.78848280000966,324.804423100024,325.2897538000252,325.3042542000185,325.3228698000312,325.3228698000312,325.3228698000312,326.6783402999863,Objects\200b.jpg,post,o,1.3512975999619812,None,,,,,,,,,00061,001,2026-01-19_18h08.07.496,MST_test,2024.2.0,59.776650520278906,2026-01-19 18h08.21.674033 +0530,
18,0,19,s,1.9351418999722227,None,19,0,18,326.69437680003466,,,,,,,,,,,,,,,,,,,,,,,,,,,,,,,,,,,,,,,,,,,,,,,,,,326.67843750002794,326.69437680003466,327.17958160000853,327.1877626000205,327.1956452000304,327.1956452000304,327.1956452000304,329.13680840004236,Objects\348b.jpg,post,s,1.9351418999722227,None,,,,,,,,,00061,001,2026-01-19_18h08.07.496,MST_test,2024.2.0,59.776650520278906,2026-01-19 18h08.21.674033 +0530,
19,0,20,o,1.3946038000285625,None,20,0,19,329.15310610004235,,,,,,,,,,,,,,,,,,,,,,,,,,,,,,,,,,,,,,,,,,,,,,,,,,329.1369063000311,329.15310610004235,329.63814400002593,329.6477312000352,329.6716737000388,329.6716737000388,329.6716737000388,331.0769646000117,Objects\058b.jpg,mid,o,1.3946038000285625,None,,,,,,,,,00061,001,2026-01-19_18h08.07.496,MST_test,2024.2.0,59.776650520278906,2026-01-19 18h08.21.674033 +0530,
20,0,21,o,1.1986393999541178,None,21,0,20,331.0931123000337,,,,,,,,,,,,,,,,,,,,,,,,,,,,,,,,,,,,,,,,,,,,,,,,,,331.07706490001874,331.0931123000337,331.5783225999912,331.58105030003935,331.59482410002965,331.59482410002965,331.59482410002965,332.799778399989,Objects\085a.jpg,pre,o,1.1986393999541178,None,,,,,,,,,00061,001,2026-01-19_18h08.07.496,MST_test,2024.2.0,59.776650520278906,2026-01-19 18h08.21.674033 +0530,
21,0,22,o,2.220686700020451,None,22,0,21,332.8159281000262,,,,,,,,,,,,,,,,,,,,,,,,,,,,,,,,,,,,,,,,,,,,,,,,,,332.799872100004,332.8159281000262,333.3008877999964,333.3087717000162,333.3169894000166,333.3169894000166,333.3169894000166,335.54270400002133,Objects\289a.jpg,pre,o,2.220686700020451,None,,,,,,,,,00061,001,2026-01-19_18h08.07.496,MST_test,2024.2.0,59.776650520278906,2026-01-19 18h08.21.674033 +0530,
22,0,23,o,0.886047400010284,None,23,0,22,335.5588701000088,,,,,,,,,,,,,,,,,,,,,,,,,,,,,,,,,,,,,,,,,,,,,,,,,,335.54279969999334,335.5588701000088,336.043819500017,336.05096429999685,336.06054780003615,336.06054780003615,336.06054780003615,336.94765460002236,Objects\345a.jpg,post,o,0.886047400010284,None,,,,,,,,,00061,001,2026-01-19_18h08.07.496,MST_test,2024.2.0,59.776650520278906,2026-01-19 18h08.21.674033 +0530,
23,0,24,o,2.1681923999567516,None,24,0,23,336.9637945999857,,,,,,,,,,,,,,,,,,,,,,,,,,,,,,,,,,,,,,,,,,,,,,,,,,336.9477482000366,336.9637945999857,337.4487455000053,337.4514026000397,337.46550029999344,337.46550029999344,337.46550029999344,339.6402353000012,Objects\143a.jpg,post,o,2.1681923999567516,None,,,,,,,,,00061,001,2026-01-19_18h08.07.496,MST_test,2024.2.0,59.776650520278906,2026-01-19 18h08.21.674033 +0530,
24,0,25,s,4.611360599985346,None,25,0,24,339.65722839999944,,,,,,,,,,,,,,,,,,,,,,,,,,,,,,,,,,,,,,,,,,,,,,,,,,339.6403352000052,339.65722839999944,340.1453749000211,340.156191600021,340.1750400000019,340.1750400000019,340.1750400000019,344.7916314000031,Objects\282b.jpg,pre,s,4.611360599985346,None,,,,,,,,,00061,001,2026-01-19_18h08.07.496,MST_test,2024.2.0,59.776650520278906,2026-01-19 18h08.21.674033 +0530,
25,0,26,o,1.2516613000188954,None,26,0,25,344.80793459998677,,,,,,,,,,,,,,,,,,,,,,,,,,,,,,,,,,,,,,,,,,,,,,,,,,344.7917276000371,344.80793459998677,345.2930332000251,345.30214440001873,345.32654020003974,345.32654020003974,345.32654020003974,346.58139210002264,Objects\140b.jpg,pre,o,1.2516613000188954,None,,,,,,,,,00061,001,2026-01-19_18h08.07.496,MST_test,2024.2.0,59.776650520278906,2026-01-19 18h08.21.674033 +0530,
26,0,27,s,1.7104772999882698,None,27,0,26,346.59765850001713,,,,,,,,,,,,,,,,,,,,,,,,,,,,,,,,,,,,,,,,,,,,,,,,,,346.5814902000129,346.59765850001713,347.08265619998565,347.0855908000376,347.09940820001066,347.09940820001066,347.09940820001066,348.8225019000238,Foils\086a.jpg,none,s,1.7104772999882698,None,,,,,,,,,00061,001,2026-01-19_18h08.07.496,MST_test,2024.2.0,59.776650520278906,2026-01-19 18h08.21.674033 +0530,
27,0,28,s,1.404387200018391,None,28,0,27,348.83878410002217,,,,,,,,,,,,,,,,,,,,,,,,,,,,,,,,,,,,,,,,,,,,,,,,,,348.82260930002667,348.83878410002217,349.32382769999094,349.338849199994,349.35731460002717,349.35731460002717,349.35731460002717,350.7630242999876,Objects\231b.jpg,pre,s,1.404387200018391,None,,,,,,,,,00061,001,2026-01-19_18h08.07.496,MST_test,2024.2.0,59.776650520278906,2026-01-19 18h08.21.674033 +0530,
28,0,29,o,1.38482150004711,None,29,0,28,350.77892290003365,,,,,,,,,,,,,,,,,,,,,,,,,,,,,,,,,,,,,,,,,,,,,,,,,,350.7631228000391,350.77892290003365,351.26408130000345,351.27848510001786,351.29730869998457,351.29730869998457,351.29730869998457,352.68607220001286,Objects\061b.jpg,mid,o,1.38482150004711,None,,,,,,,,,00061,001,2026-01-19_18h08.07.496,MST_test,2024.2.0,59.776650520278906,2026-01-19 18h08.21.674033 +0530,
29,0,30,o,1.3893875000067055,None,30,0,29,352.70226540003205,,,,,,,,,,,,,,,,,,,,,,,,,,,,,,,,,,,,,,,,,,,,,,,,,,352.68616690003546,352.70226540003205,353.1878025000333,353.1910065000411,353.20431940001436,353.20431940001436,353.20431940001436,354.6093347000424,Objects\164a.jpg,post,o,1.3893875000067055,None,,,,,,,,,00061,001,2026-01-19_18h08.07.496,MST_test,2024.2.0,59.776650520278906,2026-01-19 18h08.21.674033 +0530,
30,0,31,o,0.9058178999694064,None,31,0,30,354.6257937999908,,,,,,,,,,,,,,,,,,,,,,,,,,,,,,,,,,,,,,,,,,,,,,,,,,354.6094288000022,354.6257937999908,355.11111140000867,355.11388339998666,355.12773130001733,355.12773130001733,355.12773130001733,356.04770330002066,Objects\214a.jpg,post,o,0.9058178999694064,None,,,,,,,,,00061,001,2026-01-19_18h08.07.496,MST_test,2024.2.0,59.776650520278906,2026-01-19 18h08.21.674033 +0530,
31,0,32,s,1.2033250000094995,None,32,0,31,356.0641748000053,,,,,,,,,,,,,,,,,,,,,,,,,,,,,,,,,,,,,,,,,,,,,,,,,,356.0477969000349,356.0641748000053,356.5491444999934,356.5634361000266,356.58250180003233,356.58250180003233,356.58250180003233,357.7872925000265,Objects\342b.jpg,mid,s,1.2033250000094995,None,,,,,,,,,00061,001,2026-01-19_18h08.07.496,MST_test,2024.2.0,59.776650520278906,2026-01-19 18h08.21.674033 +0530,
32,0,33,n,3.672951600048691,None,33,0,32,357.8034326999914,,,,,,,,,,,,,,,,,,,,,,,,,,,,,,,,,,,,,,,,,,,,,,,,,,357.7873924000305,357.8034326999914,358.2885483999853,358.29553910001414,358.30504539998947,358.30504539998947,358.30504539998947,361.98536400002195,Foils\106a.jpg,none,n,3.672951600048691,None,,,,,,,,,00061,001,2026-01-19_18h08.07.496,MST_test,2024.2.0,59.776650520278906,2026-01-19 18h08.21.674033 +0530,
33,0,34,n,1.2110862000263296,None,34,0,33,362.0015124999918,,,,,,,,,,,,,,,,,,,,,,,,,,,,,,,,,,,,,,,,,,,,,,,,,,361.9854592999909,362.0015124999918,362.48671510000713,362.48973959998693,362.5032244999893,362.5032244999893,362.5032244999893,363.72468069999013,Foils\002a.jpg,none,n,1.2110862000263296,None,,,,,,,,,00061,001,2026-01-19_18h08.07.496,MST_test,2024.2.0,59.776650520278906,2026-01-19 18h08.21.674033 +0530,
34,0,35,o,1.2639942999812774,None,35,0,34,363.74094260000857,,,,,,,,,,,,,,,,,,,,,,,,,,,,,,,,,,,,,,,,,,,,,,,,,,363.72477560001425,363.74094260000857,364.226121100015,364.22871629998554,364.2425370000419,364.2425370000419,364.2425370000419,365.5141386000323,Objects\041a.jpg,post,o,1.2639942999812774,None,,,,,,,,,00061,001,2026-01-19_18h08.07.496,MST_test,2024.2.0,59.776650520278906,2026-01-19 18h08.21.674033 +0530,
35,0,36,o,1.2022530999965966,None,36,0,35,365.5306488000206,,,,,,,,,,,,,,,,,,,,,,,,,,,,,,,,,,,,,,,,,,,,,,,,,,365.51423710002564,365.5306488000206,366.01560879999306,366.0179850999848,366.03236370004015,366.03236370004015,366.03236370004015,367.23731430002954,Objects\056a.jpg,post,o,1.2022530999965966,None,,,,,,,,,00061,001,2026-01-19_18h08.07.496,MST_test,2024.2.0,59.776650520278906,2026-01-19 18h08.21.674033 +0530,
36,0,37,o,0.8630712000303902,None,37,0,36,367.2532260000007,,,,,,,,,,,,,,,,,,,,,,,,,,,,,,,,,,,,,,,,,,,,,,,,,,367.2374114000122,367.2532260000007,367.7384486999945,367.74436429998605,367.75489959999686,367.75489959999686,367.75489959999686,368.6250768000027,Objects\224b.jpg,post,o,0.8630712000303902,None,,,,,,,,,00061,001,2026-01-19_18h08.07.496,MST_test,2024.2.0,59.776650520278906,2026-01-19 18h08.21.674033 +0530,
37,0,38,o,2.178409999993164,None,38,0,37,368.6415476000402,,,,,,,,,,,,,,,,,,,,,,,,,,,,,,,,,,,,,,,,,,,,,,,,,,368.62517140002456,368.6415476000402,369.1265237000189,369.1408090000041,369.1600898000179,369.1600898000179,369.1600898000179,371.3512658000109,Objects\374b.jpg,pre,o,2.178409999993164,None,,,,,,,,,00061,001,2026-01-19_18h08.07.496,MST_test,2024.2.0,59.776650520278906,2026-01-19 18h08.21.674033 +0530,
38,0,39,s,3.9323225999833085,None,39,0,38,371.3676066999906,,,,,,,,,,,,,,,,,,,,,,,,,,,,,,,,,,,,,,,,,,,,,,,,,,371.3513591000228,371.3676066999906,371.85256020003,371.86722080002073,371.88615949999075,371.88615949999075,371.88615949999075,375.83392450003885,Objects\176b.jpg,mid,s,3.9323225999833085,None,,,,,,,,,00061,001,2026-01-19_18h08.07.496,MST_test,2024.2.0,59.776650520278906,2026-01-19 18h08.21.674033 +0530,
39,0,40,s,3.8018064000061713,None,40,0,39,375.8499512000126,,,,,,,,,,,,,,,,,,,,,,,,,,,,,,,,,,,,,,,,,,,,,,,,,,375.8340211000177,375.8499512000126,376.3350226000184,376.3444783000159,376.3682805999997,376.3682805999997,376.3682805999997,380.18402440001955,Objects\154b.jpg,pre,s,3.8018064000061713,None,,,,,,,,,00061,001,2026-01-19_18h08.07.496,MST_test,2024.2.0,59.776650520278906,2026-01-19 18h08.21.674033 +0530,
40,0,41,s,0.9581740000285208,None,41,0,40,380.1985230999999,,,,,,,,,,,,,,,,,,,,,,,,,,,,,,,,,,,,,,,,,,,,,,,,,,380.18411810003454,380.1985230999999,380.68379280000227,380.6930042000022,380.7169622000074,380.7169622000074,380.7169622000074,381.6874786000117,Foils\042a.jpg,none,s,0.9581740000285208,None,380.7169622000074,,,,,,,,00061,001,2026-01-19_18h08.07.496,MST_test,2024.2.0,59.776650520278906,2026-01-19 18h08.21.674033 +0530,
41,0,42,s,3.9169822000549175,None,42,0,41,381.7036656999844,,,,,,,,,,,,,,,,,,,,,,,,,,,,,,,,,,,,,,,,,,,,,,,,,,381.68757260002894,381.7036656999844,382.18887370004086,382.1997689999989,382.22231929999543,382.22231929999543,382.22231929999543,386.153407100006,Objects\156b.jpg,post,s,3.9169822000549175,None,,,,,,,,,00061,001,2026-01-19_18h08.07.496,MST_test,2024.2.0,59.776650520278906,2026-01-19 18h08.21.674033 +0530,
42,0,43,n,3.8270944000105374,None,43,0,42,386.16930780000985,,,,,,,,,,,,,,,,,,,,,,,,,,,,,,,,,,,,,,,,,,,,,,,,,,386.153500800021,386.16930780000985,386.6545031000278,386.6572068000096,386.6710178999929,386.6710178999929,386.6710178999929,390.50181460002204,Objects\023a.jpg,mid,n,3.8270944000105374,None,,,,,,,,,00061,001,2026-01-19_18h08.07.496,MST_test,2024.2.0,59.776650520278906,2026-01-19 18h08.21.674033 +0530,
43,0,44,o,1.4785259999916889,None,44,0,43,390.51786160003394,,,,,,,,,,,,,,,,,,,,,,,,,,,,,,,,,,,,,,,,,,,,,,,,,,390.5019156000344,390.51786160003394,391.00318579998566,391.0058746000286,391.01960440003313,391.01960440003313,391.01960440003313,392.50887760001933,Objects\101a.jpg,pre,o,1.4785259999916889,None,,,,,,,,,00061,001,2026-01-19_18h08.07.496,MST_test,2024.2.0,59.776650520278906,2026-01-19 18h08.21.674033 +0530,
44,0,45,n,1.8228979000123218,None,45,0,44,392.5248969999957,,,,,,,,,,,,,,,,,,,,,,,,,,,,,,,,,,,,,,,,,,,,,,,,,,392.50896840001224,392.5248969999957,393.01010290003615,393.0130036000046,393.02673089999007,393.02673089999007,393.02673089999007,394.8504485000158,Foils\097a.jpg,none,n,1.8228979000123218,None,,,,,,,,,00061,001,2026-01-19_18h08.07.496,MST_test,2024.2.0,59.776650520278906,2026-01-19 18h08.21.674033 +0530,
45,0,46,s,7.448958099994343,None,46,0,45,394.8665497000329,,,,,,,,,,,,,,,,,,,,,,,,,,,,,,,,,,,,,,,,,,,,,,,,,,394.85054270003457,394.8665497000329,395.3515206000302,395.36079730000347,395.38499340001727,395.38499340001727,395.38499340001727,402.84534599998733,Objects\031b.jpg,pre,s,7.448958099994343,None,,,,,,,,,00061,001,2026-01-19_18h08.07.496,MST_test,2024.2.0,59.776650520278906,2026-01-19 18h08.21.674033 +0530,
46,0,47,o,1.350805299996864,None,47,0,46,402.8610815000138,,,,,,,,,,,,,,,,,,,,,,,,,,,,,,,,,,,,,,,,,,,,,,,,,,402.84544659999665,402.8610815000138,403.3472746000043,403.350600100006,403.36280790000455,403.36280790000455,403.36280790000455,404.71811060002074,Objects\285a.jpg,post,o,1.350805299996864,None,,,,,,,,,00061,001,2026-01-19_18h08.07.496,MST_test,2024.2.0,59.776650520278906,2026-01-19 18h08.21.674033 +0530,
47,0,48,n,3.0387182000558823,None,48,0,47,404.7343196999864,,,,,,,,,,,,,,,,,,,,,,,,,,,,,,,,,,,,,,,,,,,,,,,,,,404.7182039000327,404.7343196999864,405.2196588999941,405.22253610001644,405.23604600003455,405.23604600003455,405.23604600003455,408.2806094000116,Foils\093b.jpg,none,n,3.0387182000558823,None,,,,,,,,,00061,001,2026-01-19_18h08.07.496,MST_test,2024.2.0,59.776650520278906,2026-01-19 18h08.21.674033 +0530,
48,0,49,o,1.1320334000047296,None,49,0,48,408.2971797999926,,,,,,,,,,,,,,,,,,,,,,,,,,,,,,,,,,,,,,,,,,,,,,,,,,408.2807028000243,408.2971797999926,408.78187340003205,408.78457890002755,408.7986198000144,408.7986198000144,408.7986198000144,409.9365134999971,Objects\028a.jpg,post,o,1.1320334000047296,None,,,,,,,,,00061,001,2026-01-19_18h08.07.496,MST_test,2024.2.0,59.776650520278906,2026-01-19 18h08.21.674033 +0530,
49,0,50,o,1.3000871999538504,None,50,0,49,409.9526000000187,,,,,,,,,,,,,,,,,,,,,,,,,,,,,,,,,,,,,,,,,,,,,,,,,,409.93661450000945,409.9526000000187,410.437818800041,410.44467490003444,410.45446149999043,410.45446149999043,410.45446149999043,411.75948430004064,Objects\222a.jpg,post,o,1.3000871999538504,None,,,,,,,,,00061,001,2026-01-19_18h08.07.496,MST_test,2024.2.0,59.776650520278906,2026-01-19 18h08.21.674033 +0530,
50,0,51,o,1.6288257999694906,None,51,0,50,411.77588279999327,,,,,,,,,,,,,,,,,,,,,,,,,,,,,,,,,,,,,,,,,,,,,,,,,,411.7595882000169,411.77588279999327,412.26074789999984,412.2681687999866,412.27689290000126,412.27689290000126,412.27689290000126,413.917180599994,Objects\322a.jpg,mid,o,1.6288257999694906,None,,,,,,,,,00061,001,2026-01-19_18h08.07.496,MST_test,2024.2.0,59.776650520278906,2026-01-19 18h08.21.674033 +0530,
51,0,52,n,3.0617236999678425,None,52,0,51,413.9331935000373,,,,,,,,,,,,,,,,,,,,,,,,,,,,,,,,,,,,,,,,,,,,,,,,,,413.917276400025,413.9331935000373,414.41956080001546,414.42724089999683,414.4516633999883,414.4516633999883,414.4516633999883,417.5294397000107,Foils\034a.jpg,none,n,3.0617236999678425,None,,,,,,,,,00061,001,2026-01-19_18h08.07.496,MST_test,2024.2.0,59.776650520278906,2026-01-19 18h08.21.674033 +0530,
52,0,53,o,1.3070727000012994,None,53,0,52,417.5459767000284,,,,,,,,,,,,,,,,,,,,,,,,,,,,,,,,,,,,,,,,,,,,,,,,,,417.5295328000211,417.5459767000284,418.0309351999895,418.03361079999013,418.04768000001786,418.04768000001786,418.04768000001786,419.37053710001055,Objects\038a.jpg,mid,o,1.3070727000012994,None,,,,,,,,,00061,001,2026-01-19_18h08.07.496,MST_test,2024.2.0,59.776650520278906,2026-01-19 18h08.21.674033 +0530,
53,0,54,o,1.0343958000303246,None,54,0,53,419.38635430001887,,,,,,,,,,,,,,,,,,,,,,,,,,,,,,,,,,,,,,,,,,,,,,,,,,419.37063030002173,419.38635430001887,419.87070790003054,419.87358930002665,419.8879889000091,419.8879889000091,419.8879889000091,420.9250997999916,Objects\030a.jpg,pre,o,1.0343958000303246,None,,,,,,,,,00061,001,2026-01-19_18h08.07.496,MST_test,2024.2.0,59.776650520278906,2026-01-19 18h08.21.674033 +0530,
54,0,55,n,2.654217000002973,None,55,0,54,420.9410661000293,,,,,,,,,,,,,,,,,,,,,,,,,,,,,,,,,,,,,,,,,,,,,,,,,,420.92519750003703,420.9410661000293,421.4264099000138,421.4372980000335,421.4595152999973,421.4595152999973,421.4595152999973,424.119486999989,Foils\081a.jpg,none,n,2.654217000002973,None,,,,,,,,,00061,001,2026-01-19_18h08.07.496,MST_test,2024.2.0,59.776650520278906,2026-01-19 18h08.21.674033 +0530,
55,0,56,s,2.64537509996444,None,56,0,55,424.13570079999045,,,,,,,,,,,,,,,,,,,,,,,,,,,,,,,,,,,,,,,,,,,,,,,,,,424.11958280002,424.13570079999045,424.62085479998495,424.6234888000181,424.63759050000226,424.63759050000226,424.63759050000226,427.29730830003973,Objects\086a.jpg,pre,s,2.64537509996444,None,,,,,,,,,00061,001,2026-01-19_18h08.07.496,MST_test,2024.2.0,59.776650520278906,2026-01-19 18h08.21.674033 +0530,
56,0,57,o,4.313419900019653,None,57,0,56,427.313501800003,,,,,,,,,,,,,,,,,,,,,,,,,,,,,,,,,,,,,,,,,,,,,,,,,,427.2974080000422,427.313501800003,427.7984720999957,427.80763920000754,427.8324583999929,427.8324583999929,427.8324583999929,432.14822500001173,Objects\235b.jpg,mid,o,4.313419900019653,None,,,,,,,,,00061,001,2026-01-19_18h08.07.496,MST_test,2024.2.0,59.776650520278906,2026-01-19 18h08.21.674033 +0530,
57,0,58,o,1.3608254000428133,None,58,0,57,432.16384659998585,,,,,,,,,,,,,,,,,,,,,,,,,,,,,,,,,,,,,,,,,,,,,,,,,,432.1483360999846,432.16384659998585,432.6489157000324,432.65146030002506,432.6654172000126,432.6654172000126,432.6654172000126,434.0374785999884,Objects\106a.jpg,pre,o,1.3608254000428133,None,,,,,,,,,00061,001,2026-01-19_18h08.07.496,MST_test,2024.2.0,59.776650520278906,2026-01-19 18h08.21.674033 +0530,
58,0,59,o,0.9580582000198774,None,59,0,58,434.0539403000148,,,,,,,,,,,,,,,,,,,,,,,,,,,,,,,,,,,,,,,,,,,,,,,,,,434.03757320001023,434.0539403000148,434.53941610001493,434.5454197000363,434.5557692000293,434.5557692000293,434.5557692000293,435.52642720000586,Objects\270a.jpg,mid,o,0.9580582000198774,None,,,,,,,,,00061,001,2026-01-19_18h08.07.496,MST_test,2024.2.0,59.776650520278906,2026-01-19 18h08.21.674033 +0530,
59,0,60,o,0.8372822999954224,None,60,0,59,435.54262550000567,,,,,,,,,,,,,,,,,,,,,,,,,,,,,,,,,,,,,,,,,,,,,,,,,,435.5265277000144,435.54262550000567,436.0274182999856,436.04161419998854,436.06066290003946,436.06066290003946,436.06066290003946,436.9142865000176,Objects\249b.jpg,mid,o,0.8372822999954224,None,,,,,,,,,00061,001,2026-01-19_18h08.07.496,MST_test,2024.2.0,59.776650520278906,2026-01-19 18h08.21.674033 +0530,
60,0,61,o,0.5941424000193365,None,61,0,60,436.9303912000032,,,,,,,,,,,,,,,,,,,,,,,,,,,,,,,,,,,,,,,,,,,,,,,,,,436.9143872000277,436.9303912000032,437.4157719000359,437.42310880002333,437.43185110000195,437.43185110000195,437.43185110000195,438.034786800039,Objects\253a.jpg,pre,o,0.5941424000193365,None,,,,,,,,,00061,001,2026-01-19_18h08.07.496,MST_test,2024.2.0,59.776650520278906,2026-01-19 18h08.21.674033 +0530,
61,0,62,o,4.296264500007965,None,62,0,61,438.051109299995,,,,,,,,,,,,,,,,,,,,,,,,,,,,,,,,,,,,,,,,,,,,,,,,,,438.034882500011,438.051109299995,438.5361505000037,438.5452962000272,438.5695456000394,438.5695456000394,438.5695456000394,442.8686474999995,Objects\147b.jpg,post,o,4.296264500007965,None,,,,,,,,,00061,001,2026-01-19_18h08.07.496,MST_test,2024.2.0,59.776650520278906,2026-01-19 18h08.21.674033 +0530,
62,0,63,n,1.6236753999837674,None,63,0,62,442.88484539999627,,,,,,,,,,,,,,,,,,,,,,,,,,,,,,,,,,,,,,,,,,,,,,,,,,442.86874360003276,442.88484539999627,443.3698301000404,443.37267760001123,443.3865773000289,443.3865773000289,443.3865773000289,445.0260369000025,Foils\009a.jpg,none,n,1.6236753999837674,None,,,,,,,,,00061,001,2026-01-19_18h08.07.496,MST_test,2024.2.0,59.776650520278906,2026-01-19 18h08.21.674033 +0530,
63,0,64,n,1.3857485000044107,None,64,0,63,445.0423096999875,,,,,,,,,,,,,,,,,,,,,,,,,,,,,,,,,,,,,,,,,,,,,,,,,,445.02614050003467,445.0423096999875,445.52749649999896,445.5302272000117,445.54397759999847,445.54397759999847,445.54397759999847,446.9327975999913,Foils\090a.jpg,none,n,1.3857485000044107,None,,,,,,,,,00061,001,2026-01-19_18h08.07.496,MST_test,2024.2.0,59.776650520278906,2026-01-19 18h08.21.674033 +0530,
64,0,65,o,1.1831969000049867,None,65,0,64,446.949203199998,,,,,,,,,,,,,,,,,,,,,,,,,,,,,,,,,,,,,,,,,,,,,,,,,,446.932924200024,446.949203199998,447.43406860000687,447.4410093000042,447.45060049998574,447.45060049998574,447.45060049998574,448.6385911999969,Objects\321a.jpg,mid,o,1.1831969000049867,None,,,,,,,,,00061,001,2026-01-19_18h08.07.496,MST_test,2024.2.0,59.776650520278906,2026-01-19 18h08.21.674033 +0530,
65,0,66,o,1.7560417999629863,None,66,0,65,448.65507500001695,,,,,,,,,,,,,,,,,,,,,,,,,,,,,,,,,,,,,,,,,,,,,,,,,,448.6386863000225,448.65507500001695,449.14052060001995,449.15474379999796,449.1739409000147,449.1739409000147,449.1739409000147,450.94671230000677,Objects\232b.jpg,mid,o,1.7560417999629863,None,,,,,,,,,00061,001,2026-01-19_18h08.07.496,MST_test,2024.2.0,59.776650520278906,2026-01-19 18h08.21.674033 +0530,
66,0,67,n,2.457779499993194,None,67,0,66,450.9628692000406,,,,,,,,,,,,,,,,,,,,,,,,,,,,,,,,,,,,,,,,,,,,,,,,,,450.9468082000385,450.9628692000406,451.4482141000335,451.4565073000267,451.46428710001055,451.46428710001055,451.46428710001055,453.9246267999988,Foils\033a.jpg,none,n,2.457779499993194,None,,,,,,,,,00061,001,2026-01-19_18h08.07.496,MST_test,2024.2.0,59.776650520278906,2026-01-19 18h08.21.674033 +0530,
67,0,68,o,1.168775599973742,None,68,0,67,453.94008820003364,,,,,,,,,,,,,,,,,,,,,,,,,,,,,,,,,,,,,,,,,,,,,,,,,,453.9247238000389,453.94008820003364,454.4252768000006,454.4314139999915,454.4416646999889,454.4416646999889,454.4416646999889,455.61313340003835,Objects\268a.jpg,mid,o,1.168775599973742,None,,,,,,,,,00061,001,2026-01-19_18h08.07.496,MST_test,2024.2.0,59.776650520278906,2026-01-19 18h08.21.674033 +0530,
68,0,69,o,1.350655900023412,None,69,0,68,455.6293287000153,,,,,,,,,,,,,,,,,,,,,,,,,,,,,,,,,,,,,,,,,,,,,,,,,,455.61322960001417,455.6293287000153,456.1142725000391,456.1222665000241,456.1310833999887,456.1310833999887,456.1310833999887,457.48624550004024,Objects\078a.jpg,pre,o,1.350655900023412,None,,,,,,,,,00061,001,2026-01-19_18h08.07.496,MST_test,2024.2.0,59.776650520278906,2026-01-19 18h08.21.674033 +0530,
69,0,70,o,1.038256799976807,None,70,0,69,457.5025697000092,,,,,,,,,,,,,,,,,,,,,,,,,,,,,,,,,,,,,,,,,,,,,,,,,,457.4863478000043,457.5025697000092,457.9879668999929,457.99511459999485,458.00382949999766,458.00382949999766,458.00382949999766,459.05846299999394,Objects\339a.jpg,post,o,1.038256799976807,None,,,,,,,,,00061,001,2026-01-19_18h08.07.496,MST_test,2024.2.0,59.776650520278906,2026-01-19 18h08.21.674033 +0530,
70,0,71,n,4.346328500017989,None,71,0,70,459.0747347000288,,,,,,,,,,,,,,,,,,,,,,,,,,,,,,,,,,,,,,,,,,,,,,,,,,459.0585588000249,459.0747347000288,459.55981900001643,459.5673170000082,459.57560410001315,459.57560410001315,459.57560410001315,463.92558040004224,Foils\049a.jpg,none,n,4.346328500017989,None,,,,,,,,,00061,001,2026-01-19_18h08.07.496,MST_test,2024.2.0,59.776650520278906,2026-01-19 18h08.21.674033 +0530,
71,0,72,s,9.174246900016442,None,72,0,71,463.9418055000133,,,,,,,,,,,,,,,,,,,,,,,,,,,,,,,,,,,,,,,,,,,,,,,,,,463.92568360001314,463.9418055000133,464.4273552999948,464.43020950001664,464.44378720002715,464.44378720002715,464.44378720002715,473.62647540000034,Foils\010a.jpg,none,s,9.174246900016442,None,,,,,,,,,00061,001,2026-01-19_18h08.07.496,MST_test,2024.2.0,59.776650520278906,2026-01-19 18h08.21.674033 +0530,
72,0,73,o,1.8264851000276394,None,73,0,72,473.64228309999453,,,,,,,,,,,,,,,,,,,,,,,,,,,,,,,,,,,,,,,,,,,,,,,,,,473.6265732999891,473.64228309999453,474.1274836999946,474.1353677000152,474.1436842000112,474.1436842000112,474.1436842000112,475.98443360003876,Objects\226a.jpg,pre,o,1.8264851000276394,None,,,,,,,,,00061,001,2026-01-19_18h08.07.496,MST_test,2024.2.0,59.776650520278906,2026-01-19 18h08.21.674033 +0530,
73,0,74,o,10.388259600033052,None,74,0,73,476.00065860000905,,,,,,,,,,,,,,,,,,,,,,,,,,,,,,,,,,,,,,,,,,,,,,,,,,475.9845348999952,476.00065860000905,476.4856311000185,476.4933143000235,476.501589099993,476.501589099993,476.501589099993,486.9059762000106,Objects\324a.jpg,pre,o,10.388259600033052,None,,,,,,,,,00061,001,2026-01-19_18h08.07.496,MST_test,2024.2.0,59.776650520278906,2026-01-19 18h08.21.674033 +0530,
74,0,75,o,7.346125699987169,None,75,0,74,486.9222590000136,,,,,,,,,,,,,,,,,,,,,,,,,,,,,,,,,,,,,,,,,,,,,,,,,,486.90607780002756,486.9222590000136,487.40735719999066,487.414808200032,487.4237779999967,487.4237779999967,487.4237779999967,494.7835791000398,Objects\142a.jpg,pre,o,7.346125699987169,None,,,,,,,,,00061,001,2026-01-19_18h08.07.496,MST_test,2024.2.0,59.776650520278906,2026-01-19 18h08.21.674033 +0530,
75,0,76,o,2.003886899969075,None,76,0,75,494.7997212000191,,,,,,,,,,,,,,,,,,,,,,,,,,,,,,,,,,,,,,,,,,,,,,,,,,494.7836750000133,494.7997212000191,495.2849203000078,495.29888519999804,495.3181532000308,495.3181532000308,495.3181532000308,497.3263072000118,Objects\242b.jpg,post,o,2.003886899969075,None,,,,,,,,,00061,001,2026-01-19_18h08.07.496,MST_test,2024.2.0,59.776650520278906,2026-01-19 18h08.21.674033 +0530,
76,0,77,s,1.662289600004442,None,77,0,76,497.3419367999886,,,,,,,,,,,,,,,,,,,,,,,,,,,,,,,,,,,,,,,,,,,,,,,,,,497.3264052000013,497.3419367999886,497.8272455999977,497.8419601999922,497.8603837999981,497.8603837999981,497.8603837999981,499.5336241000332,Objects\307b.jpg,post,s,1.662289600004442,None,,,,,,,,,00061,001,2026-01-19_18h08.07.496,MST_test,2024.2.0,59.776650520278906,2026-01-19 18h08.21.674033 +0530,
77,0,78,s,5.00689209997654,None,78,0,77,499.5497943999944,,,,,,,,,,,,,,,,,,,,,,,,,,,,,,,,,,,,,,,,,,,,,,,,,,499.53371729998617,499.5497943999944,500.0347555000335,500.0380344000296,500.05138530000113,500.05138530000113,500.05138530000113,505.06957779999357,Objects\223a.jpg,mid,s,5.00689209997654,None,,,,,,,,,00061,001,2026-01-19_18h08.07.496,MST_test,2024.2.0,59.776650520278906,2026-01-19 18h08.21.674033 +0530,
78,0,79,o,1.3584875999949872,None,79,0,78,505.08599789999425,,,,,,,,,,,,,,,,,,,,,,,,,,,,,,,,,,,,,,,,,,,,,,,,,,505.0696936000022,505.08599789999425,505.57098010001937,505.5762247000239,505.58772260003025,505.58772260003025,505.58772260003025,506.95960000000196,Objects\251a.jpg,pre,o,1.3584875999949872,None,,,,,,,,,00061,001,2026-01-19_18h08.07.496,MST_test,2024.2.0,59.776650520278906,2026-01-19 18h08.21.674033 +0530,
79,0,80,s,1.1556680999929085,None,80,0,79,506.9760013000341,,,,,,,,,,,,,,,,,,,,,,,,,,,,,,,,,,,,,,,,,,,,,,,,,,506.95969630003674,506.9760013000341,507.4610638000304,507.47659390000626,507.4946481999941,507.4946481999941,507.4946481999941,508.665650000039,Objects\004b.jpg,pre,s,1.1556680999929085,None,,,,,,,,,00061,001,2026-01-19_18h08.07.496,MST_test,2024.2.0,59.776650520278906,2026-01-19 18h08.21.674033 +0530,
80,0,81,o,1.0903262000065297,None,81,0,80,508.6819294000161,,,,,,,,,,,,,,,,,,,,,,,,,,,,,,,,,,,,,,,,,,,,,,,,,,508.66574560001027,508.6819294000161,509.166926600039,509.16965240001446,509.1836144000408,509.1836144000408,509.1836144000408,510.2877952000126,Objects\026a.jpg,mid,o,1.0903262000065297,None,,,,,,,,,00061,001,2026-01-19_18h08.07.496,MST_test,2024.2.0,59.776650520278906,2026-01-19 18h08.21.674033 +0530,
81,0,82,o,0.948763600026723,None,82,0,81,510.30400800000643,,,,,,,,,,,,,,,,,,,,,,,,,,,,,,,,,,,,,,,,,,,,,,,,,,510.28790450003,510.30400800000643,510.78936840000097,510.79217770003015,510.80583329999354,510.80583329999354,510.80583329999354,511.75953809998464,Objects\024a.jpg,pre,o,0.948763600026723,None,,,,,,,,,00061,001,2026-01-19_18h08.07.496,MST_test,2024.2.0,59.776650520278906,2026-01-19 18h08.21.674033 +0530,
82,0,83,s,1.05924239999149,None,83,0,82,511.7758065999951,,,,,,,,,,,,,,,,,,,,,,,,,,,,,,,,,,,,,,,,,,,,,,,,,,511.7596331000095,511.7758065999951,512.2610132000409,512.2745344000286,512.2942487000255,512.2942487000255,512.2942487000255,513.3654759000055,Objects\346b.jpg,mid,s,1.05924239999149,None,,,,,,,,,00061,001,2026-01-19_18h08.07.496,MST_test,2024.2.0,59.776650520278906,2026-01-19 18h08.21.674033 +0530,
83,0,84,o,0.9353461000137031,None,84,0,83,513.3815564000397,,,,,,,,,,,,,,,,,,,,,,,,,,,,,,,,,,,,,,,,,,,,,,,,,,513.3655724999844,513.3815564000397,513.8665370999952,513.8744807000039,513.8828038999927,513.8828038999927,513.8828038999927,514.8202874000417,Objects\219a.jpg,post,o,0.9353461000137031,None,,,,,,,,,00061,001,2026-01-19_18h08.07.496,MST_test,2024.2.0,59.776650520278906,2026-01-19 18h08.21.674033 +0530,
84,0,85,n,6.592219600046519,None,85,0,84,514.8365970000159,,,,,,,,,,,,,,,,,,,,,,,,,,,,,,,,,,,,,,,,,,,,,,,,,,514.8203943000408,514.8365970000159,515.3217501000036,515.3250608000089,515.3388862999855,515.3388862999855,515.3388862999855,521.9452955999877,Foils\105a.jpg,none,n,6.592219600046519,None,,,,,,,,,00061,001,2026-01-19_18h08.07.496,MST_test,2024.2.0,59.776650520278906,2026-01-19 18h08.21.674033 +0530,
85,0,86,o,1.0987888000090607,None,86,0,85,521.9614950999967,,,,,,,,,,,,,,,,,,,,,,,,,,,,,,,,,,,,,,,,,,,,,,,,,,521.9453901000088,521.9614950999967,522.4467687000288,522.4538948000409,522.4635811999906,522.4635811999906,522.4635811999906,523.5674787000171,Objects\230a.jpg,mid,o,1.0987888000090607,None,,,,,,,,,00061,001,2026-01-19_18h08.07.496,MST_test,2024.2.0,59.776650520278906,2026-01-19 18h08.21.674033 +0530,
86,0,87,o,6.125060999998823,None,87,0,86,523.5839422999998,,,,,,,,,,,,,,,,,,,,,,,,,,,,,,,,,,,,,,,,,,,,,,,,,,523.5675869000261,523.5839422999998,524.0689271999872,524.0771171000088,524.0848637000308,524.0848637000308,524.0848637000308,530.2252463999903,Objects\273a.jpg,post,o,6.125060999998823,None,,,,,,,,,00061,001,2026-01-19_18h08.07.496,MST_test,2024.2.0,59.776650520278906,2026-01-19 18h08.21.674033 +0530,
87,0,88,n,1.7312384999822825,None,88,0,87,530.2407581000007,,,,,,,,,,,,,,,,,,,,,,,,,,,,,,,,,,,,,,,,,,,,,,,,,,530.225339800003,530.2407581000007,530.7256903999951,530.7285103999893,530.7423086999916,530.7423086999916,530.7423086999916,532.4824207000202,Foils\073a.jpg,none,n,1.7312384999822825,None,,,,,,,,,00061,001,2026-01-19_18h08.07.496,MST_test,2024.2.0,59.776650520278906,2026-01-19 18h08.21.674033 +0530,
88,0,89,n,1.2096782000153325,None,89,0,88,532.4985094000003,,,,,,,,,,,,,,,,,,,,,,,,,,,,,,,,,,,,,,,,,,,,,,,,,,532.4825182000059,532.4985094000003,532.9834430000046,532.9864854000043,533.0002150000073,533.0002150000073,533.0002150000073,534.2216105000116,Foils\017a.jpg,none,n,1.2096782000153325,None,,,,,,,,,00061,001,2026-01-19_18h08.07.496,MST_test,2024.2.0,59.776650520278906,2026-01-19 18h08.21.674033 +0530,
89,0,90,s,2.1741039999760687,None,90,0,89,534.2378069999977,,,,,,,,,,,,,,,,,,,,,,,,,,,,,,,,,,,,,,,,,,,,,,,,,,534.2217019000091,534.2378069999977,534.7230317000067,534.737181000004,534.7562478000182,534.7562478000182,534.7562478000182,536.9321958000073,Objects\343b.jpg,mid,s,2.1741039999760687,None,,,,,,,,,00061,001,2026-01-19_18h08.07.496,MST_test,2024.2.0,59.776650520278906,2026-01-19 18h08.21.674033 +0530,
90,0,91,o,4.799895200005267,None,91,0,90,536.9474227000028,,,,,,,,,,,,,,,,,,,,,,,,,,,,,,,,,,,,,,,,,,,,,,,,,,536.9322927999892,536.9474227000028,537.4323702999973,537.4470164999948,537.4658558000228,537.4658558000228,537.4658558000228,542.2665424000006,Objects\149b.jpg,mid,o,4.799895200005267,None,,,,,,,,,00061,001,2026-01-19_18h08.07.496,MST_test,2024.2.0,59.776650520278906,2026-01-19 18h08.21.674033 +0530,
91,0,92,o,0.8242810999508947,None,92,0,91,542.2832512999885,,,,,,,,,,,,,,,,,,,,,,,,,,,,,,,,,,,,,,,,,,,,,,,,,,542.2666673000203,542.2832512999885,542.7678884000052,542.781229300017,542.8013703000033,542.8013703000033,542.8013703000033,543.6382753000362,Objects\323b.jpg,pre,o,0.8242810999508947,None,,,,,,,,,00061,001,2026-01-19_18h08.07.496,MST_test,2024.2.0,59.776650520278906,2026-01-19 18h08.21.674033 +0530,
92,0,93,o,1.0048856000066735,None,93,0,92,543.6546148000052,,,,,,,,,,,,,,,,,,,,,,,,,,,,,,,,,,,,,,,,,,,,,,,,,,543.6383710000082,543.6546148000052,544.1395833000424,544.1535517000011,544.173152000003,544.173152000003,544.173152000003,545.1933175000013,Objects\081b.jpg,mid,o,1.0048856000066735,None,,,,,,,,,00061,001,2026-01-19_18h08.07.496,MST_test,2024.2.0,59.776650520278906,2026-01-19 18h08.21.674033 +0530,
93,0,94,o,3.282089399988763,None,94,0,93,545.2097019000212,,,,,,,,,,,,,,,,,,,,,,,,,,,,,,,,,,,,,,,,,,,,,,,,,,545.1934219000395,545.2097019000212,545.6947600999847,545.6973954000277,545.7113519000122,545.7113519000122,545.7113519000122,549.0067218000186,Objects\183a.jpg,mid,o,3.282089399988763,None,,,,,,,,,00061,001,2026-01-19_18h08.07.496,MST_test,2024.2.0,59.776650520278906,2026-01-19 18h08.21.674033 +0530,
94,0,95,s,3.7496656999574043,None,95,0,94,549.0229285000241,,,,,,,,,,,,,,,,,,,,,,,,,,,,,,,,,,,,,,,,,,,,,,,,,,549.0068241000408,549.0229285000241,549.5090057000052,549.5293385999976,549.5413573000114,549.5413573000114,549.5413573000114,553.305165000027,Objects\340b.jpg,mid,s,3.7496656999574043,None,,,,,,,,,00061,001,2026-01-19_18h08.07.496,MST_test,2024.2.0,59.776650520278906,2026-01-19 18h08.21.674033 +0530,
95,0,96,o,1.578969300026074,None,96,0,95,553.3213140000007,,,,,,,,,,,,,,,,,,,,,,,,,,,,,,,,,,,,,,,,,,,,,,,,,,553.3052595999907,553.3213140000007,553.8066156000132,553.8145960000111,553.8225626000203,553.8225626000203,553.8225626000203,555.4132739999914,Objects\046a.jpg,mid,o,1.578969300026074,None,,,,,,,,,00061,001,2026-01-19_18h08.07.496,MST_test,2024.2.0,59.776650520278906,2026-01-19 18h08.21.674033 +0530,
96,0,97,o,1.0464821999776177,None,97,0,96,555.429245700012,,,,,,,,,,,,,,,,,,,,,,,,,,,,,,,,,,,,,,,,,,,,,,,,,,555.4133738999953,555.429245700012,555.9138023999985,555.9244453000138,555.9472409000155,555.9472409000155,555.9472409000155,557.00172260002,Objects\305b.jpg,pre,o,1.0464821999776177,None,,,,,,,,,00061,001,2026-01-19_18h08.07.496,MST_test,2024.2.0,59.776650520278906,2026-01-19 18h08.21.674033 +0530,
97,0,98,o,1.386382800003048,None,98,0,97,557.0177097000415,,,,,,,,,,,,,,,,,,,,,,,,,,,,,,,,,,,,,,,,,,,,,,,,,,557.0018227000255,557.0177097000415,557.5026863000239,557.5093775999849,557.5194422000204,557.5194422000204,557.5194422000204,558.9082401000196,Objects\331a.jpg,pre,o,1.386382800003048,None,,,,,,,,,00061,001,2026-01-19_18h08.07.496,MST_test,2024.2.0,59.776650520278906,2026-01-19 18h08.21.674033 +0530,
98,0,99,o,1.559627900016494,None,99,0,98,558.9244939000346,,,,,,,,,,,,,,,,,,,,,,,,,,,,,,,,,,,,,,,,,,,,,,,,,,558.9083306000102,558.9244939000346,559.4093379999977,559.4162367000245,559.4260920000379,559.4260920000379,559.4260920000379,560.9988462000038,Objects\135a.jpg,mid,o,1.559627900016494,None,,,,,,,,,00061,001,2026-01-19_18h08.07.496,MST_test,2024.2.0,59.776650520278906,2026-01-19 18h08.21.674033 +0530,
99,0,100,n,3.5981819999869913,None,100,0,99,561.0150196999894,,,,,,,,,,,,,,,,,,,,,,,,,,,,,,,,,,,,,,,,,,,,,,,,,,560.9989401000203,561.0150196999894,561.500120599987,561.5028860000311,561.5167408999987,561.5167408999987,561.5167408999987,565.1302058000001,Foils\065a.jpg,none,n,3.5981819999869913,None,,,,,,,,,00061,001,2026-01-19_18h08.07.496,MST_test,2024.2.0,59.776650520278906,2026-01-19 18h08.21.674033 +0530,
100,0,101,n,1.0979766000527889,None,101,0,100,565.1462916000164,,,,,,,,,,,,,,,,,,,,,,,,,,,,,,,,,,,,,,,,,,,,,,,,,,565.1303049999988,565.1462916000164,565.6311117000296,565.6372748999856,565.6478737000143,565.6478737000143,565.6478737000143,566.7524074999965,Foils\f5.jpg,none,n,1.0979766000527889,None,,,,,,,,,00061,001,2026-01-19_18h08.07.496,MST_test,2024.2.0,59.776650520278906,2026-01-19 18h08.21.674033 +0530,
101,0,102,s,2.4911439000279643,None,102,0,101,566.7683813000331,,,,,,,,,,,,,,,,,,,,,,,,,,,,,,,,,,,,,,,,,,,,,,,,,,566.7524995999993,566.7683813000331,567.2535999999964,567.2675818999996,567.2868321000133,567.2868321000133,567.2868321000133,569.7793447999866,Objects\042b.jpg,post,s,2.4911439000279643,None,,,,,,,,,00061,001,2026-01-19_18h08.07.496,MST_test,2024.2.0,59.776650520278906,2026-01-19 18h08.21.674033 +0530,
102,0,103,s,6.472226300043985,None,103,0,102,569.7965777000063,,,,,,,,,,,,,,,,,,,,,,,,,,,,,,,,,,,,,,,,,,,,,,,,,,569.7794367999886,569.7965777000063,570.2807493000291,570.2833877000376,570.2974776999908,570.2974776999908,570.2974776999908,576.7707907999866,Foils\050a.jpg,none,s,6.472226300043985,None,,,,,,,,,00061,001,2026-01-19_18h08.07.496,MST_test,2024.2.0,59.776650520278906,2026-01-19 18h08.21.674033 +0530,
103,0,104,s,0.9285187000059523,None,104,0,103,576.7870799000375,,,,,,,,,,,,,,,,,,,,,,,,,,,,,,,,,,,,,,,,,,,,,,,,,,576.7708882000297,576.7870799000375,577.2720483000157,577.2813118000049,577.30537680001,577.30537680001,577.30537680001,578.2425282000331,Objects\114b.jpg,mid,s,0.9285187000059523,None,,,,,,,,,00061,001,2026-01-19_18h08.07.496,MST_test,2024.2.0,59.776650520278906,2026-01-19 18h08.21.674033 +0530,
104,0,105,s,1.1839385000057518,None,105,0,104,578.2588007000159,,,,,,,,,,,,,,,,,,,,,,,,,,,,,,,,,,,,,,,,,,,,,,,,,,578.2426197000314,578.2588007000159,578.7445952999988,578.7538864000235,578.7777373000281,578.7777373000281,578.7777373000281,579.9651422000024,Objects\134b.jpg,mid,s,1.1839385000057518,None,,,,,,,,,00061,001,2026-01-19_18h08.07.496,MST_test,2024.2.0,59.776650520278906,2026-01-19 18h08.21.674033 +0530,
105,0,106,n,1.719071300001815,None,106,0,105,579.981311600015,,,,,,,,,,,,,,,,,,,,,,,,,,,,,,,,,,,,,,,,,,,,,,,,,,579.9652376000304,579.981311600015,580.4666873000097,580.4694527999964,580.4830309000099,580.4830309000099,580.4830309000099,582.2063295000116,Foils\018a.jpg,none,n,1.719071300001815,None,,,,,,,,,00061,001,2026-01-19_18h08.07.496,MST_test,2024.2.0,59.776650520278906,2026-01-19 18h08.21.674033 +0530,
106,0,107,s,1.9658992000040598,None,107,0,106,582.2225082000368,,,,,,,,,,,,,,,,,,,,,,,,,,,,,,,,,,,,,,,,,,,,,,,,,,582.2064329999848,582.2225082000368,582.707729900023,582.7143770999974,582.7242413000204,582.7242413000204,582.7242413000204,584.698497000034,Objects\300a.jpg,mid,s,1.9658992000040598,None,,,,,,,,,00061,001,2026-01-19_18h08.07.496,MST_test,2024.2.0,59.776650520278906,2026-01-19 18h08.21.674033 +0530,
107,0,108,n,1.3843980999663472,None,108,0,107,584.7146776000154,,,,,,,,,,,,,,,,,,,,,,,,,,,,,,,,,,,,,,,,,,,,,,,,,,584.6985955000273,584.7146776000154,585.2010206000414,585.2095632000128,585.2330175000243,585.2330175000243,585.2330175000243,586.6219996000291,Foils\121a.jpg,none,n,1.3843980999663472,None,,,,,,,,,00061,001,2026-01-19_18h08.07.496,MST_test,2024.2.0,59.776650520278906,2026-01-19 18h08.21.674033 +0530,
108,0,109,n,2.7822132000001147,None,109,0,108,586.6379694000352,,,,,,,,,,,,,,,,,,,,,,,,,,,,,,,,,,,,,,,,,,,,,,,,,,586.6220913000288,586.6379694000352,587.1231798999943,587.1257227000315,587.1398082000087,587.1398082000087,587.1398082000087,589.9333606000291,Foils\113a.jpg,none,n,2.7822132000001147,None,,,,,,,,,00061,001,2026-01-19_18h08.07.496,MST_test,2024.2.0,59.776650520278906,2026-01-19 18h08.21.674033 +0530,
109,0,110,n,5.151839199999813,None,110,0,109,589.9495579000213,,,,,,,,,,,,,,,,,,,,,,,,,,,,,,,,,,,,,,,,,,,,,,,,,,589.933459300024,589.9495579000213,590.4347963000182,590.4374450999894,590.4512809999869,590.4512809999869,590.4512809999869,595.6199819000321,Foils\020b.jpg,none,n,5.151839199999813,None,,,,,,,,,00061,001,2026-01-19_18h08.07.496,MST_test,2024.2.0,59.776650520278906,2026-01-19 18h08.21.674033 +0530,
110,0,111,s,1.654958600003738,None,111,0,110,595.6361480000196,,,,,,,,,,,,,,,,,,,,,,,,,,,,,,,,,,,,,,,,,,,,,,,,,,595.6200712000136,595.6361480000196,596.1217432999983,596.1324123000377,596.1547135000001,596.1547135000001,596.1547135000001,597.8110587000265,Objects\116b.jpg,mid,s,1.654958600003738,None,,,,,,,,,00061,001,2026-01-19_18h08.07.496,MST_test,2024.2.0,59.776650520278906,2026-01-19 18h08.21.674033 +0530,
111,0,112,o,2.6409931000089273,None,112,0,111,597.8271444999846,,,,,,,,,,,,,,,,,,,,,,,,,,,,,,,,,,,,,,,,,,,,,,,,,,597.8111517000361,597.8271444999846,598.3123469999991,598.3192702000379,598.3287934000255,598.3287934000255,598.3287934000255,600.972032300022,Objects\206a.jpg,mid,o,2.6409931000089273,None,,,,,,,,,00061,001,2026-01-19_18h08.07.496,MST_test,2024.2.0,59.776650520278906,2026-01-19 18h08.21.674033 +0530,
112,0,113,n,2.175079899956472,None,113,0,112,600.9885431000148,,,,,,,,,,,,,,,,,,,,,,,,,,,,,,,,,,,,,,,,,,,,,,,,,,600.9721308000153,600.9885431000148,601.4734384000185,601.4878863000195,601.506789600011,601.506789600011,601.506789600011,603.6983668000321,Objects\069b.jpg,pre,n,2.175079899956472,None,,,,,,,,,00061,001,2026-01-19_18h08.07.496,MST_test,2024.2.0,59.776650520278906,2026-01-19 18h08.21.674033 +0530,
113,0,114,o,1.4824278999585658,None,114,0,113,603.7145557000185,,,,,,,,,,,,,,,,,,,,,,,,,,,,,,,,,,,,,,,,,,,,,,,,,,603.6984601999866,603.7145557000185,604.1995358000277,604.2020048000268,604.2163421000005,604.2163421000005,604.2163421000005,605.705272799998,Objects\245a.jpg,post,o,1.4824278999585658,None,,,,,,,,,00061,001,2026-01-19_18h08.07.496,MST_test,2024.2.0,59.776650520278906,2026-01-19 18h08.21.674033 +0530,
114,0,115,o,7.722722599981353,None,115,0,114,605.7215926999925,,,,,,,,,,,,,,,,,,,,,,,,,,,,,,,,,,,,,,,,,,,,,,,,,,605.7053666000138,605.7215926999925,606.2065305000287,606.209154799988,606.2232897999929,606.2232897999929,606.2232897999929,613.951012900041,Foils\066a.jpg,none,o,7.722722599981353,None,,,,,,,,,00061,001,2026-01-19_18h08.07.496,MST_test,2024.2.0,59.776650520278906,2026-01-19 18h08.21.674033 +0530,
115,0,116,o,0.9809269999968819,None,116,0,115,613.9669993999996,,,,,,,,,,,,,,,,,,,,,,,,,,,,,,,,,,,,,,,,,,,,,,,,,,613.9511132999905,613.9669993999996,614.4526588000008,614.4593060000334,614.4684474000242,614.4684474000242,614.4684474000242,615.4563576999935,Objects\368a.jpg,mid,o,0.9809269999968819,None,,,,,,,,,00061,001,2026-01-19_18h08.07.496,MST_test,2024.2.0,59.776650520278906,2026-01-19 18h08.21.674033 +0530,
116,0,117,o,3.6596904000034556,None,117,0,116,615.4728899000329,,,,,,,,,,,,,,,,,,,,,,,,,,,,,,,,,,,,,,,,,,,,,,,,,,615.4564597000135,615.4728899000329,615.9574759000097,615.96543630003,615.9742951000226,615.9742951000226,615.9742951000226,619.6375184000353,Objects\084a.jpg,pre,o,3.6596904000034556,None,,,,,,,,,00061,001,2026-01-19_18h08.07.496,MST_test,2024.2.0,59.776650520278906,2026-01-19 18h08.21.674033 +0530,
117,0,118,s,3.477845299988985,None,118,0,117,619.6535853000241,,,,,,,,,,,,,,,,,,,,,,,,,,,,,,,,,,,,,,,,,,,,,,,,,,619.6376120999921,619.6535853000241,620.138786400028,620.1482194000273,620.1720139000099,620.1720139000099,620.1720139000099,623.6514716999955,Objects\096b.jpg,post,s,3.477845299988985,None,,,,,,,,,00061,001,2026-01-19_18h08.07.496,MST_test,2024.2.0,59.776650520278906,2026-01-19 18h08.21.674033 +0530,
118,0,119,o,5.62504940002691,None,119,0,118,623.6677527999855,,,,,,,,,,,,,,,,,,,,,,,,,,,,,,,,,,,,,,,,,,,,,,,,,,623.651570099988,623.6677527999855,624.1527235000394,624.1617621000041,624.186210600019,624.186210600019,624.186210600019,629.824188700004,Objects\152b.jpg,post,o,5.62504940002691,None,,,,,,,,,00061,001,2026-01-19_18h08.07.496,MST_test,2024.2.0,59.776650520278906,2026-01-19 18h08.21.674033 +0530,
119,0,120,s,1.6362576999817975,None,120,0,119,629.8400887000025,,,,,,,,,,,,,,,,,,,,,,,,,,,,,,,,,,,,,,,,,,,,,,,,,,629.8242939999909,629.8400887000025,630.3250957000419,630.3353455000324,630.3585207000142,630.3585207000142,630.3585207000142,631.998487600009,Objects\148b.jpg,post,s,1.6362576999817975,None,,,,,,,,,00061,001,2026-01-19_18h08.07.496,MST_test,2024.2.0,59.776650520278906,2026-01-19 18h08.21.674033 +0530,
120,0,121,s,4.295133800012991,None,121,0,120,632.0136549000163,,,,,,,,,,,,,,,,,,,,,,,,,,,,,,,,,,,,,,,,,,,,,,,,,,631.9985957000172,632.0136549000163,632.4987254000152,632.5015304000117,632.5152323000366,632.5152323000366,632.5152323000366,636.8145528000314,Foils\026a.jpg,none,s,4.295133800012991,None,,,,,,,,,00061,001,2026-01-19_18h08.07.496,MST_test,2024.2.0,59.776650520278906,2026-01-19 18h08.21.674033 +0530,
121,0,122,s,3.3485246999771334,None,122,0,121,636.8304176999955,,,,,,,,,,,,,,,,,,,,,,,,,,,,,,,,,,,,,,,,,,,,,,,,,,636.8146443000296,636.8304176999955,637.3156032999977,637.3248951000278,637.3489595000283,637.3489595000283,637.3489595000283,640.7112301000161,Objects\102b.jpg,pre,s,3.3485246999771334,None,,,,,,,,,00061,001,2026-01-19_18h08.07.496,MST_test,2024.2.0,59.776650520278906,2026-01-19 18h08.21.674033 +0530,
122,0,123,s,1.7385212000226602,None,123,0,122,640.7273780000396,,,,,,,,,,,,,,,,,,,,,,,,,,,,,,,,,,,,,,,,,,,,,,,,,,640.7113220000174,640.7273780000396,641.2125781000359,641.2206339000259,641.279329699988,641.279329699988,641.279329699988,643.0192844000412,Objects\304a.jpg,pre,s,1.7385212000226602,None,,,,,,,,,00061,001,2026-01-19_18h08.07.496,MST_test,2024.2.0,59.776650520278906,2026-01-19 18h08.21.674033 +0530,
123,0,124,s,0.8797064999816939,None,124,0,123,643.035575499991,,,,,,,,,,,,,,,,,,,,,,,,,,,,,,,,,,,,,,,,,,,,,,,,,,643.0193805000163,643.035575499991,643.520526200009,643.5370036000386,643.5540046000388,643.5540046000388,643.5540046000388,644.4410759999882,Objects\079b.jpg,pre,s,0.8797064999816939,None,,,,,,,,,00061,001,2026-01-19_18h08.07.496,MST_test,2024.2.0,59.776650520278906,2026-01-19 18h08.21.674033 +0530,
124,0,125,o,4.7306954999803565,None,125,0,124,644.45723,,,,,,,,,,,,,,,,,,,,,,,,,,,,,,,,,,,,,,,,,,,,,,,,,,644.4411727000261,644.45723,644.9422015000018,644.9530994000379,644.9756649000337,644.9756649000337,644.9756649000337,649.709617000015,Objects\212b.jpg,mid,o,4.7306954999803565,None,,,,,,,,,00061,001,2026-01-19_18h08.07.496,MST_test,2024.2.0,59.776650520278906,2026-01-19 18h08.21.674033 +0530,
125,0,126,s,1.2949468999868259,None,126,0,125,649.725789899996,,,,,,,,,,,,,,,,,,,,,,,,,,,,,,,,,,,,,,,,,,,,,,,,,,649.7097123999847,649.725789899996,650.2106467999984,650.2131125000305,650.2273784999852,650.2273784999852,650.2273784999852,651.5328287000302,Objects\190b.jpg,post,s,1.2949468999868259,None,,,,,,,,,00061,001,2026-01-19_18h08.07.496,MST_test,2024.2.0,59.776650520278906,2026-01-19 18h08.21.674033 +0530,
126,0,127,s,1.655308099987451,None,127,0,126,651.5486087999889,,,,,,,,,,,,,,,,,,,,,,,,,,,,,,,,,,,,,,,,,,,,,,,,,,651.5329235999961,651.5486087999889,652.0338121000095,652.0366036000196,652.0504115000367,652.0504115000367,652.0504115000367,653.7069234999944,Objects\136a.jpg,post,s,1.655308099987451,None,,,,,,,,,00061,001,2026-01-19_18h08.07.496,MST_test,2024.2.0,59.776650520278906,2026-01-19 18h08.21.674033 +0530,
127,0,128,s,0.9922350000124425,None,128,0,127,653.7228783000028,,,,,,,,,,,,,,,,,,,,,,,,,,,,,,,,,,,,,,,,,,,,,,,,,,653.707018200017,653.7228783000028,654.2081750000361,654.2175089000375,654.241322899994,654.241322899994,654.241322899994,655.245553100016,Objects\201b.jpg,post,s,0.9922350000124425,None,,,,,,,,,00061,001,2026-01-19_18h08.07.496,MST_test,2024.2.0,59.776650520278906,2026-01-19 18h08.21.674033 +0530,
128,0,129,n,1.8863997000153176,None,129,0,128,655.2616222000215,,,,,,,,,,,,,,,,,,,,,,,,,,,,,,,,,,,,,,,,,,,,,,,,,,655.2456524000154,655.2616222000215,655.7469222000218,655.749833000009,655.763317200006,655.763317200006,655.763317200006,657.6539815000142,Foils\057a.jpg,none,n,1.8863997000153176,None,,,,,,,,,00061,001,2026-01-19_18h08.07.496,MST_test,2024.2.0,59.776650520278906,2026-01-19 18h08.21.674033 +0530,
129,0,130,s,2.04489639995154,None,130,0,129,657.6701822000323,,,,,,,,,,,,,,,,,,,,,,,,,,,,,,,,,,,,,,,,,,,,,,,,,,657.654079800006,657.6701822000323,658.1552452000324,658.1648553000414,658.1886049000314,658.1886049000314,658.1886049000314,660.2464788000216,Objects\007b.jpg,post,s,2.04489639995154,None,,,,,,,,,00061,001,2026-01-19_18h08.07.496,MST_test,2024.2.0,59.776650520278906,2026-01-19 18h08.21.674033 +0530,
130,0,131,n,1.8130354000022635,None,131,0,130,660.2626440000022,,,,,,,,,,,,,,,,,,,,,,,,,,,,,,,,,,,,,,,,,,,,,,,,,,660.2465822999948,660.2626440000022,660.7475352000329,660.750516500033,660.7644034000114,660.7644034000114,660.7644034000114,662.5879421000136,Foils\082a.jpg,none,n,1.8130354000022635,None,,,,,,,,,00061,001,2026-01-19_18h08.07.496,MST_test,2024.2.0,59.776650520278906,2026-01-19 18h08.21.674033 +0530,
131,0,132,o,3.159686499973759,None,132,0,131,662.6041059999843,,,,,,,,,,,,,,,,,,,,,,,,,,,,,,,,,,,,,,,,,,,,,,,,,,662.588035200024,662.6041059999843,663.0890609000344,663.0921486000298,663.1058092000312,663.1058092000312,663.1058092000312,666.2673636000254,Objects\228a.jpg,mid,o,3.159686499973759,None,,,,,,,,,00061,001,2026-01-19_18h08.07.496,MST_test,2024.2.0,59.776650520278906,2026-01-19 18h08.21.674033 +0530,
132,0,133,n,1.240293999959249,None,133,0,132,666.2838020999916,,,,,,,,,,,,,,,,,,,,,,,,,,,,,,,,,,,,,,,,,,,,,,,,,,666.2674767000135,666.2838020999916,666.7687204999966,666.7781853000051,666.8020864999853,666.8020864999853,666.8020864999853,668.0568351999973,Objects\302b.jpg,mid,n,1.240293999959249,None,,,,,,,,,00061,001,2026-01-19_18h08.07.496,MST_test,2024.2.0,59.776650520278906,2026-01-19 18h08.21.674033 +0530,
133,0,134,o,1.0981062999926507,None,134,0,133,668.0734131000354,,,,,,,,,,,,,,,,,,,,,,,,,,,,,,,,,,,,,,,,,,,,,,,,,,668.056929000013,668.0734131000354,668.5583049000124,668.5731756000314,668.5918267000234,668.5918267000234,668.5918267000234,669.6964049999951,Objects\264b.jpg,pre,o,1.0981062999926507,None,,,,,,,,,00061,001,2026-01-19_18h08.07.496,MST_test,2024.2.0,59.776650520278906,2026-01-19 18h08.21.674033 +0530,
134,0,135,n,1.2834774000220932,None,135,0,134,669.7122049999889,,,,,,,,,,,,,,,,,,,,,,,,,,,,,,,,,,,,,,,,,,,,,,,,,,669.6965090000303,669.7122049999889,670.1974275000393,670.2051465000259,670.230644700001,670.230644700001,670.230644700001,671.519080500002,Foils\101b.jpg,none,n,1.2834774000220932,None,,,,,,,,,00061,001,2026-01-19_18h08.07.496,MST_test,2024.2.0,59.776650520278906,2026-01-19 18h08.21.674033 +0530,
135,0,136,s,1.3481201999820769,None,136,0,135,671.5353770999936,,,,,,,,,,,,,,,,,,,,,,,,,,,,,,,,,,,,,,,,,,,,,,,,,,671.5191762000322,671.5353770999936,672.0204428000143,672.0351828000275,672.0536969000241,672.0536969000241,672.0536969000241,673.4090503000189,Objects\238b.jpg,post,s,1.3481201999820769,None,,,,,,,,,00061,001,2026-01-19_18h08.07.496,MST_test,2024.2.0,59.776650520278906,2026-01-19 18h08.21.674033 +0530,
136,0,137,s,2.1463156000245363,None,137,0,136,673.4253253000206,,,,,,,,,,,,,,,,,,,,,,,,,,,,,,,,,,,,,,,,,,,,,,,,,,673.4091444000369,673.4253253000206,673.9103881000192,673.9267037000391,673.943765300035,673.943765300035,673.943765300035,676.101756500022,Objects\167b.jpg,pre,s,2.1463156000245363,None,,,,,,,,,00061,001,2026-01-19_18h08.07.496,MST_test,2024.2.0,59.776650520278906,2026-01-19 18h08.21.674033 +0530,
137,0,138,n,2.5258048999821767,None,138,0,137,676.1180935000302,,,,,,,,,,,,,,,,,,,,,,,,,,,,,,,,,,,,,,,,,,,,,,,,,,676.1018524999963,676.1180935000302,676.6030921000056,676.6125855999999,676.6366761000245,676.6366761000245,676.6366761000245,679.1632914000074,Objects\049b.jpg,post,n,2.5258048999821767,None,,,,,,,,,00061,001,2026-01-19_18h08.07.496,MST_test,2024.2.0,59.776650520278906,2026-01-19 18h08.21.674033 +0530,
138,0,139,s,3.001334999979008,None,139,0,138,679.1788147999905,,,,,,,,,,,,,,,,,,,,,,,,,,,,,,,,,,,,,,,,,,,,,,,,,,679.1633900000015,679.1788147999905,679.6637765000341,679.6748332999996,679.6972528999904,679.6972528999904,679.6972528999904,682.7081793000107,Objects\108b.jpg,mid,s,3.001334999979008,None,,,,,,,,,00061,001,2026-01-19_18h08.07.496,MST_test,2024.2.0,59.776650520278906,2026-01-19 18h08.21.674033 +0530,
139,0,140,o,3.3999459000187926,None,140,0,139,682.7244399000192,,,,,,,,,,,,,,,,,,,,,,,,,,,,,,,,,,,,,,,,,,,,,,,,,,682.7082744000363,682.7244399000192,683.2096225999994,683.2121437999886,683.226146400033,683.226146400033,683.226146400033,686.6391165000387,Objects\169a.jpg,post,o,3.3999459000187926,None,,,,,,,,,00061,001,2026-01-19_18h08.07.496,MST_test,2024.2.0,59.776650520278906,2026-01-19 18h08.21.674033 +0530,
140,0,141,o,1.21310250001261,None,141,0,140,686.6549435000052,,,,,,,,,,,,,,,,,,,,,,,,,,,,,,,,,,,,,,,,,,,,,,,,,,686.6392126000137,686.6549435000052,687.1400683000102,687.1428070000256,687.1565871000057,687.1565871000057,687.1565871000057,688.3782804000075,Objects\039a.jpg,post,o,1.21310250001261,None,,,,,,,,,00061,001,2026-01-19_18h08.07.496,MST_test,2024.2.0,59.776650520278906,2026-01-19 18h08.21.674033 +0530,
141,0,142,s,1.8094066999619827,None,142,0,141,688.3942939999979,,,,,,,,,,,,,,,,,,,,,,,,,,,,,,,,,,,,,,,,,,,,,,,,,,688.3783753000316,688.3942939999979,688.8794792999979,688.8823516000411,688.8959958000341,688.8959958000341,688.8959958000341,690.7195217999979,Objects\128a.jpg,mid,s,1.8094066999619827,None,,,,,,,,,00061,001,2026-01-19_18h08.07.496,MST_test,2024.2.0,59.776650520278906,2026-01-19 18h08.21.674033 +0530,
142,0,143,s,4.204032100038603,None,143,0,142,690.735949199996,,,,,,,,,,,,,,,,,,,,,,,,,,,,,,,,,,,,,,,,,,,,,,,,,,690.7196172000258,690.735949199996,691.2208946000319,691.2286824000184,691.2373269000091,691.2373269000091,691.2373269000091,695.4535928000114,Objects\306a.jpg,mid,s,4.204032100038603,None,,,,,,,,,00061,001,2026-01-19_18h08.07.496,MST_test,2024.2.0,59.776650520278906,2026-01-19 18h08.21.674033 +0530,
143,0,144,o,1.8715968999895267,None,144,0,143,695.4695823999937,,,,,,,,,,,,,,,,,,,,,,,,,,,,,,,,,,,,,,,,,,,,,,,,,,695.4536996000097,695.4695823999937,695.9542751000263,695.9617556000012,695.9707124000415,695.9707124000415,695.9707124000415,697.8445924000116,Objects\070a.jpg,post,o,1.8715968999895267,None,,,,,,,,,00061,001,2026-01-19_18h08.07.496,MST_test,2024.2.0,59.776650520278906,2026-01-19 18h08.21.674033 +0530,
144,0,145,s,1.381707699969411,None,145,0,144,697.8609033999965,,,,,,,,,,,,,,,,,,,,,,,,,,,,,,,,,,,,,,,,,,,,,,,,,,697.8446873000357,697.8609033999965,698.3458717000321,698.363315900031,698.3796014999971,698.3796014999971,698.3796014999971,699.7679828000255,Objects\326b.jpg,pre,s,1.381707699969411,None,,,,,,,,,00061,001,2026-01-19_18h08.07.496,MST_test,2024.2.0,59.776650520278906,2026-01-19 18h08.21.674033 +0530,
145,0,146,o,4.435432099970058,None,146,0,145,699.7842832999886,,,,,,,,,,,,,,,,,,,,,,,,,,,,,,,,,,,,,,,,,,,,,,,,,,699.7681047000224,699.7842832999886,700.2692609000369,700.2769479000126,700.2874756000238,700.2874756000238,700.2874756000238,704.735803699994,Objects\299a.jpg,mid,o,4.435432099970058,None,,,,,,,,,00061,001,2026-01-19_18h08.07.496,MST_test,2024.2.0,59.776650520278906,2026-01-19 18h08.21.674033 +0530,
146,0,147,o,1.6681449000025168,None,147,0,146,704.7515687000123,,,,,,,,,,,,,,,,,,,,,,,,,,,,,,,,,,,,,,,,,,,,,,,,,,704.7359006000333,704.7515687000123,705.2367595999967,705.2437566000153,705.2533197000157,705.2533197000157,705.2533197000157,706.9264438000391,Objects\077a.jpg,mid,o,1.6681449000025168,None,,,,,,,,,00061,001,2026-01-19_18h08.07.496,MST_test,2024.2.0,59.776650520278906,2026-01-19 18h08.21.674033 +0530,
147,0,148,o,3.301737600006163,None,148,0,147,706.9426948000328,,,,,,,,,,,,,,,,,,,,,,,,,,,,,,,,,,,,,,,,,,,,,,,,,,706.9265363999875,706.9426948000328,707.427671900019,707.430539300025,707.4444010999869,707.4444010999869,707.4444010999869,710.7572301999899,Objects\216a.jpg,pre,o,3.301737600006163,None,,,,,,,,,00061,001,2026-01-19_18h08.07.496,MST_test,2024.2.0,59.776650520278906,2026-01-19 18h08.21.674033 +0530,
148,0,149,o,0.8164603000041097,None,149,0,148,710.7732727000257,,,,,,,,,,,,,,,,,,,,,,,,,,,,,,,,,,,,,,,,,,,,,,,,,,710.7573294999893,710.7732727000257,711.257718799985,711.2636776000145,711.2744896000368,711.2744896000368,711.2744896000368,712.0948902000091,Objects\367a.jpg,post,o,0.8164603000041097,None,,,,,,,,,00061,001,2026-01-19_18h08.07.496,MST_test,2024.2.0,59.776650520278906,2026-01-19 18h08.21.674033 +0530,
149,0,150,s,2.1719023000332527,None,150,0,149,712.1109146000235,,,,,,,,,,,,,,,,,,,,,,,,,,,,,,,,,,,,,,,,,,,,,,,,,,712.0949877999956,712.1109146000235,712.5957494000322,712.6110522000236,712.6297142000403,712.6297142000403,712.6297142000403,714.8043774000253,Objects\019b.jpg,pre,s,2.1719023000332527,None,,,,,,,,,00061,001,2026-01-19_18h08.07.496,MST_test,2024.2.0,59.776650520278906,2026-01-19 18h08.21.674033 +0530,
,,,,,,,,,,,,,,,,,,,,,,,,,,,,,,,,,,,,,,,,,,,,,,,,,,,,,,,,,,,,,,,,,,,,,,,,,714.8044458000222,714.8201560000307,714.8201560000307,716.560149100027,space,1.7254222999908961,None,00061,001,2026-01-19_18h08.07.496,MST_test,2024.2.0,59.776650520278906,2026-01-19 18h08.21.674033 +0530,
