thisN,thisTrialN,thisRepN,key_resp_3.keys,key_resp_3.rt,key_resp_3.duration,trials.thisRepN,trials.thisTrialN,trials.thisN,thisRow.t,notes,intro_page.started,text.started,key_resp.started,intro_page.stopped,key_resp.keys,key_resp.rt,key_resp.duration,instructions.started,text_2.started,key_resp_2.started,instructions.stopped,key_resp_2.keys,key_resp_2.rt,key_resp_2.duration,demo1.started,image_1.started,image_2.started,text_7.started,key_resp_6.started,text_9.started,demo1.stopped,key_resp_6.keys,key_resp_6.rt,key_resp_6.duration,demo3.started,image_5.started,image_6.started,text_11.started,text_12.started,key_resp_8.started,demo3.stopped,key_resp_8.keys,key_resp_8.rt,key_resp_8.duration,demo_conclusion.started,text_13.started,key_resp_9.started,demo_conclusion.stopped,key_resp_9.keys,key_resp_9.rt,key_resp_9.duration,start_test.started,text_6.started,key_resp_5.started,start_test.stopped,key_resp_5.keys,key_resp_5.rt,key_resp_5.duration,ISI.started,text_4.started,text_4.stopped,ISI.stopped,routine_1.started,image.started,text_3.started,key_resp_3.started,routine_1.stopped,image_path,position_of_stimuli,trials.key_resp_3.keys,trials.key_resp_3.rt,trials.key_resp_3.duration,End_page.started,text_5.started,key_resp_4.started,End_page.stopped,key_resp_4.keys,key_resp_4.rt,key_resp_4.duration,participant,session,date,expName,psychopyVersion,frameRate,expStart,
,,,,,,,,,,,0.000993099994957447,0.00259869999717921,0.00259869999717921,3.2661501999973552,space,3.2451476999995066,None,,,,,,,,,,,,,,,,,,,,,,,,,,,,,,,,,,,,,,,,,,,,,,,,,,,,,,,,,,,,,,,00065,001,2026-01-20_12h13.42.600,MST_test,2024.2.0,60.145600466736916,2026-01-20 12h13.49.762627 +0530,
,,,,,,,,,,,,,,,,,,3.266231899993727,3.2815409999893745,3.2815409999893745,23.65844339999603,space,20.365598899996257,None,,,,,,,,,,,,,,,,,,,,,,,,,,,,,,,,,,,,,,,,,,,,,,,,,,,,,,,,00065,001,2026-01-20_12h13.42.600,MST_test,2024.2.0,60.145600466736916,2026-01-20 12h13.49.762627 +0530,
,,,,,,,,,,,,,,,,,,,,,,,,,23.658558799987077,23.694474399992032,23.694474399992032,23.694474399992032,23.694474399992032,23.694474399992032,32.14220459999342,space,8.433013000001665,None,,,,,,,,,,,,,,,,,,,,,,,,,,,,,,,,,,,,,,,,,,,,,,00065,001,2026-01-20_12h13.42.600,MST_test,2024.2.0,60.145600466736916,2026-01-20 12h13.49.762627 +0530,
,,,,,,,,,,,,,,,,,,,,,,,,,,,,,,,,,,,32.14230009999301,32.15863879999961,32.15863879999961,32.15863879999961,32.15863879999961,32.15863879999961,35.959042599992245,space,3.784362599995802,None,,,,,,,,,,,,,,,,,,,,,,,,,,,,,,,,,,,,00065,001,2026-01-20_12h13.42.600,MST_test,2024.2.0,60.145600466736916,2026-01-20 12h13.49.762627 +0530,
,,,,,,,,,,,,,,,,,,,,,,,,,,,,,,,,,,,,,,,,,,,,,35.959149299989804,35.97522929999104,35.97522929999104,111.04186809998646,space,75.06475550000323,None,,,,,,,,,,,,,,,,,,,,,,,,,,,,,00065,001,2026-01-20_12h13.42.600,MST_test,2024.2.0,60.145600466736916,2026-01-20 12h13.49.762627 +0530,
,,,,,,,,,,,,,,,,,,,,,,,,,,,,,,,,,,,,,,,,,,,,,,,,,,,,111.04202129998885,111.06704209999589,111.06704209999589,122.67584859998897,space,11.596589499997208,None,,,,,,,,,,,,,,,,,,,,,,00065,001,2026-01-20_12h13.42.600,MST_test,2024.2.0,60.145600466736916,2026-01-20 12h13.49.762627 +0530,
0,0,1,n,1.8917451000015717,None,1,0,0,122.69153319999168,,,,,,,,,,,,,,,,,,,,,,,,,,,,,,,,,,,,,,,,,,,,,,,,,,122.6856606999936,122.69153319999168,123.20369869998831,123.17520639998838,123.20151849999093,123.20369869998831,123.20369869998831,123.20369869998831,125.10933129998739,Foils\066a.jpg,none,n,1.8917451000015717,None,,,,,,,,00065,001,2026-01-20_12h13.42.600,MST_test,2024.2.0,60.145600466736916,2026-01-20 12h13.49.762627 +0530,
1,0,2,o,1.9780697000096552,None,2,0,1,125.12484349998704,,,,,,,,,,,,,,,,,,,,,,,,,,,,,,,,,,,,,,,,,,,,,,,,,,125.10969249998743,125.12484349998704,125.65287859999808,125.60935229998722,125.64981229999103,125.65287859999808,125.65287859999808,125.65287859999808,127.64189629998873,Objects\243b.jpg,mid,o,1.9780697000096552,None,,,,,,,,00065,001,2026-01-20_12h13.42.600,MST_test,2024.2.0,60.145600466736916,2026-01-20 12h13.49.762627 +0530,
2,0,3,s,2.692779699995299,None,3,0,2,127.65789079999377,,,,,,,,,,,,,,,,,,,,,,,,,,,,,,,,,,,,,,,,,,,,,,,,,,127.6422515999875,127.65789079999377,128.21041789998708,128.14200339998933,128.20679649998783,128.21041789998708,128.21041789998708,128.21041789998708,130.90938739999547,Objects\260b.jpg,post,s,2.692779699995299,None,,,,,,,,00065,001,2026-01-20_12h13.42.600,MST_test,2024.2.0,60.145600466736916,2026-01-20 12h13.49.762627 +0530,
3,0,4,n,1.8722693000017898,None,4,0,3,130.92493389999436,,,,,,,,,,,,,,,,,,,,,,,,,,,,,,,,,,,,,,,,,,,,,,,,,,130.9100783999893,130.92493389999436,131.43135439998878,131.4085594999924,131.42932919999294,131.43135439998878,131.43135439998878,131.43135439998878,133.3087811999867,Foils\113a.jpg,none,n,1.8722693000017898,None,,,,,,,,00065,001,2026-01-20_12h13.42.600,MST_test,2024.2.0,60.145600466736916,2026-01-20 12h13.49.762627 +0530,
4,0,5,s,2.905271800002083,None,5,0,4,133.32490849999886,,,,,,,,,,,,,,,,,,,,,,,,,,,,,,,,,,,,,,,,,,,,,,,,,,133.30914199999825,133.32490849999886,133.86992800000007,133.8082282999967,133.86779749998823,133.86992800000007,133.86992800000007,133.86992800000007,136.7757782999979,Objects\275b.jpg,post,s,2.905271800002083,None,,,,,,,,00065,001,2026-01-20_12h13.42.600,MST_test,2024.2.0,60.145600466736916,2026-01-20 12h13.49.762627 +0530,
5,0,6,o,2.7306905000004917,None,6,0,5,136.79157159999886,,,,,,,,,,,,,,,,,,,,,,,,,,,,,,,,,,,,,,,,,,,,,,,,,,136.77615019999212,136.79157159999886,137.2921825999947,137.27508339998894,137.28492609999375,137.2921825999947,137.2921825999947,137.2921825999947,140.0250212999963,Objects\249a.jpg,mid,o,2.7306905000004917,None,,,,,,,,00065,001,2026-01-20_12h13.42.600,MST_test,2024.2.0,60.145600466736916,2026-01-20 12h13.49.762627 +0530,
6,0,7,s,2.281029799996759,None,7,0,6,140.04103819999727,,,,,,,,,,,,,,,,,,,,,,,,,,,,,,,,,,,,,,,,,,,,,,,,,,140.02537659999507,140.04103819999727,140.54201449999528,140.52519459999166,140.53415929999028,140.54201449999528,140.54201449999528,140.54201449999528,142.82514029998856,Objects\363a.jpg,mid,s,2.281029799996759,None,,,,,,,,00065,001,2026-01-20_12h13.42.600,MST_test,2024.2.0,60.145600466736916,2026-01-20 12h13.49.762627 +0530,
7,0,8,o,2.2974554000102216,None,8,0,7,142.84156599998823,,,,,,,,,,,,,,,,,,,,,,,,,,,,,,,,,,,,,,,,,,,,,,,,,,142.82550909998827,142.84156599998823,,143.32541849999689,143.33445019999635,143.34164259998943,143.34164259998943,143.34164259998943,145.64201139999204,Objects\261a.jpg,mid,o,2.2974554000102216,None,,,,,,,,00065,001,2026-01-20_12h13.42.600,MST_test,2024.2.0,60.145600466736916,2026-01-20 12h13.49.762627 +0530,
8,0,9,o,3.10405740000715,None,9,0,8,145.65823779998755,,,,,,,,,,,,,,,,,,,,,,,,,,,,,,,,,,,,,,,,,,,,,,,,,,145.64236349999555,145.65823779998755,146.15905749998637,146.1419704999862,146.1511111999862,146.15905749998637,146.15905749998637,146.15905749998637,149.27549069999077,Objects\118a.jpg,post,o,3.10405740000715,None,,,,,,,,00065,001,2026-01-20_12h13.42.600,MST_test,2024.2.0,60.145600466736916,2026-01-20 12h13.49.762627 +0530,
9,0,10,s,1.4305634000047576,None,10,0,9,149.2916411999904,,,,,,,,,,,,,,,,,,,,,,,,,,,,,,,,,,,,,,,,,,,,,,,,,,149.27584809999098,149.2916411999904,149.79240209999261,149.77565109998977,149.7848331999994,149.79240209999261,149.79240209999261,149.79240209999261,151.2251821999962,Objects\095a.jpg,mid,s,1.4305634000047576,None,,,,,,,,00065,001,2026-01-20_12h13.42.600,MST_test,2024.2.0,60.145600466736916,2026-01-20 12h13.49.762627 +0530,
10,0,11,s,3.014125600006082,None,11,0,10,151.2412556999916,,,,,,,,,,,,,,,,,,,,,,,,,,,,,,,,,,,,,,,,,,,,,,,,,,151.2255417999986,151.2412556999916,151.76085789999343,151.72523489999003,151.75855969999975,151.76085789999343,151.76085789999343,151.76085789999343,154.7756064999994,Objects\373b.jpg,mid,s,3.014125600006082,None,,,,,,,,00065,001,2026-01-20_12h13.42.600,MST_test,2024.2.0,60.145600466736916,2026-01-20 12h13.49.762627 +0530,
11,0,12,s,1.6594378000008874,None,12,0,11,154.79227259999607,,,,,,,,,,,,,,,,,,,,,,,,,,,,,,,,,,,,,,,,,,,,,,,,,,154.7760038999986,154.79227259999607,155.32412649999605,155.27524149999954,155.3209066999989,155.32412649999605,155.32412649999605,155.32412649999605,156.9925566999882,Objects\216b.jpg,mid,s,1.6594378000008874,None,,,,,,,,00065,001,2026-01-20_12h13.42.600,MST_test,2024.2.0,60.145600466736916,2026-01-20 12h13.49.762627 +0530,
12,0,13,s,2.3148339000035776,None,13,0,12,157.00824250000005,,,,,,,,,,,,,,,,,,,,,,,,,,,,,,,,,,,,,,,,,,,,,,,,,,156.99290969999856,157.00824250000005,157.53253669998958,157.49177229999623,157.5304790999944,157.53253669998958,157.53253669998958,157.53253669998958,159.85904119999032,Objects\191b.jpg,post,s,2.3148339000035776,None,,,,,,,,00065,001,2026-01-20_12h13.42.600,MST_test,2024.2.0,60.145600466736916,2026-01-20 12h13.49.762627 +0530,
13,0,14,n,2.0549781000008807,None,14,0,13,159.87461549999716,,,,,,,,,,,,,,,,,,,,,,,,,,,,,,,,,,,,,,,,,,,,,,,,,,159.85939329999383,159.87461549999716,160.37592959999165,160.35864089999814,160.36706649999542,160.37592959999165,160.37592959999165,160.37592959999165,162.44211879999784,Objects\150a.jpg,post,n,2.0549781000008807,None,,,,,,,,00065,001,2026-01-20_12h13.42.600,MST_test,2024.2.0,60.145600466736916,2026-01-20 12h13.49.762627 +0530,
14,0,15,s,3.244386900012614,None,15,0,14,162.45823079999536,,,,,,,,,,,,,,,,,,,,,,,,,,,,,,,,,,,,,,,,,,,,,,,,,,162.44246429999475,162.45823079999536,162.96329849999165,162.94167979998747,162.96094349998748,162.96329849999165,162.96329849999165,162.96329849999165,166.20907199999783,Foils\106a.jpg,none,s,3.244386900012614,None,,,,,,,,00065,001,2026-01-20_12h13.42.600,MST_test,2024.2.0,60.145600466736916,2026-01-20 12h13.49.762627 +0530,
15,0,16,n,3.2767641999962507,None,16,0,15,166.22492529999,,,,,,,,,,,,,,,,,,,,,,,,,,,,,,,,,,,,,,,,,,,,,,,,,,166.2094259000005,166.22492529999,166.76265309999872,166.70864519999304,166.76065499999095,166.76265309999872,166.76265309999872,166.76265309999872,170.04203949999646,Foils\105a.jpg,none,n,3.2767641999962507,None,,,,,,,,00065,001,2026-01-20_12h13.42.600,MST_test,2024.2.0,60.145600466736916,2026-01-20 12h13.49.762627 +0530,
16,0,17,s,3.042813899999601,None,17,0,16,170.05857869998727,,,,,,,,,,,,,,,,,,,,,,,,,,,,,,,,,,,,,,,,,,,,,,,,,,170.04241929999262,170.05857869998727,170.5967602999881,170.54197409999324,170.5940888999903,170.5967602999881,170.5967602999881,170.5967602999881,173.64194359999965,Objects\117b.jpg,pre,s,3.042813899999601,None,,,,,,,,00065,001,2026-01-20_12h13.42.600,MST_test,2024.2.0,60.145600466736916,2026-01-20 12h13.49.762627 +0530,
17,0,18,n,4.441612000009627,None,18,0,17,173.65824739998789,,,,,,,,,,,,,,,,,,,,,,,,,,,,,,,,,,,,,,,,,,,,,,,,,,173.64229809999233,173.65824739998789,174.16568759999063,174.1419978999911,174.16376019999734,174.16568759999063,174.16568759999063,174.16568759999063,178.6086413999874,Foils\034a.jpg,none,n,4.441612000009627,None,,,,,,,,00065,001,2026-01-20_12h13.42.600,MST_test,2024.2.0,60.145600466736916,2026-01-20 12h13.49.762627 +0530,
18,0,19,s,2.8014978999999585,None,19,0,18,178.62457949999953,,,,,,,,,,,,,,,,,,,,,,,,,,,,,,,,,,,,,,,,,,,,,,,,,,178.60902720000013,178.62457949999953,179.12539449999167,179.1086565000005,179.11554099999194,179.12539449999167,179.12539449999167,179.12539449999167,181.942221099991,Objects\188a.jpg,mid,s,2.8014978999999585,None,,,,,,,,00065,001,2026-01-20_12h13.42.600,MST_test,2024.2.0,60.145600466736916,2026-01-20 12h13.49.762627 +0530,
19,0,20,s,2.066852199990535,None,20,0,19,181.95823709999968,,,,,,,,,,,,,,,,,,,,,,,,,,,,,,,,,,,,,,,,,,,,,,,,,,181.9425721000007,181.95823709999968,,182.4425743999891,182.48252899998624,182.48472619999666,182.48472619999666,182.48472619999666,184.55854359999648,Objects\262b.jpg,pre,s,2.066852199990535,None,,,,,,,,00065,001,2026-01-20_12h13.42.600,MST_test,2024.2.0,60.145600466736916,2026-01-20 12h13.49.762627 +0530,
20,0,21,s,1.6122586999990745,None,21,0,20,184.5748457999871,,,,,,,,,,,,,,,,,,,,,,,,,,,,,,,,,,,,,,,,,,,,,,,,,,184.5586714999954,184.5748457999871,185.07509069998923,185.05864279999514,185.06763799999317,185.07509069998923,185.07509069998923,185.07509069998923,186.69222810000065,Objects\317a.jpg,post,s,1.6122586999990745,None,,,,,,,,00065,001,2026-01-20_12h13.42.600,MST_test,2024.2.0,60.145600466736916,2026-01-20 12h13.49.762627 +0530,
21,0,22,o,2.44018240000878,None,22,0,21,186.70824549999088,,,,,,,,,,,,,,,,,,,,,,,,,,,,,,,,,,,,,,,,,,,,,,,,,,186.69258439999248,186.70824549999088,187.2473822999891,187.19196439998632,187.2441026999877,187.2473822999891,187.2473822999891,187.2473822999891,189.69215649999387,Objects\242b.jpg,mid,o,2.44018240000878,None,,,,,,,,00065,001,2026-01-20_12h13.42.600,MST_test,2024.2.0,60.145600466736916,2026-01-20 12h13.49.762627 +0530,
22,0,23,s,1.815154399999301,None,23,0,22,189.70824419999553,,,,,,,,,,,,,,,,,,,,,,,,,,,,,,,,,,,,,,,,,,,,,,,,,,189.6925104999973,189.70824419999553,190.2240657999937,190.19189839999308,190.22175149999384,190.2240657999937,190.2240657999937,190.2240657999937,192.04196779998892,Objects\174b.jpg,post,s,1.815154399999301,None,,,,,,,,00065,001,2026-01-20_12h13.42.600,MST_test,2024.2.0,60.145600466736916,2026-01-20 12h13.49.762627 +0530,
23,0,24,s,1.2841188000020338,None,24,0,23,192.0582609999983,,,,,,,,,,,,,,,,,,,,,,,,,,,,,,,,,,,,,,,,,,,,,,,,,,192.04231569998956,192.0582609999983,192.6108028999879,192.54162689999794,192.60839769999438,192.6108028999879,192.6108028999879,192.6108028999879,193.9090831999929,Objects\339b.jpg,pre,s,1.2841188000020338,None,,,,,,,,00065,001,2026-01-20_12h13.42.600,MST_test,2024.2.0,60.145600466736916,2026-01-20 12h13.49.762627 +0530,
24,0,25,s,1.2583842999883927,None,25,0,24,193.92484479999985,,,,,,,,,,,,,,,,,,,,,,,,,,,,,,,,,,,,,,,,,,,,,,,,,,193.9094511999865,193.92484479999985,194.47713609998755,194.4086333999876,194.47462549999182,194.47713609998755,194.47713609998755,194.47713609998755,195.74205239998992,Objects\323b.jpg,post,s,1.2583842999883927,None,,,,,,,,00065,001,2026-01-20_12h13.42.600,MST_test,2024.2.0,60.145600466736916,2026-01-20 12h13.49.762627 +0530,
25,0,26,s,1.5163250000041444,None,26,0,25,195.75780339998892,,,,,,,,,,,,,,,,,,,,,,,,,,,,,,,,,,,,,,,,,,,,,,,,,,195.74242799999774,195.75780339998892,196.25858829999925,196.24196219998703,196.25382369999716,196.25858829999925,196.25858829999925,196.25858829999925,197.77576959998987,Objects\145a.jpg,mid,s,1.5163250000041444,None,,,,,,,,00065,001,2026-01-20_12h13.42.600,MST_test,2024.2.0,60.145600466736916,2026-01-20 12h13.49.762627 +0530,
26,0,27,o,1.7873039999976754,None,27,0,26,197.7918260999868,,,,,,,,,,,,,,,,,,,,,,,,,,,,,,,,,,,,,,,,,,,,,,,,,,197.77613790000032,197.7918260999868,198.2915737000003,198.27537049999228,198.2831368999905,198.2915737000003,198.2915737000003,198.2915737000003,200.0919689000002,Objects\215a.jpg,post,o,1.7873039999976754,None,,,,,,,,00065,001,2026-01-20_12h13.42.600,MST_test,2024.2.0,60.145600466736916,2026-01-20 12h13.49.762627 +0530,
27,0,28,s,1.9813923000037903,None,28,0,27,200.10819059998903,,,,,,,,,,,,,,,,,,,,,,,,,,,,,,,,,,,,,,,,,,,,,,,,,,200.09231839999848,200.10819059998903,200.6421655999875,200.5920449999976,200.63979079999262,200.6421655999875,200.6421655999875,200.6421655999875,202.6254498999915,Objects\149b.jpg,pre,s,1.9813923000037903,None,,,,,,,,00065,001,2026-01-20_12h13.42.600,MST_test,2024.2.0,60.145600466736916,2026-01-20 12h13.49.762627 +0530,
28,0,29,s,1.3054752000025474,None,29,0,28,202.64158999999927,,,,,,,,,,,,,,,,,,,,,,,,,,,,,,,,,,,,,,,,,,,,,,,,,,202.62580249999883,202.64158999999927,203.1420431999868,203.12526380000054,203.13416129999678,203.1420431999868,203.1420431999868,203.1420431999868,204.4593676999939,Objects\332a.jpg,post,s,1.3054752000025474,None,,,,,,,,00065,001,2026-01-20_12h13.42.600,MST_test,2024.2.0,60.145600466736916,2026-01-20 12h13.49.762627 +0530,
29,0,30,n,1.4870221000019228,None,30,0,29,204.47486939998635,,,,,,,,,,,,,,,,,,,,,,,,,,,,,,,,,,,,,,,,,,,,,,,,,,204.45972229998733,204.47486939998635,205.00849599999492,204.95833539999148,205.00610319999396,205.00849599999492,205.00849599999492,205.00849599999492,206.5089186999976,Foils\017a.jpg,none,n,1.4870221000019228,None,,,,,,,,00065,001,2026-01-20_12h13.42.600,MST_test,2024.2.0,60.145600466736916,2026-01-20 12h13.49.762627 +0530,
30,0,31,s,1.5574232000071788,None,31,0,30,206.5249230999907,,,,,,,,,,,,,,,,,,,,,,,,,,,,,,,,,,,,,,,,,,,,,,,,,,206.50932389999798,206.5249230999907,207.02549569999974,207.00866889998724,207.0173805999948,207.02549569999974,207.02549569999974,207.02549569999974,208.59223139999085,Objects\306a.jpg,post,s,1.5574232000071788,None,,,,,,,,00065,001,2026-01-20_12h13.42.600,MST_test,2024.2.0,60.145600466736916,2026-01-20 12h13.49.762627 +0530,
31,0,32,s,1.3541478999977699,None,32,0,31,208.60828799998853,,,,,,,,,,,,,,,,,,,,,,,,,,,,,,,,,,,,,,,,,,,,,,,,,,208.59249439999985,208.60828799998853,209.10849989998678,209.09140919998754,209.09785789999296,209.10849989998678,209.10849989998678,209.10849989998678,210.47491539998737,Objects\028a.jpg,pre,s,1.3541478999977699,None,,,,,,,,00065,001,2026-01-20_12h13.42.600,MST_test,2024.2.0,60.145600466736916,2026-01-20 12h13.49.762627 +0530,
32,0,33,s,3.354835700010881,None,33,0,32,210.49110989998735,,,,,,,,,,,,,,,,,,,,,,,,,,,,,,,,,,,,,,,,,,,,,,,,,,210.47502909999457,210.49110989998735,211.05201579999994,210.97495769998932,211.04952579998644,211.05201579999994,211.05201579999994,211.05201579999994,214.40858920000028,Objects\313b.jpg,mid,s,3.354835700010881,None,,,,,,,,00065,001,2026-01-20_12h13.42.600,MST_test,2024.2.0,60.145600466736916,2026-01-20 12h13.49.762627 +0530,
33,0,34,o,2.09035070000391,None,34,0,33,214.42471139998815,,,,,,,,,,,,,,,,,,,,,,,,,,,,,,,,,,,,,,,,,,,,,,,,,,214.4089518999972,214.42471139998815,214.92515269998694,214.9086729999981,214.91773079999257,214.92515269998694,214.92515269998694,214.92515269998694,217.02550379998866,Objects\246a.jpg,mid,o,2.09035070000391,None,,,,,,,,00065,001,2026-01-20_12h13.42.600,MST_test,2024.2.0,60.145600466736916,2026-01-20 12h13.49.762627 +0530,
34,0,35,s,2.0435244999971474,None,35,0,34,217.04158710000047,,,,,,,,,,,,,,,,,,,,,,,,,,,,,,,,,,,,,,,,,,,,,,,,,,217.02587139999378,217.04158710000047,217.54736240000057,217.52523539999675,217.54508669998904,217.54736240000057,217.54736240000057,217.54736240000057,219.59205799999472,Foils\086a.jpg,none,s,2.0435244999971474,None,,,,,,,,00065,001,2026-01-20_12h13.42.600,MST_test,2024.2.0,60.145600466736916,2026-01-20 12h13.49.762627 +0530,
35,0,36,s,1.3791971000027843,None,36,0,35,219.60827169999538,,,,,,,,,,,,,,,,,,,,,,,,,,,,,,,,,,,,,,,,,,,,,,,,,,219.5924110999913,219.60827169999538,220.10826959999395,220.09175329998834,220.1017109999957,220.10826959999395,220.10826959999395,220.10826959999395,221.49209589998645,Objects\037a.jpg,post,s,1.3791971000027843,None,,,,,,,,00065,001,2026-01-20_12h13.42.600,MST_test,2024.2.0,60.145600466736916,2026-01-20 12h13.49.762627 +0530,
36,0,37,s,2.1271375000069384,None,37,0,36,221.5082653999998,,,,,,,,,,,,,,,,,,,,,,,,,,,,,,,,,,,,,,,,,,,,,,,,,,221.4924452999985,221.5082653999998,222.00836209999397,221.99172869999893,221.99990359999356,222.00836209999397,222.00836209999397,222.00836209999397,224.14191949999076,Objects\314a.jpg,mid,s,2.1271375000069384,None,,,,,,,,00065,001,2026-01-20_12h13.42.600,MST_test,2024.2.0,60.145600466736916,2026-01-20 12h13.49.762627 +0530,
37,0,38,o,1.4764233999885619,None,38,0,37,224.15825909998966,,,,,,,,,,,,,,,,,,,,,,,,,,,,,,,,,,,,,,,,,,,,,,,,,,224.14229779999005,224.15825909998966,224.65842229999544,224.64198079999187,224.65158320000046,224.65842229999544,224.65842229999544,224.65842229999544,226.14229329999944,Objects\067a.jpg,pre,o,1.4764233999885619,None,,,,,,,,00065,001,2026-01-20_12h13.42.600,MST_test,2024.2.0,60.145600466736916,2026-01-20 12h13.49.762627 +0530,
38,0,39,s,2.8063790000014706,None,39,0,38,226.15826079998806,,,,,,,,,,,,,,,,,,,,,,,,,,,,,,,,,,,,,,,,,,,,,,,,,,226.1426528999873,226.15826079998806,226.68846179998945,226.64198829999077,226.68593089999922,226.68846179998945,226.68846179998945,226.68846179998945,229.50953099998878,Objects\347b.jpg,pre,s,2.8063790000014706,None,,,,,,,,00065,001,2026-01-20_12h13.42.600,MST_test,2024.2.0,60.145600466736916,2026-01-20 12h13.49.762627 +0530,
39,0,40,n,3.2647217999910936,None,40,0,39,229.52461480000056,,,,,,,,,,,,,,,,,,,,,,,,,,,,,,,,,,,,,,,,,,,,,,,,,,229.5098891999951,229.52461480000056,230.04612039998756,230.00864269999147,230.04323579999618,230.04612039998756,230.04612039998756,230.04612039998756,233.3257225999987,Objects\029b.jpg,post,n,3.2647217999910936,None,,,,,,,,00065,001,2026-01-20_12h13.42.600,MST_test,2024.2.0,60.145600466736916,2026-01-20 12h13.49.762627 +0530,
40,0,41,s,1.5251414000085788,None,41,0,40,233.34231309998722,,,,,,,,,,,,,,,,,,,,,,,,,,,,,,,,,,,,,,,,,,,,,,,,,,233.32607699999062,233.34231309998722,233.8420111999876,233.82523729999957,233.83429099999194,233.8420111999876,233.8420111999876,233.8420111999876,235.37574249999307,Objects\207a.jpg,mid,s,1.5251414000085788,None,,,,,,,,00065,001,2026-01-20_12h13.42.600,MST_test,2024.2.0,60.145600466736916,2026-01-20 12h13.49.762627 +0530,
41,0,42,s,1.7384665999998106,None,42,0,41,235.3923219999997,,,,,,,,,,,,,,,,,,,,,,,,,,,,,,,,,,,,,,,,,,,,,,,,,,235.3760961999942,235.3923219999997,235.89242649999505,235.87513209998724,235.88452249999682,235.89242649999505,235.89242649999505,235.89242649999505,237.64221879999968,Objects\189a.jpg,mid,s,1.7384665999998106,None,,,,,,,,00065,001,2026-01-20_12h13.42.600,MST_test,2024.2.0,60.145600466736916,2026-01-20 12h13.49.762627 +0530,
42,0,43,o,1.3048698000056902,None,43,0,42,237.65822929999558,,,,,,,,,,,,,,,,,,,,,,,,,,,,,,,,,,,,,,,,,,,,,,,,,,237.64257069998712,237.65822929999558,238.158600499999,238.14195749998908,238.1495358999964,238.158600499999,238.158600499999,238.158600499999,239.4755010999943,Objects\333a.jpg,post,o,1.3048698000056902,None,,,,,,,,00065,001,2026-01-20_12h13.42.600,MST_test,2024.2.0,60.145600466736916,2026-01-20 12h13.49.762627 +0530,
43,0,44,s,2.922264200009522,None,44,0,43,239.49128269999346,,,,,,,,,,,,,,,,,,,,,,,,,,,,,,,,,,,,,,,,,,,,,,,,,,239.4758729999885,239.49128269999346,240.00461649999488,239.97525229999155,240.00222809999832,240.00461649999488,240.00461649999488,240.00461649999488,242.94205939999665,Objects\156b.jpg,mid,s,2.922264200009522,None,,,,,,,,00065,001,2026-01-20_12h13.42.600,MST_test,2024.2.0,60.145600466736916,2026-01-20 12h13.49.762627 +0530,
44,0,45,n,1.8902682999905664,None,45,0,44,242.9582526999875,,,,,,,,,,,,,,,,,,,,,,,,,,,,,,,,,,,,,,,,,,,,,,,,,,242.94240909999644,242.9582526999875,243.50055299999076,243.44203059999563,243.49839269999939,243.50055299999076,243.50055299999076,243.50055299999076,245.39198479999322,Foils\f7.jpg,none,n,1.8902682999905664,None,,,,,,,,00065,001,2026-01-20_12h13.42.600,MST_test,2024.2.0,60.145600466736916,2026-01-20 12h13.49.762627 +0530,
45,0,46,s,1.1338944000017364,None,46,0,45,245.40808959999413,,,,,,,,,,,,,,,,,,,,,,,,,,,,,,,,,,,,,,,,,,,,,,,,,,245.39234509998641,245.40808959999413,245.93729759998678,245.8919074999867,245.93494019999343,245.93729759998678,245.93729759998678,245.93729759998678,247.07557729999826,Objects\015b.jpg,mid,s,1.1338944000017364,None,,,,,,,,00065,001,2026-01-20_12h13.42.600,MST_test,2024.2.0,60.145600466736916,2026-01-20 12h13.49.762627 +0530,
46,0,47,s,1.1186653000040678,None,47,0,46,247.0915229999955,,,,,,,,,,,,,,,,,,,,,,,,,,,,,,,,,,,,,,,,,,,,,,,,,,247.07594539999263,247.0915229999955,247.6321898999886,247.57533779999358,247.62953539998853,247.6321898999886,247.6321898999886,247.6321898999886,248.75883919998887,Objects\348b.jpg,post,s,1.1186653000040678,None,,,,,,,,00065,001,2026-01-20_12h13.42.600,MST_test,2024.2.0,60.145600466736916,2026-01-20 12h13.49.762627 +0530,
47,0,48,s,1.0597259999922244,None,48,0,47,248.77492329999222,,,,,,,,,,,,,,,,,,,,,,,,,,,,,,,,,,,,,,,,,,,,,,,,,,248.7591997999989,248.77492329999222,249.3237533999927,249.25861449999502,249.3210326999979,249.3237533999927,249.3237533999927,249.3237533999927,250.39216489999671,Objects\078b.jpg,mid,s,1.0597259999922244,None,,,,,,,,00065,001,2026-01-20_12h13.42.600,MST_test,2024.2.0,60.145600466736916,2026-01-20 12h13.49.762627 +0530,
48,0,49,o,1.7151742999994894,None,49,0,48,250.40795719999005,,,,,,,,,,,,,,,,,,,,,,,,,,,,,,,,,,,,,,,,,,,,,,,,,,250.39253459998872,250.40795719999005,250.90834769999492,250.89193189999787,250.8989115999866,250.90834769999492,250.90834769999492,250.90834769999492,252.62523469999724,Objects\211a.jpg,pre,o,1.7151742999994894,None,,,,,,,,00065,001,2026-01-20_12h13.42.600,MST_test,2024.2.0,60.145600466736916,2026-01-20 12h13.49.762627 +0530,
49,0,50,n,1.1080157000105828,None,50,0,49,252.6412399999972,,,,,,,,,,,,,,,,,,,,,,,,,,,,,,,,,,,,,,,,,,,,,,,,,,252.62558929999068,252.6412399999972,253.14745009999024,253.12561239999195,253.1448887000006,253.14745009999024,253.14745009999024,253.14745009999024,254.2585764999967,Foils\098a.jpg,none,n,1.1080157000105828,None,,,,,,,,00065,001,2026-01-20_12h13.42.600,MST_test,2024.2.0,60.145600466736916,2026-01-20 12h13.49.762627 +0530,
50,0,51,s,1.258941899999627,None,51,0,50,254.27570579999883,,,,,,,,,,,,,,,,,,,,,,,,,,,,,,,,,,,,,,,,,,,,,,,,,,254.25892729999032,254.27570579999883,254.79672719999508,254.75848939998832,254.79399749998993,254.79672719999508,254.79672719999508,254.79672719999508,256.0585929999943,Objects\097b.jpg,pre,s,1.258941899999627,None,,,,,,,,00065,001,2026-01-20_12h13.42.600,MST_test,2024.2.0,60.145600466736916,2026-01-20 12h13.49.762627 +0530,
51,0,52,s,1.2557739000039874,None,52,0,51,256.07570059999125,,,,,,,,,,,,,,,,,,,,,,,,,,,,,,,,,,,,,,,,,,,,,,,,,,256.05894329999865,256.07570059999125,256.6710693999921,256.55865469999844,256.669129899994,256.6710693999921,256.6710693999921,256.6710693999921,257.94221369999286,Objects\083b.jpg,post,s,1.2557739000039874,None,,,,,,,,00065,001,2026-01-20_12h13.42.600,MST_test,2024.2.0,60.145600466736916,2026-01-20 12h13.49.762627 +0530,
52,0,53,n,1.1402656999998726,None,53,0,52,257.9581894999865,,,,,,,,,,,,,,,,,,,,,,,,,,,,,,,,,,,,,,,,,,,,,,,,,,257.9425598999951,257.9581894999865,258.45884919998934,258.4425438999897,258.4487458999938,258.45884919998934,258.45884919998934,258.45884919998934,259.60889429999224,Objects\257a.jpg,pre,n,1.1402656999998726,None,,,,,,,,00065,001,2026-01-20_12h13.42.600,MST_test,2024.2.0,60.145600466736916,2026-01-20 12h13.49.762627 +0530,
53,0,54,s,5.233525899995584,None,54,0,53,259.62493029999314,,,,,,,,,,,,,,,,,,,,,,,,,,,,,,,,,,,,,,,,,,,,,,,,,,259.60918819998915,259.62493029999314,260.1255894999922,260.1085512999998,260.117731499995,260.1255894999922,260.1255894999922,260.1255894999922,265.37543249999,Objects\093a.jpg,mid,s,5.233525899995584,None,,,,,,,,00065,001,2026-01-20_12h13.42.600,MST_test,2024.2.0,60.145600466736916,2026-01-20 12h13.49.762627 +0530,
54,0,55,o,1.939326500010793,None,55,0,54,265.3915890999924,,,,,,,,,,,,,,,,,,,,,,,,,,,,,,,,,,,,,,,,,,,,,,,,,,265.37580279998656,265.3915890999924,265.8914931999898,265.87531540000055,265.88420079999196,265.8914931999898,265.8914931999898,265.8914931999898,267.8424457999936,Objects\129a.jpg,pre,o,1.939326500010793,None,,,,,,,,00065,001,2026-01-20_12h13.42.600,MST_test,2024.2.0,60.145600466736916,2026-01-20 12h13.49.762627 +0530,
55,0,56,s,1.1039930999977514,None,56,0,55,267.8585960999917,,,,,,,,,,,,,,,,,,,,,,,,,,,,,,,,,,,,,,,,,,,,,,,,,,267.8427978999971,267.8585960999917,268.3994698999886,268.34186749999935,268.3968840999878,268.3994698999886,268.3994698999886,268.3994698999886,269.50952439999674,Objects\233b.jpg,pre,s,1.1039930999977514,None,,,,,,,,00065,001,2026-01-20_12h13.42.600,MST_test,2024.2.0,60.145600466736916,2026-01-20 12h13.49.762627 +0530,
56,0,57,s,1.1505933000007644,None,57,0,56,269.5250623999891,,,,,,,,,,,,,,,,,,,,,,,,,,,,,,,,,,,,,,,,,,,,,,,,,,269.5098893999966,269.5250623999891,270.0562234999961,270.0086530999979,270.0533385999879,270.0562234999961,270.0562234999961,270.0562234999961,271.2085825999966,Objects\204b.jpg,pre,s,1.1505933000007644,None,,,,,,,,00065,001,2026-01-20_12h13.42.600,MST_test,2024.2.0,60.145600466736916,2026-01-20 12h13.49.762627 +0530,
57,0,58,s,1.3018345000018599,None,58,0,57,271.22429399999965,,,,,,,,,,,,,,,,,,,,,,,,,,,,,,,,,,,,,,,,,,,,,,,,,,271.2089399999968,271.22429399999965,271.7776424999902,271.70865659999254,271.77511659999436,271.7776424999902,271.7776424999902,271.7776424999902,273.0922569999966,Objects\134b.jpg,pre,s,1.3018345000018599,None,,,,,,,,00065,001,2026-01-20_12h13.42.600,MST_test,2024.2.0,60.145600466736916,2026-01-20 12h13.49.762627 +0530,
58,0,59,s,1.683170299991616,None,59,0,58,273.1079019999888,,,,,,,,,,,,,,,,,,,,,,,,,,,,,,,,,,,,,,,,,,,,,,,,,,273.09261209999386,273.1079019999888,273.6522987999924,273.5917725999898,273.6500731999986,273.6522987999924,273.6522987999924,273.6522987999924,275.3425772999908,Objects\059b.jpg,post,s,1.683170299991616,None,,,,,,,,00065,001,2026-01-20_12h13.42.600,MST_test,2024.2.0,60.145600466736916,2026-01-20 12h13.49.762627 +0530,
59,0,60,s,1.604019700011122,None,60,0,59,275.35827299999073,,,,,,,,,,,,,,,,,,,,,,,,,,,,,,,,,,,,,,,,,,,,,,,,,,275.34293369999796,275.35827299999073,275.891420999993,275.8419833999942,275.8894440999866,275.891420999993,275.891420999993,275.891420999993,277.5088950999925,Objects\064b.jpg,post,s,1.604019700011122,None,,,,,,,,00065,001,2026-01-20_12h13.42.600,MST_test,2024.2.0,60.145600466736916,2026-01-20 12h13.49.762627 +0530,
60,0,61,o,1.4942690000025323,None,61,0,60,277.5249702999863,,,,,,,,,,,,,,,,,,,,,,,,,,,,,,,,,,,,,,,,,,,,,,,,,,277.50924759999907,277.5249702999863,278.02519099999336,278.00903729999845,278.0178319999977,278.02519099999336,278.02519099999336,278.02519099999336,279.52527039998677,Objects\085a.jpg,pre,o,1.4942690000025323,None,,,,,,,,00065,001,2026-01-20_12h13.42.600,MST_test,2024.2.0,60.145600466736916,2026-01-20 12h13.49.762627 +0530,
61,0,62,s,2.1320217000029515,None,62,0,61,279.54147459998785,,,,,,,,,,,,,,,,,,,,,,,,,,,,,,,,,,,,,,,,,,,,,,,,,,279.52562549999857,279.54147459998785,280.0754911999975,280.0251733999903,280.07318819999637,280.0754911999975,280.0754911999975,280.0754911999975,282.2088354000007,Objects\290b.jpg,mid,s,2.1320217000029515,None,,,,,,,,00065,001,2026-01-20_12h13.42.600,MST_test,2024.2.0,60.145600466736916,2026-01-20 12h13.49.762627 +0530,
62,0,63,n,1.6377850999997463,None,63,0,62,282.2252434999973,,,,,,,,,,,,,,,,,,,,,,,,,,,,,,,,,,,,,,,,,,,,,,,,,,282.2091878999927,282.2252434999973,282.729817799991,282.7085960999975,282.7276293999894,282.729817799991,282.729817799991,282.729817799991,284.37602199999674,Foils\093b.jpg,none,n,1.6377850999997463,None,,,,,,,,00065,001,2026-01-20_12h13.42.600,MST_test,2024.2.0,60.145600466736916,2026-01-20 12h13.49.762627 +0530,
63,0,64,s,1.9695253999962006,None,64,0,63,284.3916004999919,,,,,,,,,,,,,,,,,,,,,,,,,,,,,,,,,,,,,,,,,,,,,,,,,,284.3763781999878,284.3916004999919,284.9102286999987,284.87531339999987,284.9082525999984,284.9102286999987,284.9102286999987,284.9102286999987,286.8922190999874,Objects\087b.jpg,post,s,1.9695253999962006,None,,,,,,,,00065,001,2026-01-20_12h13.42.600,MST_test,2024.2.0,60.145600466736916,2026-01-20 12h13.49.762627 +0530,
64,0,65,s,1.2932421999867074,None,65,0,64,286.90814749999845,,,,,,,,,,,,,,,,,,,,,,,,,,,,,,,,,,,,,,,,,,,,,,,,,,286.8925714999932,286.90814749999845,287.433537799996,287.39198859999306,287.43104019999737,287.433537799996,287.433537799996,287.433537799996,288.7419501999975,Foils\097a.jpg,none,s,1.2932421999867074,None,,,,,,,,00065,001,2026-01-20_12h13.42.600,MST_test,2024.2.0,60.145600466736916,2026-01-20 12h13.49.762627 +0530,
65,0,66,s,1.244856899997103,None,66,0,65,288.7582030999911,,,,,,,,,,,,,,,,,,,,,,,,,,,,,,,,,,,,,,,,,,,,,,,,,,288.74230220000027,288.7582030999911,289.25819429999683,289.2419846999983,289.2485039999883,289.25819429999683,289.25819429999683,289.25819429999683,290.50845299998764,Objects\051a.jpg,post,s,1.244856899997103,None,,,,,,,,00065,001,2026-01-20_12h13.42.600,MST_test,2024.2.0,60.145600466736916,2026-01-20 12h13.49.762627 +0530,
66,0,67,s,2.1286355999909574,None,67,0,66,290.5249255999952,,,,,,,,,,,,,,,,,,,,,,,,,,,,,,,,,,,,,,,,,,,,,,,,,,290.5088180999883,290.5249255999952,291.09419639999396,291.00861529998656,291.0916700999951,291.09419639999396,291.09419639999396,291.09419639999396,293.22548280000046,Objects\070b.jpg,mid,s,2.1286355999909574,None,,,,,,,,00065,001,2026-01-20_12h13.42.600,MST_test,2024.2.0,60.145600466736916,2026-01-20 12h13.49.762627 +0530,
67,0,68,n,2.614838500012411,None,68,0,67,293.2413506999874,,,,,,,,,,,,,,,,,,,,,,,,,,,,,,,,,,,,,,,,,,,,,,,,,,293.2258479999873,293.2413506999874,293.76860129999113,293.72537489999377,293.7660451999982,293.76860129999113,293.76860129999113,293.76860129999113,296.3922711999912,Objects\301b.jpg,mid,n,2.614838500012411,None,,,,,,,,00065,001,2026-01-20_12h13.42.600,MST_test,2024.2.0,60.145600466736916,2026-01-20 12h13.49.762627 +0530,
68,0,69,s,3.0665393999952357,None,69,0,68,296.4081933999987,,,,,,,,,,,,,,,,,,,,,,,,,,,,,,,,,,,,,,,,,,,,,,,,,,296.3926672999951,296.4081933999987,296.9083561000007,296.8917655999976,296.89781909999147,296.9083561000007,296.9083561000007,296.9083561000007,299.97571829998924,Objects\154a.jpg,pre,s,3.0665393999952357,None,,,,,,,,00065,001,2026-01-20_12h13.42.600,MST_test,2024.2.0,60.145600466736916,2026-01-20 12h13.49.762627 +0530,
69,0,70,o,2.866955000004964,None,70,0,69,299.9916066000005,,,,,,,,,,,,,,,,,,,,,,,,,,,,,,,,,,,,,,,,,,,,,,,,,,299.9761018999998,299.9916066000005,300.49185529998795,300.4753325999918,300.4863273999945,300.49185529998795,300.49185529998795,300.49185529998795,303.37558939999144,Objects\326a.jpg,mid,o,2.866955000004964,None,,,,,,,,00065,001,2026-01-20_12h13.42.600,MST_test,2024.2.0,60.145600466736916,2026-01-20 12h13.49.762627 +0530,
70,0,71,s,1.083004100000835,None,71,0,70,303.3917186999897,,,,,,,,,,,,,,,,,,,,,,,,,,,,,,,,,,,,,,,,,,,,,,,,,,303.3759663999954,303.3917186999897,303.8918815999932,303.87532819999615,303.8872425999871,303.8918815999932,303.8918815999932,303.8918815999932,304.9757213999983,Objects\302a.jpg,pre,s,1.083004100000835,None,,,,,,,,00065,001,2026-01-20_12h13.42.600,MST_test,2024.2.0,60.145600466736916,2026-01-20 12h13.49.762627 +0530,
71,0,72,s,1.744150800004718,None,72,0,71,304.9914562999911,,,,,,,,,,,,,,,,,,,,,,,,,,,,,,,,,,,,,,,,,,,,,,,,,,304.9760765999963,304.9914562999911,305.52729069998895,305.475320499987,305.5248152999993,305.52729069998895,305.52729069998895,305.52729069998895,307.2754891999939,Objects\229b.jpg,pre,s,1.744150800004718,None,,,,,,,,00065,001,2026-01-20_12h13.42.600,MST_test,2024.2.0,60.145600466736916,2026-01-20 12h13.49.762627 +0530,
72,0,73,s,3.2407869000016944,None,73,0,72,307.29130769999756,,,,,,,,,,,,,,,,,,,,,,,,,,,,,,,,,,,,,,,,,,,,,,,,,,307.2758606999996,307.29130769999756,307.8226899000001,307.77544189999753,307.8195992999972,307.8226899000001,307.8226899000001,307.8226899000001,311.0754822999879,Objects\160b.jpg,mid,s,3.2407869000016944,None,,,,,,,,00065,001,2026-01-20_12h13.42.600,MST_test,2024.2.0,60.145600466736916,2026-01-20 12h13.49.762627 +0530,
73,0,74,o,1.6931881000055,None,74,0,73,311.09146859998873,,,,,,,,,,,,,,,,,,,,,,,,,,,,,,,,,,,,,,,,,,,,,,,,,,311.07584329998645,311.09146859998873,311.62593789999664,311.5749719999876,311.62362069998926,311.62593789999664,311.62593789999664,311.62593789999664,313.3258474999893,Objects\259b.jpg,pre,o,1.6931881000055,None,,,,,,,,00065,001,2026-01-20_12h13.42.600,MST_test,2024.2.0,60.145600466736916,2026-01-20 12h13.49.762627 +0530,
74,0,75,o,1.4929981000022963,None,75,0,74,313.341468899991,,,,,,,,,,,,,,,,,,,,,,,,,,,,,,,,,,,,,,,,,,,,,,,,,,313.3262219999888,313.341468899991,313.8418027999869,313.8249544999999,313.8338265999919,313.8418027999869,313.8418027999869,313.8418027999869,315.3421779999917,Objects\199a.jpg,post,o,1.4929981000022963,None,,,,,,,,00065,001,2026-01-20_12h13.42.600,MST_test,2024.2.0,60.145600466736916,2026-01-20 12h13.49.762627 +0530,
75,0,76,s,1.1409416999958921,None,76,0,75,315.35858339999686,,,,,,,,,,,,,,,,,,,,,,,,,,,,,,,,,,,,,,,,,,,,,,,,,,315.3425289000006,315.35858339999686,315.85848299998906,315.8419309999881,315.84882509999443,315.85848299998906,315.85848299998906,315.85848299998906,317.0096646999882,Objects\105a.jpg,post,s,1.1409416999958921,None,,,,,,,,00065,001,2026-01-20_12h13.42.600,MST_test,2024.2.0,60.145600466736916,2026-01-20 12h13.49.762627 +0530,
76,0,77,s,1.4581250000046566,None,77,0,76,317.02493289999256,,,,,,,,,,,,,,,,,,,,,,,,,,,,,,,,,,,,,,,,,,,,,,,,,,317.01004669998656,317.02493289999256,317.5249049999984,317.50837630000024,317.51623879998806,317.5249049999984,317.5249049999984,317.5249049999984,318.99193159998686,Objects\175a.jpg,mid,s,1.4581250000046566,None,,,,,,,,00065,001,2026-01-20_12h13.42.600,MST_test,2024.2.0,60.145600466736916,2026-01-20 12h13.49.762627 +0530,
77,0,78,s,1.1083150999911595,None,78,0,77,319.00825839999015,,,,,,,,,,,,,,,,,,,,,,,,,,,,,,,,,,,,,,,,,,,,,,,,,,318.99231359999976,319.00825839999015,319.5310876000003,319.4916705999931,319.5283582999982,319.5310876000003,319.5310876000003,319.5310876000003,320.64187209999363,Objects\364b.jpg,mid,s,1.1083150999911595,None,,,,,,,,00065,001,2026-01-20_12h13.42.600,MST_test,2024.2.0,60.145600466736916,2026-01-20 12h13.49.762627 +0530,
78,0,79,s,2.201702899998054,None,79,0,78,320.6581865999906,,,,,,,,,,,,,,,,,,,,,,,,,,,,,,,,,,,,,,,,,,,,,,,,,,320.64224169999943,320.6581865999906,321.1973425999895,321.1419833999971,321.19514389999676,321.1973425999895,321.1973425999895,321.1973425999895,323.40932759999123,Objects\374b.jpg,pre,s,2.201702899998054,None,,,,,,,,00065,001,2026-01-20_12h13.42.600,MST_test,2024.2.0,60.145600466736916,2026-01-20 12h13.49.762627 +0530,
79,0,80,s,1.2276253000018187,None,80,0,79,323.4247304999881,,,,,,,,,,,,,,,,,,,,,,,,,,,,,,,,,,,,,,,,,,,,,,,,,,323.40968449998763,323.4247304999881,323.9633429999958,323.90844389999984,323.9610285999952,323.9633429999958,323.9633429999958,323.9633429999958,325.19234029999643,Objects\135b.jpg,post,s,1.2276253000018187,None,,,,,,,,00065,001,2026-01-20_12h13.42.600,MST_test,2024.2.0,60.145600466736916,2026-01-20 12h13.49.762627 +0530,
80,0,81,s,1.3631176000053529,None,81,0,80,325.2082617999986,,,,,,,,,,,,,,,,,,,,,,,,,,,,,,,,,,,,,,,,,,,,,,,,,,325.19271379998827,325.2082617999986,325.7082914999919,325.6919979999948,325.7002838999906,325.7082914999919,325.7082914999919,325.7082914999919,327.0756459999975,Objects\357a.jpg,post,s,1.3631176000053529,None,,,,,,,,00065,001,2026-01-20_12h13.42.600,MST_test,2024.2.0,60.145600466736916,2026-01-20 12h13.49.762627 +0530,
81,0,82,s,1.4877372000046307,None,82,0,81,327.0916029999935,,,,,,,,,,,,,,,,,,,,,,,,,,,,,,,,,,,,,,,,,,,,,,,,,,327.07599059998756,327.0916029999935,327.59166689999984,327.57525709999027,327.5832754000003,327.59166689999984,327.59166689999984,327.59166689999984,329.0922258999926,Objects\206a.jpg,pre,s,1.4877372000046307,None,,,,,,,,00065,001,2026-01-20_12h13.42.600,MST_test,2024.2.0,60.145600466736916,2026-01-20 12h13.49.762627 +0530,
82,0,83,o,1.3506612999917706,None,83,0,82,329.10826599999564,,,,,,,,,,,,,,,,,,,,,,,,,,,,,,,,,,,,,,,,,,,,,,,,,,329.09257049999724,329.10826599999564,329.60847929999,329.5917985999986,329.5995818999945,329.60847929999,329.60847929999,329.60847929999,330.97552859999996,Objects\038a.jpg,mid,o,1.3506612999917706,None,,,,,,,,00065,001,2026-01-20_12h13.42.600,MST_test,2024.2.0,60.145600466736916,2026-01-20 12h13.49.762627 +0530,
83,0,84,o,0.9233164999895962,None,84,0,83,330.99160689998826,,,,,,,,,,,,,,,,,,,,,,,,,,,,,,,,,,,,,,,,,,,,,,,,,,330.97589079999307,330.99160689998826,331.49208479998924,331.4752656999917,331.484756299993,331.49208479998924,331.49208479998924,331.49208479998924,332.4255673000007,Objects\205a.jpg,post,o,0.9233164999895962,None,,,,,,,,00065,001,2026-01-20_12h13.42.600,MST_test,2024.2.0,60.145600466736916,2026-01-20 12h13.49.762627 +0530,
84,0,85,s,3.0327313000016147,None,85,0,84,332.4416346999933,,,,,,,,,,,,,,,,,,,,,,,,,,,,,,,,,,,,,,,,,,,,,,,,,,332.4259568999987,332.4416346999933,332.9420715999877,332.9252543999901,332.93433409999125,332.9420715999877,332.9420715999877,332.9420715999877,335.9753306999919,Objects\081a.jpg,post,s,3.0327313000016147,None,,,,,,,,00065,001,2026-01-20_12h13.42.600,MST_test,2024.2.0,60.145600466736916,2026-01-20 12h13.49.762627 +0530,
85,0,86,o,1.2178616000019247,None,86,0,85,335.9915961999941,,,,,,,,,,,,,,,,,,,,,,,,,,,,,,,,,,,,,,,,,,,,,,,,,,335.97569239999575,335.9915961999941,336.5248342999985,336.4756347999937,336.5228041999944,336.5248342999985,336.5248342999985,336.5248342999985,337.7587157999951,Objects\032b.jpg,pre,o,1.2178616000019247,None,,,,,,,,00065,001,2026-01-20_12h13.42.600,MST_test,2024.2.0,60.145600466736916,2026-01-20 12h13.49.762627 +0530,
86,0,87,s,0.9942237000068417,None,87,0,86,337.77479649998713,,,,,,,,,,,,,,,,,,,,,,,,,,,,,,,,,,,,,,,,,,,,,,,,,,337.7590735999984,337.77479649998713,338.3164805999986,338.2587077999924,338.3141687999887,338.3164805999986,338.3164805999986,338.3164805999986,339.32557950000046,Objects\036b.jpg,pre,s,0.9942237000068417,None,,,,,,,,00065,001,2026-01-20_12h13.42.600,MST_test,2024.2.0,60.145600466736916,2026-01-20 12h13.49.762627 +0530,
87,0,88,o,1.5968441999866627,None,88,0,87,339.34163139999146,,,,,,,,,,,,,,,,,,,,,,,,,,,,,,,,,,,,,,,,,,,,,,,,,,339.32593059999635,339.34163139999146,,339.8259326999978,339.8333774999919,339.84259239998937,339.84259239998937,339.84259239998937,341.4420317999902,Objects\253a.jpg,pre,o,1.5968441999866627,None,,,,,,,,00065,001,2026-01-20_12h13.42.600,MST_test,2024.2.0,60.145600466736916,2026-01-20 12h13.49.762627 +0530,
88,0,89,s,2.1533111999888206,None,89,0,88,341.4585667999927,,,,,,,,,,,,,,,,,,,,,,,,,,,,,,,,,,,,,,,,,,,,,,,,,,341.44240249998984,341.4585667999927,341.9976115999889,341.9418842999876,341.9948611,341.9976115999889,341.9976115999889,341.9976115999889,344.1589041999978,Objects\172b.jpg,post,s,2.1533111999888206,None,,,,,,,,00065,001,2026-01-20_12h13.42.600,MST_test,2024.2.0,60.145600466736916,2026-01-20 12h13.49.762627 +0530,
89,0,90,o,1.0193244999973103,None,90,0,89,344.17490649998945,,,,,,,,,,,,,,,,,,,,,,,,,,,,,,,,,,,,,,,,,,,,,,,,,,344.159255999999,344.17490649998945,344.6753270999907,344.6584662999958,344.66347769999993,344.6753270999907,344.6753270999907,344.6753270999907,345.70892679999815,Objects\295a.jpg,pre,o,1.0193244999973103,None,,,,,,,,00065,001,2026-01-20_12h13.42.600,MST_test,2024.2.0,60.145600466736916,2026-01-20 12h13.49.762627 +0530,
90,0,91,n,2.8945157999987714,None,91,0,90,345.72476059998735,,,,,,,,,,,,,,,,,,,,,,,,,,,,,,,,,,,,,,,,,,,,,,,,,,345.7092186999944,345.72476059998735,346.2646015999926,346.2086641999922,346.2621064999985,346.2646015999926,346.2646015999926,346.2646015999926,349.17566179999267,Objects\079b.jpg,pre,n,2.8945157999987714,None,,,,,,,,00065,001,2026-01-20_12h13.42.600,MST_test,2024.2.0,60.145600466736916,2026-01-20 12h13.49.762627 +0530,
91,0,92,o,2.7175684999965597,None,92,0,91,349.19153909999295,,,,,,,,,,,,,,,,,,,,,,,,,,,,,,,,,,,,,,,,,,,,,,,,,,349.1760071999888,349.19153909999295,349.7138016999961,349.67532819999906,349.71119879999605,349.7138016999961,349.7138016999961,349.7138016999961,352.44203199999174,Objects\169b.jpg,post,o,2.7175684999965597,None,,,,,,,,00065,001,2026-01-20_12h13.42.600,MST_test,2024.2.0,60.145600466736916,2026-01-20 12h13.49.762627 +0530,
92,0,93,s,1.1984733999997843,None,93,0,92,352.4579277999874,,,,,,,,,,,,,,,,,,,,,,,,,,,,,,,,,,,,,,,,,,,,,,,,,,352.44239050000033,352.4579277999874,352.9849150999944,352.9423393999896,352.9815882999974,352.9849150999944,352.9849150999944,352.9849150999944,354.192206599997,Objects\098b.jpg,post,s,1.1984733999997843,None,,,,,,,,00065,001,2026-01-20_12h13.42.600,MST_test,2024.2.0,60.145600466736916,2026-01-20 12h13.49.762627 +0530,
93,0,94,o,1.0107616000022972,None,94,0,93,354.20827249999274,,,,,,,,,,,,,,,,,,,,,,,,,,,,,,,,,,,,,,,,,,,,,,,,,,354.19256969999697,354.20827249999274,354.70839929999784,354.69173369999044,354.6984658000001,354.70839929999784,354.70839929999784,354.70839929999784,355.7255879999866,Objects\286a.jpg,mid,o,1.0107616000022972,None,,,,,,,,00065,001,2026-01-20_12h13.42.600,MST_test,2024.2.0,60.145600466736916,2026-01-20 12h13.49.762627 +0530,
94,0,95,s,1.14861689999816,None,95,0,94,355.7415234999935,,,,,,,,,,,,,,,,,,,,,,,,,,,,,,,,,,,,,,,,,,,,,,,,,,355.72593199998664,355.7415234999935,356.2423538999865,356.2251843999984,356.23408159999235,356.2423538999865,356.2423538999865,356.2423538999865,357.3922160999937,Objects\045a.jpg,post,s,1.14861689999816,None,,,,,,,,00065,001,2026-01-20_12h13.42.600,MST_test,2024.2.0,60.145600466736916,2026-01-20 12h13.49.762627 +0530,
95,0,96,n,1.342588399988017,None,96,0,95,357.4082759999874,,,,,,,,,,,,,,,,,,,,,,,,,,,,,,,,,,,,,,,,,,,,,,,,,,357.3925653999904,357.4082759999874,357.9443557999912,357.8919300999987,357.9420604999905,357.9443557999912,357.9443557999912,357.9443557999912,359.29196269999375,Objects\372b.jpg,mid,n,1.342588399988017,None,,,,,,,,00065,001,2026-01-20_12h13.42.600,MST_test,2024.2.0,60.145600466736916,2026-01-20 12h13.49.762627 +0530,
96,0,97,s,2.0575861999968765,None,97,0,96,359.3080038999906,,,,,,,,,,,,,,,,,,,,,,,,,,,,,,,,,,,,,,,,,,,,,,,,,,359.2923069999961,359.3080038999906,,359.7921992999909,359.84291689998645,359.84528789999604,359.84528789999604,359.84528789999604,361.9087468999933,Objects\278b.jpg,mid,s,2.0575861999968765,None,,,,,,,,00065,001,2026-01-20_12h13.42.600,MST_test,2024.2.0,60.145600466736916,2026-01-20 12h13.49.762627 +0530,
97,0,98,s,1.8049100999924121,None,98,0,97,361.92473279999103,,,,,,,,,,,,,,,,,,,,,,,,,,,,,,,,,,,,,,,,,,,,,,,,,,361.90909109999484,361.92473279999103,362.426461199997,362.40866989998904,362.4236916999944,362.426461199997,362.426461199997,362.426461199997,364.24223579998943,Foils\f6.jpg,none,s,1.8049100999924121,None,,,,,,,,00065,001,2026-01-20_12h13.42.600,MST_test,2024.2.0,60.145600466736916,2026-01-20 12h13.49.762627 +0530,
98,0,99,n,1.3720430999965174,None,99,0,98,364.2581724999909,,,,,,,,,,,,,,,,,,,,,,,,,,,,,,,,,,,,,,,,,,,,,,,,,,364.2425978999963,364.2581724999909,364.7628408999881,364.74233869998716,364.76071219998994,364.7628408999881,364.7628408999881,364.7628408999881,366.14202129999467,Foils\082a.jpg,none,n,1.3720430999965174,None,,,,,,,,00065,001,2026-01-20_12h13.42.600,MST_test,2024.2.0,60.145600466736916,2026-01-20 12h13.49.762627 +0530,
99,0,100,o,4.557763699995121,None,100,0,99,366.1583915999945,,,,,,,,,,,,,,,,,,,,,,,,,,,,,,,,,,,,,,,,,,,,,,,,,,366.14223729999503,366.1583915999945,366.71294499999203,366.6419976999896,366.7102914999996,366.71294499999203,366.71294499999203,366.71294499999203,371.2751939999871,Objects\043b.jpg,mid,o,4.557763699995121,None,,,,,,,,00065,001,2026-01-20_12h13.42.600,MST_test,2024.2.0,60.145600466736916,2026-01-20 12h13.49.762627 +0530,
100,0,101,n,1.0808680999907665,None,101,0,100,371.2914677999943,,,,,,,,,,,,,,,,,,,,,,,,,,,,,,,,,,,,,,,,,,,,,,,,,,371.27591819998634,371.2914677999943,371.7985367999936,371.7753373999876,371.79639599999064,371.7985367999936,371.7985367999936,371.7985367999936,372.89194039998983,Foils\009a.jpg,none,n,1.0808680999907665,None,,,,,,,,00065,001,2026-01-20_12h13.42.600,MST_test,2024.2.0,60.145600466736916,2026-01-20 12h13.49.762627 +0530,
101,0,102,n,2.4594512000039686,None,102,0,101,372.9082027999975,,,,,,,,,,,,,,,,,,,,,,,,,,,,,,,,,,,,,,,,,,,,,,,,,,372.8922856999998,372.9082027999975,373.4119451000006,373.39205469998706,373.40985729999375,373.4119451000006,373.4119451000006,373.4119451000006,375.8753364000004,Foils\058a.jpg,none,n,2.4594512000039686,None,,,,,,,,00065,001,2026-01-20_12h13.42.600,MST_test,2024.2.0,60.145600466736916,2026-01-20 12h13.49.762627 +0530,
102,0,103,s,1.256658600002993,None,103,0,102,375.89159839999047,,,,,,,,,,,,,,,,,,,,,,,,,,,,,,,,,,,,,,,,,,,,,,,,,,375.8756798999966,375.89159839999047,,376.3755535999953,376.4436466999905,376.4460942999867,376.4460942999867,376.4460942999867,377.7088573999936,Objects\217b.jpg,pre,s,1.256658600002993,None,,,,,,,,00065,001,2026-01-20_12h13.42.600,MST_test,2024.2.0,60.145600466736916,2026-01-20 12h13.49.762627 +0530,
103,0,104,s,1.830496000009589,None,104,0,103,377.7250819999899,,,,,,,,,,,,,,,,,,,,,,,,,,,,,,,,,,,,,,,,,,,,,,,,,,377.7092699999921,377.7250819999899,378.27272759999323,378.20869489999313,378.2704410999868,378.27272759999323,378.27272759999323,378.27272759999323,380.10896289999073,Objects\111b.jpg,post,s,1.830496000009589,None,,,,,,,,00065,001,2026-01-20_12h13.42.600,MST_test,2024.2.0,60.145600466736916,2026-01-20 12h13.49.762627 +0530,
104,0,105,o,1.24571059999289,None,105,0,104,380.12521229998674,,,,,,,,,,,,,,,,,,,,,,,,,,,,,,,,,,,,,,,,,,,,,,,,,,380.10940579998714,380.12521229998674,380.62513039998885,380.60856649999914,380.6167657999904,380.62513039998885,380.62513039998885,380.62513039998885,381.8753216999903,Objects\072a.jpg,pre,o,1.24571059999289,None,,,,,,,,00065,001,2026-01-20_12h13.42.600,MST_test,2024.2.0,60.145600466736916,2026-01-20 12h13.49.762627 +0530,
105,0,106,s,3.159259699998074,None,106,0,105,381.89132929999323,,,,,,,,,,,,,,,,,,,,,,,,,,,,,,,,,,,,,,,,,,,,,,,,,,381.8756632000004,381.89132929999323,382.3921438999969,382.37542479998956,382.38161240000045,382.3921438999969,382.3921438999969,382.3921438999969,385.5588514999981,Objects\359a.jpg,mid,s,3.159259699998074,None,,,,,,,,00065,001,2026-01-20_12h13.42.600,MST_test,2024.2.0,60.145600466736916,2026-01-20 12h13.49.762627 +0530,
106,0,107,o,1.1476853999920422,None,107,0,106,385.57470879999164,,,,,,,,,,,,,,,,,,,,,,,,,,,,,,,,,,,,,,,,,,,,,,,,,,385.5591967999935,385.57470879999164,386.07529449999856,386.0580711999937,386.0630583999882,386.07529449999856,386.07529449999856,386.07529449999856,387.2253509000002,Objects\343a.jpg,mid,o,1.1476853999920422,None,,,,,,,,00065,001,2026-01-20_12h13.42.600,MST_test,2024.2.0,60.145600466736916,2026-01-20 12h13.49.762627 +0530,
107,0,108,s,1.5689880000136327,None,108,0,107,387.2416061999975,,,,,,,,,,,,,,,,,,,,,,,,,,,,,,,,,,,,,,,,,,,,,,,,,,387.22569649999787,387.2416061999975,387.74168159998953,387.7250297999999,387.73287459999847,387.74168159998953,387.74168159998953,387.74168159998953,389.3256290999998,Objects\272a.jpg,pre,s,1.5689880000136327,None,,,,,,,,00065,001,2026-01-20_12h13.42.600,MST_test,2024.2.0,60.145600466736916,2026-01-20 12h13.49.762627 +0530,
108,0,109,n,1.2109301000018604,None,109,0,108,389.3416094999993,,,,,,,,,,,,,,,,,,,,,,,,,,,,,,,,,,,,,,,,,,,,,,,,,,389.32598029999644,389.3416094999993,389.8761177999986,389.8248486999946,389.87403609999456,389.8761177999986,389.8761177999986,389.8761177999986,391.0924082999991,Foils\081a.jpg,none,n,1.2109301000018604,None,,,,,,,,00065,001,2026-01-20_12h13.42.600,MST_test,2024.2.0,60.145600466736916,2026-01-20 12h13.49.762627 +0530,
109,0,110,o,1.8786265999951866,None,110,0,109,391.10827589999826,,,,,,,,,,,,,,,,,,,,,,,,,,,,,,,,,,,,,,,,,,,,,,,,,,391.09275679998973,391.10827589999826,391.6087406999868,391.59199739999895,391.59969909999927,391.6087406999868,391.6087406999868,391.6087406999868,393.4920099999872,Objects\251a.jpg,pre,o,1.8786265999951866,None,,,,,,,,00065,001,2026-01-20_12h13.42.600,MST_test,2024.2.0,60.145600466736916,2026-01-20 12h13.49.762627 +0530,
110,0,111,s,1.2874019000009866,None,111,0,110,393.50827169998956,,,,,,,,,,,,,,,,,,,,,,,,,,,,,,,,,,,,,,,,,,,,,,,,,,393.4923858999973,393.50827169998956,394.0156728000002,393.99200589999964,394.01310849998845,394.0156728000002,394.0156728000002,394.0156728000002,395.308841399994,Foils\042a.jpg,none,s,1.2874019000009866,None,,,,,,,,00065,001,2026-01-20_12h13.42.600,MST_test,2024.2.0,60.145600466736916,2026-01-20 12h13.49.762627 +0530,
111,0,112,o,1.342278800002532,None,112,0,111,395.3249223999883,,,,,,,,,,,,,,,,,,,,,,,,,,,,,,,,,,,,,,,,,,,,,,,,,,395.30920079999487,395.3249223999883,395.84071720000065,395.80824779999966,395.837718499999,395.84071720000065,395.84071720000065,395.84071720000065,397.1923034999927,Objects\132b.jpg,pre,o,1.342278800002532,None,,,,,,,,00065,001,2026-01-20_12h13.42.600,MST_test,2024.2.0,60.145600466736916,2026-01-20 12h13.49.762627 +0530,
112,0,113,o,1.9135371000011219,None,113,0,112,397.208278399994,,,,,,,,,,,,,,,,,,,,,,,,,,,,,,,,,,,,,,,,,,,,,,,,,,397.19266609998886,397.208278399994,397.73385989999224,397.6918172000005,397.7316326,397.73385989999224,397.73385989999224,397.73385989999224,399.6592573999951,Objects\113b.jpg,mid,o,1.9135371000011219,None,,,,,,,,00065,001,2026-01-20_12h13.42.600,MST_test,2024.2.0,60.145600466736916,2026-01-20 12h13.49.762627 +0530,
113,0,114,s,5.104566399997566,None,114,0,113,399.67500389998895,,,,,,,,,,,,,,,,,,,,,,,,,,,,,,,,,,,,,,,,,,,,,,,,,,399.6596201999928,399.67500389998895,400.1748219999863,400.1583898999961,400.16287499999453,400.1748219999863,400.1748219999863,400.1748219999863,405.29228319998947,Objects\019a.jpg,post,s,5.104566399997566,None,,,,,,,,00065,001,2026-01-20_12h13.42.600,MST_test,2024.2.0,60.145600466736916,2026-01-20 12h13.49.762627 +0530,
114,0,115,s,1.3298339000029955,None,115,0,114,405.309016299987,,,,,,,,,,,,,,,,,,,,,,,,,,,,,,,,,,,,,,,,,,,,,,,,,,405.29263339999306,405.309016299987,405.8211719999963,405.79199739999603,405.8188613999955,405.8211719999963,405.8211719999963,405.8211719999963,407.15874109999277,Foils\020b.jpg,none,s,1.3298339000029955,None,,,,,,,,00065,001,2026-01-20_12h13.42.600,MST_test,2024.2.0,60.145600466736916,2026-01-20 12h13.49.762627 +0530,
115,0,116,s,1.3722033999947598,None,116,0,115,407.1751793000003,,,,,,,,,,,,,,,,,,,,,,,,,,,,,,,,,,,,,,,,,,,,,,,,,,407.15908529999433,407.1751793000003,,407.659267199997,407.681302099998,407.6835415999958,407.6835415999958,407.6835415999958,409.05899689999933,Foils\057a.jpg,none,s,1.3722033999947598,None,,,,,,,,00065,001,2026-01-20_12h13.42.600,MST_test,2024.2.0,60.145600466736916,2026-01-20 12h13.49.762627 +0530,
116,0,117,n,2.0584357000043383,None,117,0,116,409.0752686999913,,,,,,,,,,,,,,,,,,,,,,,,,,,,,,,,,,,,,,,,,,,,,,,,,,409.0594136999862,409.0752686999913,409.6125088999979,409.55868279999413,409.61020499998995,409.6125088999979,409.6125088999979,409.6125088999979,411.675524899998,Foils\f5.jpg,none,n,2.0584357000043383,None,,,,,,,,00065,001,2026-01-20_12h13.42.600,MST_test,2024.2.0,60.145600466736916,2026-01-20 12h13.49.762627 +0530,
117,0,118,n,1.4567900999973062,None,118,0,117,411.6912150999997,,,,,,,,,,,,,,,,,,,,,,,,,,,,,,,,,,,,,,,,,,,,,,,,,,411.6758952999953,411.6912150999997,412.19798629998695,412.1756408999936,412.1956901999947,412.19798629998695,412.19798629998695,412.19798629998695,413.6586121,Foils\101b.jpg,none,n,1.4567900999973062,None,,,,,,,,00065,001,2026-01-20_12h13.42.600,MST_test,2024.2.0,60.145600466736916,2026-01-20 12h13.49.762627 +0530,
118,0,119,s,1.361564399994677,None,119,0,118,413.6752332999895,,,,,,,,,,,,,,,,,,,,,,,,,,,,,,,,,,,,,,,,,,,,,,,,,,413.65896769998653,413.6752332999895,414.26977509999415,414.1586071999918,414.26749559999735,414.26977509999415,414.26977509999415,414.26977509999415,415.6420250999945,Objects\214b.jpg,pre,s,1.361564399994677,None,,,,,,,,00065,001,2026-01-20_12h13.42.600,MST_test,2024.2.0,60.145600466736916,2026-01-20 12h13.49.762627 +0530,
119,0,120,s,1.5278489000047557,None,120,0,119,415.65823969998746,,,,,,,,,,,,,,,,,,,,,,,,,,,,,,,,,,,,,,,,,,,,,,,,,,415.64237709999725,415.65823969998746,416.15908619998663,416.1413692999922,416.1516891999927,416.15908619998663,416.15908619998663,416.15908619998663,417.6923278999893,Objects\131a.jpg,pre,s,1.5278489000047557,None,,,,,,,,00065,001,2026-01-20_12h13.42.600,MST_test,2024.2.0,60.145600466736916,2026-01-20 12h13.49.762627 +0530,
120,0,121,n,1.7746190000034403,None,121,0,120,417.7082153999945,,,,,,,,,,,,,,,,,,,,,,,,,,,,,,,,,,,,,,,,,,,,,,,,,,417.692704599991,417.7082153999945,418.2164257999975,418.192029599988,418.2140565999871,418.2164257999975,418.2164257999975,418.2164257999975,419.99245239999436,Foils\026a.jpg,none,n,1.7746190000034403,None,,,,,,,,00065,001,2026-01-20_12h13.42.600,MST_test,2024.2.0,60.145600466736916,2026-01-20 12h13.49.762627 +0530,
121,0,122,n,1.4984570999949938,None,122,0,121,420.0082612999977,,,,,,,,,,,,,,,,,,,,,,,,,,,,,,,,,,,,,,,,,,,,,,,,,,419.9928404999955,420.0082612999977,420.5084177999961,420.4916438999935,420.4999944999872,420.5084177999961,420.5084177999961,420.5084177999961,422.00889839998854,Objects\159a.jpg,mid,n,1.4984570999949938,None,,,,,,,,00065,001,2026-01-20_12h13.42.600,MST_test,2024.2.0,60.145600466736916,2026-01-20 12h13.49.762627 +0530,
122,0,123,s,1.527876299995114,None,123,0,122,422.0252005999937,,,,,,,,,,,,,,,,,,,,,,,,,,,,,,,,,,,,,,,,,,,,,,,,,,422.0092520999897,422.0252005999937,422.5594754999911,422.5085987999919,422.5568690999935,422.5594754999911,422.5594754999911,422.5594754999911,424.09225269999297,Objects\176b.jpg,pre,s,1.527876299995114,None,,,,,,,,00065,001,2026-01-20_12h13.42.600,MST_test,2024.2.0,60.145600466736916,2026-01-20 12h13.49.762627 +0530,
123,0,124,o,1.358989800006384,None,124,0,123,424.108307699993,,,,,,,,,,,,,,,,,,,,,,,,,,,,,,,,,,,,,,,,,,,,,,,,,,424.0926029999973,424.108307699993,424.6083493999904,424.59202619999996,424.5981866999937,424.6083493999904,424.6083493999904,424.6083493999904,425.97557729999244,Objects\058a.jpg,mid,o,1.358989800006384,None,,,,,,,,00065,001,2026-01-20_12h13.42.600,MST_test,2024.2.0,60.145600466736916,2026-01-20 12h13.49.762627 +0530,
124,0,125,o,1.2028908999927808,None,125,0,124,425.9916022999969,,,,,,,,,,,,,,,,,,,,,,,,,,,,,,,,,,,,,,,,,,,,,,,,,,425.97592299999087,425.9916022999969,426.49183739999717,426.47487719998753,426.4836737000005,426.49183739999717,426.49183739999717,426.49183739999717,427.70892710000044,Objects\137a.jpg,pre,o,1.2028908999927808,None,,,,,,,,00065,001,2026-01-20_12h13.42.600,MST_test,2024.2.0,60.145600466736916,2026-01-20 12h13.49.762627 +0530,
125,0,126,s,0.8931414000107907,None,126,0,125,427.7248744999961,,,,,,,,,,,,,,,,,,,,,,,,,,,,,,,,,,,,,,,,,,,,,,,,,,427.70927449999726,427.7248744999961,428.2422160999995,428.2084524999955,428.2393766999885,428.2422160999995,428.2422160999995,428.2422160999995,429.14224919999833,Objects\212b.jpg,post,s,0.8931414000107907,None,,,,,,,,00065,001,2026-01-20_12h13.42.600,MST_test,2024.2.0,60.145600466736916,2026-01-20 12h13.49.762627 +0530,
126,0,127,s,2.0094052999920677,None,127,0,126,429.1582727999921,,,,,,,,,,,,,,,,,,,,,,,,,,,,,,,,,,,,,,,,,,,,,,,,,,429.14259489999677,429.1582727999921,429.69331129999773,429.64195889999974,429.69054999999935,429.69331129999773,429.69331129999773,429.69331129999773,431.7088524999999,Objects\171b.jpg,pre,s,2.0094052999920677,None,,,,,,,,00065,001,2026-01-20_12h13.42.600,MST_test,2024.2.0,60.145600466736916,2026-01-20 12h13.49.762627 +0530,
127,0,128,s,5.501685199997155,None,128,0,127,431.7247512999893,,,,,,,,,,,,,,,,,,,,,,,,,,,,,,,,,,,,,,,,,,,,,,,,,,431.70919519999006,431.7247512999893,,432.20929559999786,432.27035229999456,432.273077299993,432.273077299993,432.273077299993,437.7755085999961,Objects\334b.jpg,post,s,5.501685199997155,None,,,,,,,,00065,001,2026-01-20_12h13.42.600,MST_test,2024.2.0,60.145600466736916,2026-01-20 12h13.49.762627 +0530,
128,0,129,o,1.7955524999997579,None,129,0,128,437.7923402999877,,,,,,,,,,,,,,,,,,,,,,,,,,,,,,,,,,,,,,,,,,,,,,,,,,437.7758713999938,437.7923402999877,438.29178200000024,438.2751133999991,438.2855284999969,438.29178200000024,438.29178200000024,438.29178200000024,440.0922591999988,Objects\378a.jpg,post,o,1.7955524999997579,None,,,,,,,,00065,001,2026-01-20_12h13.42.600,MST_test,2024.2.0,60.145600466736916,2026-01-20 12h13.49.762627 +0530,
129,0,130,s,1.3182959999976447,None,130,0,129,440.10820899999817,,,,,,,,,,,,,,,,,,,,,,,,,,,,,,,,,,,,,,,,,,,,,,,,,,440.09261129998777,440.10820899999817,440.6084645999945,440.59181199999875,440.6021200999967,440.6084645999945,440.6084645999945,440.6084645999945,441.9420211999968,Objects\222a.jpg,post,s,1.3182959999976447,None,,,,,,,,00065,001,2026-01-20_12h13.42.600,MST_test,2024.2.0,60.145600466736916,2026-01-20 12h13.49.762627 +0530,
130,0,131,s,1.3227962999953888,None,131,0,130,441.95820529999037,,,,,,,,,,,,,,,,,,,,,,,,,,,,,,,,,,,,,,,,,,,,,,,,,,441.94236659999297,441.95820529999037,,442.4423703999928,442.5056622999982,442.508121699997,442.508121699997,442.508121699997,443.8422562999913,Foils\049a.jpg,none,s,1.3227962999953888,None,,,,,,,,00065,001,2026-01-20_12h13.42.600,MST_test,2024.2.0,60.145600466736916,2026-01-20 12h13.49.762627 +0530,
131,0,132,s,1.35335039999336,None,132,0,131,443.85829929998727,,,,,,,,,,,,,,,,,,,,,,,,,,,,,,,,,,,,,,,,,,,,,,,,,,443.84260439999343,443.85829929998727,444.39798729999166,444.3423443999927,444.39536489998864,444.39798729999166,444.39798729999166,444.39798729999166,445.7588598000002,Objects\090b.jpg,mid,s,1.35335039999336,None,,,,,,,,00065,001,2026-01-20_12h13.42.600,MST_test,2024.2.0,60.145600466736916,2026-01-20 12h13.49.762627 +0530,
132,0,133,s,2.6129097000084585,None,133,0,132,445.774948899998,,,,,,,,,,,,,,,,,,,,,,,,,,,,,,,,,,,,,,,,,,,,,,,,,,445.7592079999886,445.774948899998,446.29775079998944,446.25850169999467,446.29508749999513,446.29775079998944,446.29775079998944,446.29775079998944,448.92640529999335,Objects\141b.jpg,post,s,2.6129097000084585,None,,,,,,,,00065,001,2026-01-20_12h13.42.600,MST_test,2024.2.0,60.145600466736916,2026-01-20 12h13.49.762627 +0530,
133,0,134,n,2.152331699995557,None,134,0,133,448.9416441999929,,,,,,,,,,,,,,,,,,,,,,,,,,,,,,,,,,,,,,,,,,,,,,,,,,448.9267695999879,448.9416441999929,449.47101499998826,449.42534739999974,449.4689398999908,449.47101499998826,449.47101499998826,449.47101499998826,451.62526029998844,Foils\121a.jpg,none,n,2.152331699995557,None,,,,,,,,00065,001,2026-01-20_12h13.42.600,MST_test,2024.2.0,60.145600466736916,2026-01-20 12h13.49.762627 +0530,
134,0,135,s,0.9212550999945961,None,135,0,134,451.6416262999992,,,,,,,,,,,,,,,,,,,,,,,,,,,,,,,,,,,,,,,,,,,,,,,,,,451.62560679999297,451.6416262999992,452.14204849999805,452.12502739999036,452.13340379999136,452.14204849999805,452.14204849999805,452.14204849999805,453.07559099998616,Objects\321a.jpg,post,s,0.9212550999945961,None,,,,,,,,00065,001,2026-01-20_12h13.42.600,MST_test,2024.2.0,60.145600466736916,2026-01-20 12h13.49.762627 +0530,
135,0,136,n,1.636514600002556,None,136,0,135,453.0913631999865,,,,,,,,,,,,,,,,,,,,,,,,,,,,,,,,,,,,,,,,,,,,,,,,,,453.07593619999534,453.0913631999865,453.63482499998645,453.5752238999994,453.6325974999927,453.63482499998645,453.63482499998645,453.63482499998645,455.2755674999935,Objects\341b.jpg,mid,n,1.636514600002556,None,,,,,,,,00065,001,2026-01-20_12h13.42.600,MST_test,2024.2.0,60.145600466736916,2026-01-20 12h13.49.762627 +0530,
136,0,137,s,1.4794895999948494,None,137,0,136,455.291453599988,,,,,,,,,,,,,,,,,,,,,,,,,,,,,,,,,,,,,,,,,,,,,,,,,,455.2759468000004,455.291453599988,455.7918437999906,455.7752796999994,455.78343589999713,455.7918437999906,455.7918437999906,455.7918437999906,457.27546489999804,Objects\020a.jpg,mid,s,1.4794895999948494,None,,,,,,,,00065,001,2026-01-20_12h13.42.600,MST_test,2024.2.0,60.145600466736916,2026-01-20 12h13.49.762627 +0530,
137,0,138,o,1.2550329999940004,None,138,0,137,457.2913719999924,,,,,,,,,,,,,,,,,,,,,,,,,,,,,,,,,,,,,,,,,,,,,,,,,,457.27583400000003,457.2913719999924,457.79166629999236,457.77529109999887,457.78377239999827,457.79166629999236,457.79166629999236,457.79166629999236,459.0584663999907,Objects\138a.jpg,pre,o,1.2550329999940004,None,,,,,,,,00065,001,2026-01-20_12h13.42.600,MST_test,2024.2.0,60.145600466736916,2026-01-20 12h13.49.762627 +0530,
138,0,139,n,1.4303077000076883,None,139,0,138,459.0742324999883,,,,,,,,,,,,,,,,,,,,,,,,,,,,,,,,,,,,,,,,,,,,,,,,,,459.0587086999876,459.0742324999883,459.57616099998995,459.55813679999846,459.57373559998814,459.57616099998995,459.57616099998995,459.57616099998995,461.00845689998823,Foils\018a.jpg,none,n,1.4303077000076883,None,,,,,,,,00065,001,2026-01-20_12h13.42.600,MST_test,2024.2.0,60.145600466736916,2026-01-20 12h13.49.762627 +0530,
139,0,140,s,2.2391260000003967,None,140,0,139,461.0243996999925,,,,,,,,,,,,,,,,,,,,,,,,,,,,,,,,,,,,,,,,,,,,,,,,,,461.00878159998683,461.0243996999925,461.5992369999876,461.50841569999466,461.59702509999624,461.5992369999876,461.5992369999876,461.5992369999876,463.84148319999804,Foils\050a.jpg,none,s,2.2391260000003967,None,,,,,,,,00065,001,2026-01-20_12h13.42.600,MST_test,2024.2.0,60.145600466736916,2026-01-20 12h13.49.762627 +0530,
140,0,141,n,5.075744600006146,None,141,0,140,463.8576230999897,,,,,,,,,,,,,,,,,,,,,,,,,,,,,,,,,,,,,,,,,,,,,,,,,,463.8417610999895,463.8576230999897,464.36298029999307,464.3413006999908,464.36049389999243,464.36298029999307,464.36298029999307,464.36298029999307,469.44193399998767,Foils\074a.jpg,none,n,5.075744600006146,None,,,,,,,,00065,001,2026-01-20_12h13.42.600,MST_test,2024.2.0,60.145600466736916,2026-01-20 12h13.49.762627 +0530,
141,0,142,s,1.2499079999979585,None,142,0,141,469.45830639998894,,,,,,,,,,,,,,,,,,,,,,,,,,,,,,,,,,,,,,,,,,,,,,,,,,469.4423062999995,469.45830639998894,469.96540839999216,469.9420831999887,469.96353599999566,469.96540839999216,469.96540839999216,469.96540839999216,471.2255118999892,Foils\073a.jpg,none,s,1.2499079999979585,None,,,,,,,,00065,001,2026-01-20_12h13.42.600,MST_test,2024.2.0,60.145600466736916,2026-01-20 12h13.49.762627 +0530,
142,0,143,n,2.650803399999859,None,143,0,142,471.2415978999925,,,,,,,,,,,,,,,,,,,,,,,,,,,,,,,,,,,,,,,,,,,,,,,,,,471.2258726999862,471.2415978999925,471.77189949998865,471.7254577999993,471.7695621999883,471.77189949998865,471.77189949998865,471.77189949998865,474.4252254999883,Objects\110b.jpg,mid,n,2.650803399999859,None,,,,,,,,00065,001,2026-01-20_12h13.42.600,MST_test,2024.2.0,60.145600466736916,2026-01-20 12h13.49.762627 +0530,
143,0,144,n,1.2114426999905845,None,144,0,143,474.4412558999902,,,,,,,,,,,,,,,,,,,,,,,,,,,,,,,,,,,,,,,,,,,,,,,,,,474.42557939999097,474.4412558999902,474.94776229999843,474.9250635999924,474.9453894999897,474.94776229999843,474.94776229999843,474.94776229999843,476.1754164999875,Foils\002a.jpg,none,n,1.2114426999905845,None,,,,,,,,00065,001,2026-01-20_12h13.42.600,MST_test,2024.2.0,60.145600466736916,2026-01-20 12h13.49.762627 +0530,
144,0,145,s,0.635208200008492,None,145,0,144,476.19161159999203,,,,,,,,,,,,,,,,,,,,,,,,,,,,,,,,,,,,,,,,,,,,,,,,,,476.1757610999921,476.19161159999203,476.6918536999874,476.67528799999855,476.68321269999433,476.6918536999874,476.6918536999874,476.6918536999874,477.3422575000004,Objects\151a.jpg,post,s,0.635208200008492,None,,,,,,,,00065,001,2026-01-20_12h13.42.600,MST_test,2024.2.0,60.145600466736916,2026-01-20 12h13.49.762627 +0530,
145,0,146,o,1.1085637000069255,None,146,0,145,477.35829039999226,,,,,,,,,,,,,,,,,,,,,,,,,,,,,,,,,,,,,,,,,,,,,,,,,,477.3426041999919,477.35829039999226,477.858725699989,477.8420676999958,477.8506139999954,477.858725699989,477.858725699989,477.858725699989,478.975554699995,Objects\018a.jpg,pre,o,1.1085637000069255,None,,,,,,,,00065,001,2026-01-20_12h13.42.600,MST_test,2024.2.0,60.145600466736916,2026-01-20 12h13.49.762627 +0530,
146,0,147,o,1.1466030000010505,None,147,0,146,478.99143099998764,,,,,,,,,,,,,,,,,,,,,,,,,,,,,,,,,,,,,,,,,,,,,,,,,,478.97590499999933,478.99143099998764,479.49198589999287,479.4750612999924,479.4839903999964,479.49198589999287,479.49198589999287,479.49198589999287,480.6418355999922,Objects\042a.jpg,pre,o,1.1466030000010505,None,,,,,,,,00065,001,2026-01-20_12h13.42.600,MST_test,2024.2.0,60.145600466736916,2026-01-20 12h13.49.762627 +0530,
147,0,148,s,1.0010365999914939,None,148,0,147,480.65791460000037,,,,,,,,,,,,,,,,,,,,,,,,,,,,,,,,,,,,,,,,,,,,,,,,,,480.6421460999991,480.65791460000037,481.1822538999986,481.1420283999905,481.1798587999947,481.1822538999986,481.1822538999986,481.1822538999986,482.1922812999983,Objects\346b.jpg,post,s,1.0010365999914939,None,,,,,,,,00065,001,2026-01-20_12h13.42.600,MST_test,2024.2.0,60.145600466736916,2026-01-20 12h13.49.762627 +0530,
148,0,149,n,1.7657119999930728,None,149,0,148,482.20796979998704,,,,,,,,,,,,,,,,,,,,,,,,,,,,,,,,,,,,,,,,,,,,,,,,,,482.1926276999875,482.20796979998704,482.71363030000066,482.69162279999,482.71125619999657,482.71363030000066,482.71363030000066,482.71363030000066,484.4922697000002,Foils\065a.jpg,none,n,1.7657119999930728,None,,,,,,,,00065,001,2026-01-20_12h13.42.600,MST_test,2024.2.0,60.145600466736916,2026-01-20 12h13.49.762627 +0530,
149,0,150,s,1.2783861000061734,None,150,0,149,484.5082837999944,,,,,,,,,,,,,,,,,,,,,,,,,,,,,,,,,,,,,,,,,,,,,,,,,,484.4926417999959,484.5082837999944,485.00891419999243,484.99188159999903,485.0019721999997,485.00891419999243,485.00891419999243,485.00891419999243,486.29203099998995,Objects\331a.jpg,pre,s,1.2783861000061734,None,,,,,,,,00065,001,2026-01-20_12h13.42.600,MST_test,2024.2.0,60.145600466736916,2026-01-20 12h13.49.762627 +0530,
,,,,,,,,,,,,,,,,,,,,,,,,,,,,,,,,,,,,,,,,,,,,,,,,,,,,,,,,,,,,,,,,,,,,,,,,,486.2922528999916,486.3083031999995,486.3083031999995,488.5922916999989,space,2.282768399993074,None,00065,001,2026-01-20_12h13.42.600,MST_test,2024.2.0,60.145600466736916,2026-01-20 12h13.49.762627 +0530,
