thisN,thisTrialN,thisRepN,key_resp_3.keys,key_resp_3.rt,key_resp_3.duration,trials.thisRepN,trials.thisTrialN,trials.thisN,thisRow.t,notes,intro_page.started,text.started,key_resp.started,intro_page.stopped,key_resp.keys,key_resp.rt,key_resp.duration,instructions.started,text_2.started,key_resp_2.started,instructions.stopped,key_resp_2.keys,key_resp_2.rt,key_resp_2.duration,demo1.started,image_1.started,image_2.started,text_7.started,key_resp_6.started,text_9.started,demo1.stopped,key_resp_6.keys,key_resp_6.rt,key_resp_6.duration,demo3.started,image_5.started,image_6.started,text_11.started,text_12.started,key_resp_8.started,demo3.stopped,key_resp_8.keys,key_resp_8.rt,key_resp_8.duration,demo_conclusion.started,text_13.started,key_resp_9.started,demo_conclusion.stopped,key_resp_9.keys,key_resp_9.rt,key_resp_9.duration,start_test.started,text_6.started,key_resp_5.started,start_test.stopped,key_resp_5.keys,key_resp_5.rt,key_resp_5.duration,ISI.started,text_4.started,text_4.stopped,ISI.stopped,routine_1.started,image.started,text_3.started,key_resp_3.started,routine_1.stopped,image_path,position_of_stimuli,trials.key_resp_3.keys,trials.key_resp_3.rt,trials.key_resp_3.duration,End_page.started,text_5.started,key_resp_4.started,End_page.stopped,key_resp_4.keys,key_resp_4.rt,key_resp_4.duration,participant,session,date,expName,psychopyVersion,frameRate,expStart,
,,,,,,,,,,,0.0009767999999894528,0.0026968000001943437,0.0026968000001943437,6.6745129999999335,space,6.6604964999987715,None,,,,,,,,,,,,,,,,,,,,,,,,,,,,,,,,,,,,,,,,,,,,,,,,,,,,,,,,,,,,,,,00069,001,2026-01-25_16h10.30.795,MST_test,2024.2.0,60.07156926820897,2026-01-25 16h10.36.200474 +0530,
,,,,,,,,,,,,,,,,,,6.6746039999998175,6.690717899999072,6.690717899999072,7.667275799998606,space,0.9648214999997435,None,,,,,,,,,,,,,,,,,,,,,,,,,,,,,,,,,,,,,,,,,,,,,,,,,,,,,,,,00069,001,2026-01-25_16h10.30.795,MST_test,2024.2.0,60.07156926820897,2026-01-25 16h10.36.200474 +0530,
,,,,,,,,,,,,,,,,,,,,,,,,,7.667371399998956,7.705850099999225,7.705850099999225,7.705850099999225,7.705850099999225,7.705850099999225,18.25084539999989,space,10.533967499999562,None,,,,,,,,,,,,,,,,,,,,,,,,,,,,,,,,,,,,,,,,,,,,,,00069,001,2026-01-25_16h10.30.795,MST_test,2024.2.0,60.07156926820897,2026-01-25 16h10.36.200474 +0530,
,,,,,,,,,,,,,,,,,,,,,,,,,,,,,,,,,,,18.25094799999897,18.267173500000354,18.267173500000354,18.267173500000354,18.267173500000354,18.267173500000354,22.83388829999967,space,4.56460750000042,None,,,,,,,,,,,,,,,,,,,,,,,,,,,,,,,,,,,,00069,001,2026-01-25_16h10.30.795,MST_test,2024.2.0,60.07156926820897,2026-01-25 16h10.36.200474 +0530,
,,,,,,,,,,,,,,,,,,,,,,,,,,,,,,,,,,,,,,,,,,,,,22.833988000000318,22.850843799998984,22.850843799998984,43.9839479000002,space,21.132425099998727,None,,,,,,,,,,,,,,,,,,,,,,,,,,,,,00069,001,2026-01-25_16h10.30.795,MST_test,2024.2.0,60.07156926820897,2026-01-25 16h10.36.200474 +0530,
,,,,,,,,,,,,,,,,,,,,,,,,,,,,,,,,,,,,,,,,,,,,,,,,,,,,43.9840750000003,44.01222119999875,44.01222119999875,122.75093310000011,space,78.73193480000009,None,,,,,,,,,,,,,,,,,,,,,,00069,001,2026-01-25_16h10.30.795,MST_test,2024.2.0,60.07156926820897,2026-01-25 16h10.36.200474 +0530,
0,0,1,s,8.651676800000132,None,1,0,0,122.76722820000032,,,,,,,,,,,,,,,,,,,,,,,,,,,,,,,,,,,,,,,,,,,,,,,,,,122.7585055999989,122.76722820000032,123.30820399999902,123.2505958999991,123.30599259999872,123.30820399999902,123.30820399999902,123.30820399999902,131.96759550000024,Foils\086a.jpg,none,s,8.651676800000132,None,,,,,,,,00069,001,2026-01-25_16h10.30.795,MST_test,2024.2.0,60.07156926820897,2026-01-25 16h10.36.200474 +0530,
1,0,2,o,3.0517065999993065,None,2,0,1,131.98364279999987,,,,,,,,,,,,,,,,,,,,,,,,,,,,,,,,,,,,,,,,,,,,,,,,,,131.9679916999994,131.98364279999987,132.51551039999867,132.46726169999965,132.51340829999936,132.51551039999867,132.51551039999867,132.51551039999867,135.5841478000002,Objects\152b.jpg,pre,o,3.0517065999993065,None,,,,,,,,00069,001,2026-01-25_16h10.30.795,MST_test,2024.2.0,60.07156926820897,2026-01-25 16h10.36.200474 +0530,
2,0,3,o,2.2431528000015533,None,3,0,2,135.60011920000034,,,,,,,,,,,,,,,,,,,,,,,,,,,,,,,,,,,,,,,,,,,,,,,,,,135.58458109999992,135.60011920000034,136.1003585999988,136.0839073999996,136.09236330000022,136.1003585999988,136.1003585999988,136.1003585999988,138.3507499999996,Objects\120a.jpg,pre,o,2.2431528000015533,None,,,,,,,,00069,001,2026-01-25_16h10.30.795,MST_test,2024.2.0,60.07156926820897,2026-01-25 16h10.36.200474 +0530,
3,0,4,s,4.71093110000038,None,4,0,3,138.36687999999958,,,,,,,,,,,,,,,,,,,,,,,,,,,,,,,,,,,,,,,,,,,,,,,,,,138.3511036,138.36687999999958,138.88142929999958,138.8505408000001,138.87883279999915,138.88142929999958,138.88142929999958,138.88142929999958,143.6008088999988,Objects\192b.jpg,post,s,4.71093110000038,None,,,,,,,,00069,001,2026-01-25_16h10.30.795,MST_test,2024.2.0,60.07156926820897,2026-01-25 16h10.36.200474 +0530,
4,0,5,o,5.913889299999937,None,5,0,4,143.61685509999916,,,,,,,,,,,,,,,,,,,,,,,,,,,,,,,,,,,,,,,,,,,,,,,,,,143.60120149999966,143.61685509999916,144.1499272000001,144.10042559999965,144.14752210000006,144.1499272000001,144.1499272000001,144.1499272000001,150.06755519999933,Objects\095b.jpg,pre,o,5.913889299999937,None,,,,,,,,00069,001,2026-01-25_16h10.30.795,MST_test,2024.2.0,60.07156926820897,2026-01-25 16h10.36.200474 +0530,
5,0,6,o,1.6719214000004285,None,6,0,5,150.08354549999967,,,,,,,,,,,,,,,,,,,,,,,,,,,,,,,,,,,,,,,,,,,,,,,,,,150.06791789999988,150.08354549999967,150.58384599999954,150.5671910000001,150.57541169999968,150.58384599999954,150.58384599999954,150.58384599999954,152.26741779999975,Objects\168a.jpg,post,o,1.6719214000004285,None,,,,,,,,00069,001,2026-01-25_16h10.30.795,MST_test,2024.2.0,60.07156926820897,2026-01-25 16h10.36.200474 +0530,
6,0,7,o,1.0798340999990614,None,7,0,6,152.2835572999993,,,,,,,,,,,,,,,,,,,,,,,,,,,,,,,,,,,,,,,,,,,,,,,,,,152.26779050000005,152.2835572999993,152.783973399999,152.7672160000002,152.77718370000002,152.783973399999,152.783973399999,152.783973399999,153.86744779999935,Objects\336a.jpg,post,o,1.0798340999990614,None,,,,,,,,00069,001,2026-01-25_16h10.30.795,MST_test,2024.2.0,60.07156926820897,2026-01-25 16h10.36.200474 +0530,
7,0,8,o,1.0152100000013888,None,8,0,7,153.88354719999916,,,,,,,,,,,,,,,,,,,,,,,,,,,,,,,,,,,,,,,,,,,,,,,,,,153.86780329999965,153.88354719999916,154.38418029999957,154.36726499999895,154.3757846999997,154.38418029999957,154.38418029999957,154.38418029999957,155.40092089999962,Objects\221a.jpg,post,o,1.0152100000013888,None,,,,,,,,00069,001,2026-01-25_16h10.30.795,MST_test,2024.2.0,60.07156926820897,2026-01-25 16h10.36.200474 +0530,
8,0,9,s,4.400263999999879,None,9,0,8,155.41680540000016,,,,,,,,,,,,,,,,,,,,,,,,,,,,,,,,,,,,,,,,,,,,,,,,,,155.40127699999903,155.41680540000016,156.0156109999989,155.90061629999946,156.01167159999932,156.0156109999989,156.0156109999989,156.0156109999989,160.41741399999955,Objects\335b.jpg,mid,s,4.400263999999879,None,,,,,,,,00069,001,2026-01-25_16h10.30.795,MST_test,2024.2.0,60.07156926820897,2026-01-25 16h10.36.200474 +0530,
9,0,10,s,5.304264300000796,None,10,0,9,160.4334756999997,,,,,,,,,,,,,,,,,,,,,,,,,,,,,,,,,,,,,,,,,,,,,,,,,,160.4178037999991,160.4334756999997,160.96689100000003,160.91727189999983,160.9640217999986,160.96689100000003,160.96689100000003,160.96689100000003,166.28407009999864,Objects\040b.jpg,post,s,5.304264300000796,None,,,,,,,,00069,001,2026-01-25_16h10.30.795,MST_test,2024.2.0,60.07156926820897,2026-01-25 16h10.36.200474 +0530,
10,0,11,s,3.9613492999997106,None,11,0,10,166.29996779999965,,,,,,,,,,,,,,,,,,,,,,,,,,,,,,,,,,,,,,,,,,,,,,,,,,166.284474099999,166.29996779999965,166.83017180000024,166.78366900000037,166.82744999999886,166.83017180000024,166.83017180000024,166.83017180000024,170.80083679999916,Objects\246b.jpg,pre,s,3.9613492999997106,None,,,,,,,,00069,001,2026-01-25_16h10.30.795,MST_test,2024.2.0,60.07156926820897,2026-01-25 16h10.36.200474 +0530,
11,0,12,o,3.994945899999948,None,12,0,11,170.81691630000023,,,,,,,,,,,,,,,,,,,,,,,,,,,,,,,,,,,,,,,,,,,,,,,,,,170.8012920000001,170.81691630000023,171.31686230000014,171.30063999999948,171.31039469999996,171.31686230000014,171.31686230000014,171.31686230000014,175.31723969999985,Objects\276a.jpg,pre,o,3.994945899999948,None,,,,,,,,00069,001,2026-01-25_16h10.30.795,MST_test,2024.2.0,60.07156926820897,2026-01-25 16h10.36.200474 +0530,
12,0,13,o,3.06925979999869,None,13,0,12,175.33358489999955,,,,,,,,,,,,,,,,,,,,,,,,,,,,,,,,,,,,,,,,,,,,,,,,,,175.31759450000027,175.33358489999955,,175.81776600000012,175.82393969999976,175.83398789999956,175.83398789999956,175.83398789999956,178.9174708999999,Objects\083a.jpg,post,o,3.06925979999869,None,,,,,,,,00069,001,2026-01-25_16h10.30.795,MST_test,2024.2.0,60.07156926820897,2026-01-25 16h10.36.200474 +0530,
13,0,14,o,2.3350420000006125,None,14,0,13,178.9333630000001,,,,,,,,,,,,,,,,,,,,,,,,,,,,,,,,,,,,,,,,,,,,,,,,,,178.91783219999888,178.9333630000001,179.4560505999998,179.41772440000022,179.45377779999944,179.4560505999998,179.4560505999998,179.4560505999998,181.80068349999965,Objects\138b.jpg,pre,o,2.3350420000006125,None,,,,,,,,00069,001,2026-01-25_16h10.30.795,MST_test,2024.2.0,60.07156926820897,2026-01-25 16h10.36.200474 +0530,
14,0,15,o,3.9399629999988974,None,15,0,14,181.81691229999888,,,,,,,,,,,,,,,,,,,,,,,,,,,,,,,,,,,,,,,,,,,,,,,,,,181.80103469999995,181.81691229999888,182.31674120000025,182.30013569999937,182.30390520000037,182.31674120000025,182.31674120000025,182.31674120000025,186.26728869999897,Objects\186a.jpg,pre,o,3.9399629999988974,None,,,,,,,,00069,001,2026-01-25_16h10.30.795,MST_test,2024.2.0,60.07156926820897,2026-01-25 16h10.36.200474 +0530,
15,0,16,n,2.7207644999998593,None,16,0,15,186.28347409999878,,,,,,,,,,,,,,,,,,,,,,,,,,,,,,,,,,,,,,,,,,,,,,,,,,186.26750569999967,186.28347409999878,186.81442349999998,186.76698690000012,186.8120256000002,186.81442349999998,186.81442349999998,186.81442349999998,189.55099009999867,Foils\121a.jpg,none,n,2.7207644999998593,None,,,,,,,,00069,001,2026-01-25_16h10.30.795,MST_test,2024.2.0,60.07156926820897,2026-01-25 16h10.36.200474 +0530,
16,0,17,n,6.376225899999554,None,17,0,16,189.56693199999972,,,,,,,,,,,,,,,,,,,,,,,,,,,,,,,,,,,,,,,,,,,,,,,,,,189.55134100000032,189.56693199999972,190.10332919999928,190.05058850000023,190.10049359999903,190.10332919999928,190.10332919999928,190.10332919999928,196.4842325999998,Foils\066a.jpg,none,n,6.376225899999554,None,,,,,,,,00069,001,2026-01-25_16h10.30.795,MST_test,2024.2.0,60.07156926820897,2026-01-25 16h10.36.200474 +0530,
17,0,18,n,4.54696850000073,None,18,0,17,196.50073799999882,,,,,,,,,,,,,,,,,,,,,,,,,,,,,,,,,,,,,,,,,,,,,,,,,,196.48459029999867,196.50073799999882,197.01290189999963,196.98398889999953,197.01059779999923,197.01290189999963,197.01290189999963,197.01290189999963,201.5672838999999,Objects\181b.jpg,post,n,4.54696850000073,None,,,,,,,,00069,001,2026-01-25_16h10.30.795,MST_test,2024.2.0,60.07156926820897,2026-01-25 16h10.36.200474 +0530,
18,0,19,o,3.0283794999995735,None,19,0,18,201.58408359999885,,,,,,,,,,,,,,,,,,,,,,,,,,,,,,,,,,,,,,,,,,,,,,,,,,201.56764539999858,201.58408359999885,202.1068118000003,202.06727599999977,202.10441609999907,202.1068118000003,202.1068118000003,202.1068118000003,205.15095870000005,Objects\326b.jpg,pre,o,3.0283794999995735,None,,,,,,,,00069,001,2026-01-25_16h10.30.795,MST_test,2024.2.0,60.07156926820897,2026-01-25 16h10.36.200474 +0530,
19,0,20,o,2.515934000000925,None,20,0,19,205.16663150000022,,,,,,,,,,,,,,,,,,,,,,,,,,,,,,,,,,,,,,,,,,,,,,,,,,205.15133849999984,205.16663150000022,205.66726599999856,205.65055669999856,205.6605942999995,205.66726599999856,205.66726599999856,205.66726599999856,208.18442419999883,Objects\021a.jpg,mid,o,2.515934000000925,None,,,,,,,,00069,001,2026-01-25_16h10.30.795,MST_test,2024.2.0,60.07156926820897,2026-01-25 16h10.36.200474 +0530,
20,0,21,n,1.8483907000008912,None,21,0,20,208.2002866999992,,,,,,,,,,,,,,,,,,,,,,,,,,,,,,,,,,,,,,,,,,,,,,,,,,208.18491240000003,208.2002866999992,208.7270411999998,208.68404329999976,208.72462479999922,208.7270411999998,208.7270411999998,208.7270411999998,210.58400009999968,Foils\090a.jpg,none,n,1.8483907000008912,None,,,,,,,,00069,001,2026-01-25_16h10.30.795,MST_test,2024.2.0,60.07156926820897,2026-01-25 16h10.36.200474 +0530,
21,0,22,n,6.939631699999154,None,22,0,21,210.60006729999986,,,,,,,,,,,,,,,,,,,,,,,,,,,,,,,,,,,,,,,,,,,,,,,,,,210.58440599999994,210.60006729999986,211.10021479999887,211.08374679999906,211.09315309999874,211.10021479999887,211.10021479999887,211.10021479999887,218.05120220000026,Objects\069a.jpg,mid,n,6.939631699999154,None,,,,,,,,00069,001,2026-01-25_16h10.30.795,MST_test,2024.2.0,60.07156926820897,2026-01-25 16h10.36.200474 +0530,
22,0,23,o,4.120633799999268,None,23,0,22,218.0665098999998,,,,,,,,,,,,,,,,,,,,,,,,,,,,,,,,,,,,,,,,,,,,,,,,,,218.0516090000001,218.0665098999998,218.56720680000035,218.55059830000027,218.55741060000037,218.56720680000035,218.56720680000035,218.56720680000035,222.70099459999983,Objects\034a.jpg,mid,o,4.120633799999268,None,,,,,,,,00069,001,2026-01-25_16h10.30.795,MST_test,2024.2.0,60.07156926820897,2026-01-25 16h10.36.200474 +0530,
23,0,24,n,1.4990660999992542,None,24,0,23,222.71685929999876,,,,,,,,,,,,,,,,,,,,,,,,,,,,,,,,,,,,,,,,,,,,,,,,,,222.70135889999983,222.71685929999876,223.24473919999946,223.20070399999895,223.2425919999987,223.24473919999946,223.24473919999946,223.24473919999946,224.75176159999864,Foils\105a.jpg,none,n,1.4990660999992542,None,,,,,,,,00069,001,2026-01-25_16h10.30.795,MST_test,2024.2.0,60.07156926820897,2026-01-25 16h10.36.200474 +0530,
24,0,25,s,2.470983699999124,None,25,0,24,224.76687329999913,,,,,,,,,,,,,,,,,,,,,,,,,,,,,,,,,,,,,,,,,,,,,,,,,,224.7521144000002,224.76687329999913,225.36834069999895,225.2506797999995,225.36530349999884,225.36834069999895,225.36834069999895,225.36834069999895,227.85086189999856,Objects\333b.jpg,pre,s,2.470983699999124,None,,,,,,,,00069,001,2026-01-25_16h10.30.795,MST_test,2024.2.0,60.07156926820897,2026-01-25 16h10.36.200474 +0530,
25,0,26,s,1.853270399999019,None,26,0,25,227.8669809999992,,,,,,,,,,,,,,,,,,,,,,,,,,,,,,,,,,,,,,,,,,,,,,,,,,227.85126909999963,227.8669809999992,228.39454829999886,228.35043919999953,228.39167579999958,228.39454829999886,228.39454829999886,228.39454829999886,230.25075529999958,Objects\303b.jpg,pre,s,1.853270399999019,None,,,,,,,,00069,001,2026-01-25_16h10.30.795,MST_test,2024.2.0,60.07156926820897,2026-01-25 16h10.36.200474 +0530,
26,0,27,n,2.9836649000008038,None,27,0,26,230.26700859999983,,,,,,,,,,,,,,,,,,,,,,,,,,,,,,,,,,,,,,,,,,,,,,,,,,230.25114140000005,230.26700859999983,230.76742360000026,230.75073479999992,230.75812140000016,230.76742360000026,230.76742360000026,230.76742360000026,233.76767429999927,Objects\135a.jpg,pre,n,2.9836649000008038,None,,,,,,,,00069,001,2026-01-25_16h10.30.795,MST_test,2024.2.0,60.07156926820897,2026-01-25 16h10.36.200474 +0530,
27,0,28,n,2.387408900000082,None,28,0,27,233.78333509999902,,,,,,,,,,,,,,,,,,,,,,,,,,,,,,,,,,,,,,,,,,,,,,,,,,233.7680275999992,233.78333509999902,234.30803699999888,234.267074899999,234.30531789999986,234.30803699999888,234.30803699999888,234.30803699999888,236.70075859999997,Foils\002a.jpg,none,n,2.387408900000082,None,,,,,,,,00069,001,2026-01-25_16h10.30.795,MST_test,2024.2.0,60.07156926820897,2026-01-25 16h10.36.200474 +0530,
28,0,29,o,6.556762599999274,None,29,0,28,236.71697539999877,,,,,,,,,,,,,,,,,,,,,,,,,,,,,,,,,,,,,,,,,,,,,,,,,,236.70115520000036,236.71697539999877,237.3067164999993,237.20063870000013,237.3046531,237.3067164999993,237.3067164999993,237.3067164999993,243.86726089999866,Objects\116b.jpg,post,o,6.556762599999274,None,,,,,,,,00069,001,2026-01-25_16h10.30.795,MST_test,2024.2.0,60.07156926820897,2026-01-25 16h10.36.200474 +0530,
29,0,30,o,1.3167547000011837,None,30,0,29,243.88333379999858,,,,,,,,,,,,,,,,,,,,,,,,,,,,,,,,,,,,,,,,,,,,,,,,,,243.86761300000035,243.88333379999858,244.41106819999914,244.36730669999997,244.40849659999913,244.41106819999914,244.41106819999914,244.41106819999914,245.7343867999989,Objects\115b.jpg,pre,o,1.3167547000011837,None,,,,,,,,00069,001,2026-01-25_16h10.30.795,MST_test,2024.2.0,60.07156926820897,2026-01-25 16h10.36.200474 +0530,
30,0,31,o,1.2433943999985786,None,31,0,30,245.75029149999864,,,,,,,,,,,,,,,,,,,,,,,,,,,,,,,,,,,,,,,,,,,,,,,,,,245.73483579999993,245.75029149999864,246.28442989999894,246.2340226999986,246.28199109999878,246.28442989999894,246.28442989999894,246.28442989999894,247.53420469999946,Objects\044b.jpg,mid,o,1.2433943999985786,None,,,,,,,,00069,001,2026-01-25_16h10.30.795,MST_test,2024.2.0,60.07156926820897,2026-01-25 16h10.36.200474 +0530,
31,0,32,s,2.6263224000012997,None,32,0,31,247.55033059999914,,,,,,,,,,,,,,,,,,,,,,,,,,,,,,,,,,,,,,,,,,,,,,,,,,247.53455930000018,247.55033059999914,248.09282100000019,248.03397469999982,248.08976950000033,248.09282100000019,248.09282100000019,248.09282100000019,250.73449859999891,Objects\206b.jpg,mid,s,2.6263224000012997,None,,,,,,,,00069,001,2026-01-25_16h10.30.795,MST_test,2024.2.0,60.07156926820897,2026-01-25 16h10.36.200474 +0530,
32,0,33,n,1.5365256999994017,None,33,0,32,250.7499912000003,,,,,,,,,,,,,,,,,,,,,,,,,,,,,,,,,,,,,,,,,,,,,,,,,,250.73498689999906,250.7499912000003,251.27174860000014,251.23402989999886,251.26833999999872,251.27174860000014,251.27174860000014,251.27174860000014,252.8176567999999,Foils\f5.jpg,none,n,1.5365256999994017,None,,,,,,,,00069,001,2026-01-25_16h10.30.795,MST_test,2024.2.0,60.07156926820897,2026-01-25 16h10.36.200474 +0530,
33,0,34,s,3.5532408999988547,None,34,0,33,252.833676799999,,,,,,,,,,,,,,,,,,,,,,,,,,,,,,,,,,,,,,,,,,,,,,,,,,252.81811019999986,252.833676799999,253.33408169999893,253.31737839999914,253.32719739999993,253.33408169999893,253.33408169999893,253.33408169999893,256.90088809999907,Objects\118a.jpg,mid,s,3.5532408999988547,None,,,,,,,,00069,001,2026-01-25_16h10.30.795,MST_test,2024.2.0,60.07156926820897,2026-01-25 16h10.36.200474 +0530,
34,0,35,n,1.749964499998896,None,35,0,34,256.91700929999934,,,,,,,,,,,,,,,,,,,,,,,,,,,,,,,,,,,,,,,,,,,,,,,,,,256.90126299999974,256.91700929999934,257.44979779999994,257.4006372999993,257.44734679999965,257.44979779999994,257.44979779999994,257.44979779999994,259.20115520000036,Foils\033a.jpg,none,n,1.749964499998896,None,,,,,,,,00069,001,2026-01-25_16h10.30.795,MST_test,2024.2.0,60.07156926820897,2026-01-25 16h10.36.200474 +0530,
35,0,36,s,2.8260805000008986,None,36,0,35,259.2182388000001,,,,,,,,,,,,,,,,,,,,,,,,,,,,,,,,,,,,,,,,,,,,,,,,,,259.2015088999997,259.2182388000001,,259.71714619999875,259.72514389999924,259.73390069999914,259.73390069999914,259.73390069999914,262.56757259999904,Objects\052a.jpg,mid,s,2.8260805000008986,None,,,,,,,,00069,001,2026-01-25_16h10.30.795,MST_test,2024.2.0,60.07156926820897,2026-01-25 16h10.36.200474 +0530,
36,0,37,s,7.014924500001143,None,37,0,36,262.58368150000024,,,,,,,,,,,,,,,,,,,,,,,,,,,,,,,,,,,,,,,,,,,,,,,,,,262.5680556999996,262.58368150000024,263.12040199999865,263.0672384999998,263.1178990999997,263.12040199999865,263.12040199999865,263.12040199999865,270.1509709000002,Foils\081a.jpg,none,s,7.014924500001143,None,,,,,,,,00069,001,2026-01-25_16h10.30.795,MST_test,2024.2.0,60.07156926820897,2026-01-25 16h10.36.200474 +0530,
37,0,38,o,1.68381380000028,None,38,0,37,270.1667766999999,,,,,,,,,,,,,,,,,,,,,,,,,,,,,,,,,,,,,,,,,,,,,,,,,,270.15135999999984,270.1667766999999,270.66722729999856,270.65073630000006,270.6607874000001,270.66722729999856,270.66722729999856,270.66722729999856,272.3669867999997,Objects\085a.jpg,post,o,1.68381380000028,None,,,,,,,,00069,001,2026-01-25_16h10.30.795,MST_test,2024.2.0,60.07156926820897,2026-01-25 16h10.36.200474 +0530,
38,0,39,o,1.6764099000010901,None,39,0,38,272.3830161999995,,,,,,,,,,,,,,,,,,,,,,,,,,,,,,,,,,,,,,,,,,,,,,,,,,272.36728909999874,272.3830161999995,272.88339389999965,272.8668872999988,272.8728897000001,272.88339389999965,272.88339389999965,272.88339389999965,274.56763469999896,Objects\109a.jpg,mid,o,1.6764099000010901,None,,,,,,,,00069,001,2026-01-25_16h10.30.795,MST_test,2024.2.0,60.07156926820897,2026-01-25 16h10.36.200474 +0530,
39,0,40,o,1.8183768999988388,None,40,0,39,274.5835972999994,,,,,,,,,,,,,,,,,,,,,,,,,,,,,,,,,,,,,,,,,,,,,,,,,,274.56798869999875,274.5835972999994,275.1007680999992,275.06731020000007,275.09825739999906,275.1007680999992,275.1007680999992,275.1007680999992,276.9342773999997,Objects\151b.jpg,post,o,1.8183768999988388,None,,,,,,,,00069,001,2026-01-25_16h10.30.795,MST_test,2024.2.0,60.07156926820897,2026-01-25 16h10.36.200474 +0530,
40,0,41,n,3.17843670000002,None,41,0,40,276.9503996000003,,,,,,,,,,,,,,,,,,,,,,,,,,,,,,,,,,,,,,,,,,,,,,,,,,276.93468719999873,276.9503996000003,277.48540989999856,277.4336022999996,277.4832953999994,277.48540989999856,277.48540989999856,277.48540989999856,280.6676685000002,Objects\105b.jpg,mid,n,3.17843670000002,None,,,,,,,,00069,001,2026-01-25_16h10.30.795,MST_test,2024.2.0,60.07156926820897,2026-01-25 16h10.36.200474 +0530,
41,0,42,n,4.735433600000761,None,42,0,41,280.6836698999996,,,,,,,,,,,,,,,,,,,,,,,,,,,,,,,,,,,,,,,,,,,,,,,,,,280.6680211999992,280.6836698999996,281.19988289999856,281.1671374999987,281.1978167999987,281.19988289999856,281.19988289999856,281.19988289999856,285.9510145999993,Foils\018a.jpg,none,n,4.735433600000761,None,,,,,,,,00069,001,2026-01-25_16h10.30.795,MST_test,2024.2.0,60.07156926820897,2026-01-25 16h10.36.200474 +0530,
42,0,43,n,1.8208183999995526,None,43,0,42,285.9670527999988,,,,,,,,,,,,,,,,,,,,,,,,,,,,,,,,,,,,,,,,,,,,,,,,,,285.9514042999999,285.9670527999988,286.46698809999907,286.45038849999946,286.45940530000007,286.46698809999907,286.46698809999907,286.46698809999907,288.30078129999856,Objects\004a.jpg,post,n,1.8208183999995526,None,,,,,,,,00069,001,2026-01-25_16h10.30.795,MST_test,2024.2.0,60.07156926820897,2026-01-25 16h10.36.200474 +0530,
43,0,44,n,3.9582391000003554,None,44,0,43,288.3167300999994,,,,,,,,,,,,,,,,,,,,,,,,,,,,,,,,,,,,,,,,,,,,,,,,,,288.3011356999996,288.3167300999994,288.84134789999916,288.8006766999988,288.8386415999994,288.84134789999916,288.84134789999916,288.84134789999916,292.8010310999998,Foils\026a.jpg,none,n,3.9582391000003554,None,,,,,,,,00069,001,2026-01-25_16h10.30.795,MST_test,2024.2.0,60.07156926820897,2026-01-25 16h10.36.200474 +0530,
44,0,45,o,1.5217119999997522,None,45,0,44,292.81704340000033,,,,,,,,,,,,,,,,,,,,,,,,,,,,,,,,,,,,,,,,,,,,,,,,,,292.8013933000002,292.81704340000033,293.3174930999994,293.30035560000033,293.3089218999994,293.3174930999994,293.3174930999994,293.3174930999994,294.8508150999987,Objects\272a.jpg,pre,o,1.5217119999997522,None,,,,,,,,00069,001,2026-01-25_16h10.30.795,MST_test,2024.2.0,60.07156926820897,2026-01-25 16h10.36.200474 +0530,
45,0,46,o,1.1600149999994755,None,46,0,45,294.8668667999991,,,,,,,,,,,,,,,,,,,,,,,,,,,,,,,,,,,,,,,,,,,,,,,,,,294.8511706999998,294.8668667999991,295.40726149999864,295.35069490000024,295.4049901999988,295.40726149999864,295.40726149999864,295.40726149999864,296.5843497999995,Objects\014b.jpg,mid,o,1.1600149999994755,None,,,,,,,,00069,001,2026-01-25_16h10.30.795,MST_test,2024.2.0,60.07156926820897,2026-01-25 16h10.36.200474 +0530,
46,0,47,n,3.132265800000823,None,47,0,46,296.6003529999998,,,,,,,,,,,,,,,,,,,,,,,,,,,,,,,,,,,,,,,,,,,,,,,,,,296.58470619999935,296.6003529999998,297.1236243000003,297.0841088999987,297.12024759999986,297.1236243000003,297.1236243000003,297.1236243000003,300.2677332000003,Foils\f7.jpg,none,n,3.132265800000823,None,,,,,,,,00069,001,2026-01-25_16h10.30.795,MST_test,2024.2.0,60.07156926820897,2026-01-25 16h10.36.200474 +0530,
47,0,48,n,2.9498186000000715,None,48,0,47,300.2834101999997,,,,,,,,,,,,,,,,,,,,,,,,,,,,,,,,,,,,,,,,,,,,,,,,,,300.2680892999997,300.2834101999997,300.80941899999925,300.76734000000033,300.80656439999984,300.80941899999925,300.80941899999925,300.80941899999925,303.7676253999998,Foils\050a.jpg,none,n,2.9498186000000715,None,,,,,,,,00069,001,2026-01-25_16h10.30.795,MST_test,2024.2.0,60.07156926820897,2026-01-25 16h10.36.200474 +0530,
48,0,49,o,1.464989100000821,None,49,0,48,303.78371460000017,,,,,,,,,,,,,,,,,,,,,,,,,,,,,,,,,,,,,,,,,,,,,,,,,,303.76798469999994,303.78371460000017,304.30221100000017,304.2671774999999,304.2992130999992,304.30221100000017,304.30221100000017,304.30221100000017,305.7843667999987,Objects\187b.jpg,mid,o,1.464989100000821,None,,,,,,,,00069,001,2026-01-25_16h10.30.795,MST_test,2024.2.0,60.07156926820897,2026-01-25 16h10.36.200474 +0530,
49,0,50,n,5.772956900000281,None,50,0,49,305.80127749999883,,,,,,,,,,,,,,,,,,,,,,,,,,,,,,,,,,,,,,,,,,,,,,,,,,305.78473349999877,305.80127749999883,306.3382038,306.28411119999873,306.3356206999997,306.3382038,306.3382038,306.3382038,312.1173861999996,Foils\017a.jpg,none,n,5.772956900000281,None,,,,,,,,00069,001,2026-01-25_16h10.30.795,MST_test,2024.2.0,60.07156926820897,2026-01-25 16h10.36.200474 +0530,
50,0,51,o,5.605050800000754,None,51,0,50,312.1332520999986,,,,,,,,,,,,,,,,,,,,,,,,,,,,,,,,,,,,,,,,,,,,,,,,,,312.1177699,312.1332520999986,312.66615660000025,312.6173304999993,312.6638243999987,312.66615660000025,312.66615660000025,312.66615660000025,318.2841133999991,Objects\089b.jpg,mid,o,5.605050800000754,None,,,,,,,,00069,001,2026-01-25_16h10.30.795,MST_test,2024.2.0,60.07156926820897,2026-01-25 16h10.36.200474 +0530,
51,0,52,s,1.9204346999995323,None,52,0,51,318.29986049999934,,,,,,,,,,,,,,,,,,,,,,,,,,,,,,,,,,,,,,,,,,,,,,,,,,318.2844738999993,318.29986049999934,318.82338639999944,318.7841040000003,318.8208947999992,318.82338639999944,318.82338639999944,318.82338639999944,320.75098249999974,Objects\133b.jpg,pre,s,1.9204346999995323,None,,,,,,,,00069,001,2026-01-25_16h10.30.795,MST_test,2024.2.0,60.07156926820897,2026-01-25 16h10.36.200474 +0530,
52,0,53,s,4.956265199998597,None,53,0,52,320.76707799999895,,,,,,,,,,,,,,,,,,,,,,,,,,,,,,,,,,,,,,,,,,,,,,,,,,320.7513493999995,320.76707799999895,321.26754269999947,321.2507132999999,321.2589571999997,321.26754269999947,321.26754269999947,321.26754269999947,326.23445059999904,Objects\368a.jpg,pre,s,4.956265199998597,None,,,,,,,,00069,001,2026-01-25_16h10.30.795,MST_test,2024.2.0,60.07156926820897,2026-01-25 16h10.36.200474 +0530,
53,0,54,s,2.5373263000001316,None,54,0,53,326.2503521999988,,,,,,,,,,,,,,,,,,,,,,,,,,,,,,,,,,,,,,,,,,,,,,,,,,326.23490349999884,326.2503521999988,326.7504597999996,326.73412029999963,326.7424867999998,326.7504597999996,326.7504597999996,326.7504597999996,329.3009925999995,Objects\232a.jpg,mid,s,2.5373263000001316,None,,,,,,,,00069,001,2026-01-25_16h10.30.795,MST_test,2024.2.0,60.07156926820897,2026-01-25 16h10.36.200474 +0530,
54,0,55,s,4.214244299999336,None,55,0,54,329.31711109999924,,,,,,,,,,,,,,,,,,,,,,,,,,,,,,,,,,,,,,,,,,,,,,,,,,329.3013493999988,329.31711109999924,329.81755840000005,329.8007928999996,329.812390699999,329.81755840000005,329.81755840000005,329.81755840000005,334.03403549999894,Objects\112a.jpg,mid,s,4.214244299999336,None,,,,,,,,00069,001,2026-01-25_16h10.30.795,MST_test,2024.2.0,60.07156926820897,2026-01-25 16h10.36.200474 +0530,
55,0,56,n,2.918617400000585,None,56,0,55,334.0501683000002,,,,,,,,,,,,,,,,,,,,,,,,,,,,,,,,,,,,,,,,,,,,,,,,,,334.0343931999996,334.0501683000002,334.57677460000014,334.533985099999,334.574029899999,334.57677460000014,334.57677460000014,334.57677460000014,337.5008472999998,Objects\160b.jpg,mid,n,2.918617400000585,None,,,,,,,,00069,001,2026-01-25_16h10.30.795,MST_test,2024.2.0,60.07156926820897,2026-01-25 16h10.36.200474 +0530,
56,0,57,n,2.893874600000345,None,57,0,56,337.5169896999996,,,,,,,,,,,,,,,,,,,,,,,,,,,,,,,,,,,,,,,,,,,,,,,,,,337.50123259999964,337.5169896999996,338.04134820000036,338.000729899999,338.03875829999924,338.04134820000036,338.04134820000036,338.04134820000036,340.95077499999934,Foils\034a.jpg,none,n,2.893874600000345,None,,,,,,,,00069,001,2026-01-25_16h10.30.795,MST_test,2024.2.0,60.07156926820897,2026-01-25 16h10.36.200474 +0530,
57,0,58,s,2.0322923000003357,None,58,0,57,340.9667023999991,,,,,,,,,,,,,,,,,,,,,,,,,,,,,,,,,,,,,,,,,,,,,,,,,,340.95115219999934,340.9667023999991,341.4953373999997,341.4505743999998,341.4928889999992,341.4953373999997,341.4953373999997,341.4953373999997,343.5342693999992,Objects\129b.jpg,mid,s,2.0322923000003357,None,,,,,,,,00069,001,2026-01-25_16h10.30.795,MST_test,2024.2.0,60.07156926820897,2026-01-25 16h10.36.200474 +0530,
58,0,59,s,3.049883600000612,None,59,0,58,343.5503415000003,,,,,,,,,,,,,,,,,,,,,,,,,,,,,,,,,,,,,,,,,,,,,,,,,,343.53462519999994,343.5503415000003,344.06925950000004,344.0339238999986,344.06653240000014,344.06925950000004,344.06925950000004,344.06925950000004,347.13389350000034,Objects\310b.jpg,mid,s,3.049883600000612,None,,,,,,,,00069,001,2026-01-25_16h10.30.795,MST_test,2024.2.0,60.07156926820897,2026-01-25 16h10.36.200474 +0530,
59,0,60,o,2.3646020000014687,None,60,0,59,347.1499238999986,,,,,,,,,,,,,,,,,,,,,,,,,,,,,,,,,,,,,,,,,,,,,,,,,,347.1340421999994,347.1499238999986,347.6508245999994,347.63412489999973,347.64388439999857,347.6508245999994,347.6508245999994,347.6508245999994,350.017405999999,Objects\079a.jpg,mid,o,2.3646020000014687,None,,,,,,,,00069,001,2026-01-25_16h10.30.795,MST_test,2024.2.0,60.07156926820897,2026-01-25 16h10.36.200474 +0530,
60,0,61,n,3.089866799999072,None,61,0,60,350.0336102000001,,,,,,,,,,,,,,,,,,,,,,,,,,,,,,,,,,,,,,,,,,,,,,,,,,350.01776079999945,350.0336102000001,350.5339574999998,350.51749539999946,350.5264412999986,350.5339574999998,350.5339574999998,350.5339574999998,353.6344305999992,Objects\179a.jpg,pre,n,3.089866799999072,None,,,,,,,,00069,001,2026-01-25_16h10.30.795,MST_test,2024.2.0,60.07156926820897,2026-01-25 16h10.36.200474 +0530,
61,0,62,s,3.6064999000009266,None,62,0,61,353.6501752999993,,,,,,,,,,,,,,,,,,,,,,,,,,,,,,,,,,,,,,,,,,,,,,,,,,353.6348160999987,353.6501752999993,354.184903899999,354.1341558999993,354.1829762999987,354.184903899999,354.184903899999,354.184903899999,357.80101999999897,Foils\065a.jpg,none,s,3.6064999000009266,None,,,,,,,,00069,001,2026-01-25_16h10.30.795,MST_test,2024.2.0,60.07156926820897,2026-01-25 16h10.36.200474 +0530,
62,0,63,n,1.6976252999993449,None,63,0,62,357.81877840000016,,,,,,,,,,,,,,,,,,,,,,,,,,,,,,,,,,,,,,,,,,,,,,,,,,357.80137189999914,357.81877840000016,,358.31726679999883,358.3263143999993,358.33405239999956,358.33405239999956,358.33405239999956,360.03410900000017,Objects\048a.jpg,pre,n,1.6976252999993449,None,,,,,,,,00069,001,2026-01-25_16h10.30.795,MST_test,2024.2.0,60.07156926820897,2026-01-25 16h10.36.200474 +0530,
63,0,64,s,1.3461226999988867,None,64,0,63,360.0502868000003,,,,,,,,,,,,,,,,,,,,,,,,,,,,,,,,,,,,,,,,,,,,,,,,,,360.0344671999992,360.0502868000003,,360.535249999999,360.6021069999988,360.60500779999893,360.60500779999893,360.60500779999893,361.96770730000026,Objects\218b.jpg,post,s,1.3461226999988867,None,,,,,,,,00069,001,2026-01-25_16h10.30.795,MST_test,2024.2.0,60.07156926820897,2026-01-25 16h10.36.200474 +0530,
64,0,65,n,1.630048999999417,None,65,0,64,361.98379719999866,,,,,,,,,,,,,,,,,,,,,,,,,,,,,,,,,,,,,,,,,,,,,,,,,,361.96807400000034,361.98379719999866,362.5211545000002,362.46749999999884,362.51851579999857,362.5211545000002,362.5211545000002,362.5211545000002,364.16769079999904,Foils\101b.jpg,none,n,1.630048999999417,None,,,,,,,,00069,001,2026-01-25_16h10.30.795,MST_test,2024.2.0,60.07156926820897,2026-01-25 16h10.36.200474 +0530,
65,0,66,n,1.8785494000003382,None,66,0,65,364.1837995999995,,,,,,,,,,,,,,,,,,,,,,,,,,,,,,,,,,,,,,,,,,,,,,,,,,364.1680501999999,364.1837995999995,364.7046154999989,364.6674270000003,364.7018344999997,364.7046154999989,364.7046154999989,364.7046154999989,366.58453459999873,Foils\058a.jpg,none,n,1.8785494000003382,None,,,,,,,,00069,001,2026-01-25_16h10.30.795,MST_test,2024.2.0,60.07156926820897,2026-01-25 16h10.36.200474 +0530,
66,0,67,n,1.3653955999998288,None,67,0,66,366.60044860000016,,,,,,,,,,,,,,,,,,,,,,,,,,,,,,,,,,,,,,,,,,,,,,,,,,366.5849868999994,366.60044860000016,367.1784501000002,367.0841800999988,367.176422999999,367.1784501000002,367.1784501000002,367.1784501000002,368.5511091999997,Objects\009b.jpg,post,n,1.3653955999998288,None,,,,,,,,00069,001,2026-01-25_16h10.30.795,MST_test,2024.2.0,60.07156926820897,2026-01-25 16h10.36.200474 +0530,
67,0,68,o,3.0121734000003926,None,68,0,67,368.56700959999944,,,,,,,,,,,,,,,,,,,,,,,,,,,,,,,,,,,,,,,,,,,,,,,,,,368.55147119999856,368.56700959999944,369.06728589999875,369.0508360999993,369.05889169999864,369.06728589999875,369.06728589999875,369.06728589999875,372.08439220000037,Objects\062a.jpg,mid,o,3.0121734000003926,None,,,,,,,,00069,001,2026-01-25_16h10.30.795,MST_test,2024.2.0,60.07156926820897,2026-01-25 16h10.36.200474 +0530,
68,0,69,n,1.2649867000000086,None,69,0,68,372.10043419999965,,,,,,,,,,,,,,,,,,,,,,,,,,,,,,,,,,,,,,,,,,,,,,,,,,372.0847498999992,372.10043419999965,372.63018310000007,372.5841963999992,372.62818439999864,372.63018310000007,372.63018310000007,372.63018310000007,373.9007817999991,Objects\305b.jpg,post,n,1.2649867000000086,None,,,,,,,,00069,001,2026-01-25_16h10.30.795,MST_test,2024.2.0,60.07156926820897,2026-01-25 16h10.36.200474 +0530,
69,0,70,s,3.3902825999994093,None,70,0,69,373.91657829999895,,,,,,,,,,,,,,,,,,,,,,,,,,,,,,,,,,,,,,,,,,,,,,,,,,373.90114600000015,373.91657829999895,374.4175216000003,374.40085779999936,374.4088634999989,374.4175216000003,374.4175216000003,374.4175216000003,377.8177204000003,Objects\367a.jpg,pre,s,3.3902825999994093,None,,,,,,,,00069,001,2026-01-25_16h10.30.795,MST_test,2024.2.0,60.07156926820897,2026-01-25 16h10.36.200474 +0530,
70,0,71,s,4.209640999999465,None,71,0,70,377.83381389999886,,,,,,,,,,,,,,,,,,,,,,,,,,,,,,,,,,,,,,,,,,,,,,,,,,377.8180997999989,377.83381389999886,378.3342206999987,378.3172756999993,378.3258344999995,378.3342206999987,378.3342206999987,378.3342206999987,382.55113399999937,Objects\323a.jpg,pre,s,4.209640999999465,None,,,,,,,,00069,001,2026-01-25_16h10.30.795,MST_test,2024.2.0,60.07156926820897,2026-01-25 16h10.36.200474 +0530,
71,0,72,o,1.4122387999996135,None,72,0,71,382.5669328999993,,,,,,,,,,,,,,,,,,,,,,,,,,,,,,,,,,,,,,,,,,,,,,,,,,382.5515170999988,382.5669328999993,383.0675773999992,383.0506179999993,383.05961099999877,383.0675773999992,383.0675773999992,383.0675773999992,384.48445829999946,Objects\088a.jpg,pre,o,1.4122387999996135,None,,,,,,,,00069,001,2026-01-25_16h10.30.795,MST_test,2024.2.0,60.07156926820897,2026-01-25 16h10.36.200474 +0530,
72,0,73,n,1.1393815999999788,None,73,0,72,384.5004551000002,,,,,,,,,,,,,,,,,,,,,,,,,,,,,,,,,,,,,,,,,,,,,,,,,,384.4848130999999,384.5004551000002,385.0204459999986,384.9840785999986,385.01827609999964,385.0204459999986,385.0204459999986,385.0204459999986,386.1676824999995,Foils\113a.jpg,none,n,1.1393815999999788,None,,,,,,,,00069,001,2026-01-25_16h10.30.795,MST_test,2024.2.0,60.07156926820897,2026-01-25 16h10.36.200474 +0530,
73,0,74,o,1.592199200000323,None,74,0,73,386.1838465000001,,,,,,,,,,,,,,,,,,,,,,,,,,,,,,,,,,,,,,,,,,,,,,,,,,386.16803309999887,386.1838465000001,,386.6679953999992,386.70090270000037,386.7037679999994,386.7037679999994,386.7037679999994,388.30081789999895,Objects\362b.jpg,post,o,1.592199200000323,None,,,,,,,,00069,001,2026-01-25_16h10.30.795,MST_test,2024.2.0,60.07156926820897,2026-01-25 16h10.36.200474 +0530,
74,0,75,n,2.0766405000013037,None,75,0,74,388.3167797999995,,,,,,,,,,,,,,,,,,,,,,,,,,,,,,,,,,,,,,,,,,,,,,,,,,388.3011680999989,388.3167797999995,388.83475929999986,388.8008816999991,388.832292699999,388.83475929999986,388.83475929999986,388.83475929999986,390.91753450000033,Foils\009a.jpg,none,n,2.0766405000013037,None,,,,,,,,00069,001,2026-01-25_16h10.30.795,MST_test,2024.2.0,60.07156926820897,2026-01-25 16h10.36.200474 +0530,
75,0,76,n,1.157751200000348,None,76,0,75,390.93462120000004,,,,,,,,,,,,,,,,,,,,,,,,,,,,,,,,,,,,,,,,,,,,,,,,,,390.917881899999,390.93462120000004,391.4340651000002,391.4174760999995,391.42604500000016,391.4340651000002,391.4340651000002,391.4340651000002,392.60148929999923,Objects\163a.jpg,pre,n,1.157751200000348,None,,,,,,,,00069,001,2026-01-25_16h10.30.795,MST_test,2024.2.0,60.07156926820897,2026-01-25 16h10.36.200474 +0530,
76,0,77,n,2.5049039000004996,None,77,0,76,392.6180327000002,,,,,,,,,,,,,,,,,,,,,,,,,,,,,,,,,,,,,,,,,,,,,,,,,,392.6018425000002,392.6180327000002,393.13470159999997,393.10087459999886,393.1322094999996,393.13470159999997,393.13470159999997,393.13470159999997,395.65110300000015,Foils\073a.jpg,none,n,2.5049039000004996,None,,,,,,,,00069,001,2026-01-25_16h10.30.795,MST_test,2024.2.0,60.07156926820897,2026-01-25 16h10.36.200474 +0530,
77,0,78,o,1.4725094999994326,None,78,0,77,395.6670828999995,,,,,,,,,,,,,,,,,,,,,,,,,,,,,,,,,,,,,,,,,,,,,,,,,,395.65145440000015,395.6670828999995,,396.1523907999999,396.1584316999997,396.16731509999954,396.16731509999954,396.16731509999954,397.65085889999864,Objects\041a.jpg,pre,o,1.4725094999994326,None,,,,,,,,00069,001,2026-01-25_16h10.30.795,MST_test,2024.2.0,60.07156926820897,2026-01-25 16h10.36.200474 +0530,
78,0,79,o,1.3120818999996118,None,79,0,78,397.66687269999966,,,,,,,,,,,,,,,,,,,,,,,,,,,,,,,,,,,,,,,,,,,,,,,,,,397.65120879999995,397.66687269999966,398.1675099999993,398.15085889999864,398.1612048999996,398.1675099999993,398.1675099999993,398.1675099999993,399.4844637999995,Objects\248a.jpg,mid,o,1.3120818999996118,None,,,,,,,,00069,001,2026-01-25_16h10.30.795,MST_test,2024.2.0,60.07156926820897,2026-01-25 16h10.36.200474 +0530,
79,0,80,o,1.0935004000002664,None,80,0,79,399.5004709999994,,,,,,,,,,,,,,,,,,,,,,,,,,,,,,,,,,,,,,,,,,,,,,,,,,399.4848141000002,399.5004709999994,400.04190819999894,399.9842396999993,400.03901889999906,400.04190819999894,400.04190819999894,400.04190819999894,401.1511257000002,Objects\241b.jpg,mid,o,1.0935004000002664,None,,,,,,,,00069,001,2026-01-25_16h10.30.795,MST_test,2024.2.0,60.07156926820897,2026-01-25 16h10.36.200474 +0530,
80,0,81,o,1.6997185999989597,None,81,0,80,401.16685080000025,,,,,,,,,,,,,,,,,,,,,,,,,,,,,,,,,,,,,,,,,,,,,,,,,,401.1514740999992,401.16685080000025,401.66754389999915,401.6507695,401.66061759999866,401.66754389999915,401.66754389999915,401.66754389999915,403.3842026000002,Objects\314a.jpg,post,o,1.6997185999989597,None,,,,,,,,00069,001,2026-01-25_16h10.30.795,MST_test,2024.2.0,60.07156926820897,2026-01-25 16h10.36.200474 +0530,
81,0,82,n,3.558653399999457,None,82,0,81,403.40026249999937,,,,,,,,,,,,,,,,,,,,,,,,,,,,,,,,,,,,,,,,,,,,,,,,,,403.3845717999993,403.40026249999937,403.92117270000017,403.8841790999995,403.918131299999,403.92117270000017,403.92117270000017,403.92117270000017,407.48440669999945,Objects\280b.jpg,mid,n,3.558653399999457,None,,,,,,,,00069,001,2026-01-25_16h10.30.795,MST_test,2024.2.0,60.07156926820897,2026-01-25 16h10.36.200474 +0530,
82,0,83,o,1.9749656000003597,None,83,0,82,407.5004909999989,,,,,,,,,,,,,,,,,,,,,,,,,,,,,,,,,,,,,,,,,,,,,,,,,,407.4847583999999,407.5004909999989,408.0008366999991,407.9840525999989,407.99293939999916,408.0008366999991,408.0008366999991,408.0008366999991,409.98448989999997,Objects\134a.jpg,mid,o,1.9749656000003597,None,,,,,,,,00069,001,2026-01-25_16h10.30.795,MST_test,2024.2.0,60.07156926820897,2026-01-25 16h10.36.200474 +0530,
83,0,84,o,1.0990344999991066,None,84,0,83,410.00051919999896,,,,,,,,,,,,,,,,,,,,,,,,,,,,,,,,,,,,,,,,,,,,,,,,,,409.9849013999992,410.00051919999896,410.5009162999995,410.4844073999993,410.4908588999988,410.5009162999995,410.5009162999995,410.5009162999995,411.6013046999997,Objects\030a.jpg,pre,o,1.0990344999991066,None,,,,,,,,00069,001,2026-01-25_16h10.30.795,MST_test,2024.2.0,60.07156926820897,2026-01-25 16h10.36.200474 +0530,
84,0,85,o,0.9543529000002309,None,85,0,84,411.61713919999966,,,,,,,,,,,,,,,,,,,,,,,,,,,,,,,,,,,,,,,,,,,,,,,,,,411.6016662000002,411.61713919999966,412.1178327999987,412.10099489999993,412.11067829999956,412.1178327999987,412.1178327999987,412.1178327999987,413.08439069999986,Objects\231a.jpg,pre,o,0.9543529000002309,None,,,,,,,,00069,001,2026-01-25_16h10.30.795,MST_test,2024.2.0,60.07156926820897,2026-01-25 16h10.36.200474 +0530,
85,0,86,o,1.1649660999992193,None,86,0,85,413.1004968999987,,,,,,,,,,,,,,,,,,,,,,,,,,,,,,,,,,,,,,,,,,,,,,,,,,413.08473349999986,413.1004968999987,413.65848279999955,413.58407439999974,413.65484639999886,413.65848279999955,413.65848279999955,413.65848279999955,414.8342414999988,Objects\265b.jpg,mid,o,1.1649660999992193,None,,,,,,,,00069,001,2026-01-25_16h10.30.795,MST_test,2024.2.0,60.07156926820897,2026-01-25 16h10.36.200474 +0530,
86,0,87,s,3.0134204999994836,None,87,0,86,414.8501860999986,,,,,,,,,,,,,,,,,,,,,,,,,,,,,,,,,,,,,,,,,,,,,,,,,,414.83460319999904,414.8501860999986,415.3783973999998,415.33392789999925,415.37615000000005,415.3783973999998,415.3783973999998,415.3783973999998,418.4012137999998,Objects\065b.jpg,post,s,3.0134204999994836,None,,,,,,,,00069,001,2026-01-25_16h10.30.795,MST_test,2024.2.0,60.07156926820897,2026-01-25 16h10.36.200474 +0530,
87,0,88,o,2.0738003000005847,None,88,0,87,418.41707829999905,,,,,,,,,,,,,,,,,,,,,,,,,,,,,,,,,,,,,,,,,,,,,,,,,,418.4015703999994,418.41707829999905,418.91733919999933,418.9008978999991,418.9099284999993,418.91733919999933,418.91733919999933,418.91733919999933,421.00110479999967,Objects\073a.jpg,post,o,2.0738003000005847,None,,,,,,,,00069,001,2026-01-25_16h10.30.795,MST_test,2024.2.0,60.07156926820897,2026-01-25 16h10.36.200474 +0530,
88,0,89,o,0.8416168000003381,None,89,0,88,421.01764339999863,,,,,,,,,,,,,,,,,,,,,,,,,,,,,,,,,,,,,,,,,,,,,,,,,,421.0014503000002,421.01764339999863,421.51805629999944,421.5009083999994,421.50917599999957,421.51805629999944,421.51805629999944,421.51805629999944,422.3688741999995,Objects\300a.jpg,post,o,0.8416168000003381,None,,,,,,,,00069,001,2026-01-25_16h10.30.795,MST_test,2024.2.0,60.07156926820897,2026-01-25 16h10.36.200474 +0530,
89,0,90,o,2.3476304999985587,None,90,0,89,422.38385279999966,,,,,,,,,,,,,,,,,,,,,,,,,,,,,,,,,,,,,,,,,,,,,,,,,,422.36922369999957,422.38385279999966,422.88418699999966,422.8673584999997,422.8758691000003,422.88418699999966,422.88418699999966,422.88418699999966,425.2341512999992,Objects\031a.jpg,post,o,2.3476304999985587,None,,,,,,,,00069,001,2026-01-25_16h10.30.795,MST_test,2024.2.0,60.07156926820897,2026-01-25 16h10.36.200474 +0530,
90,0,91,o,1.128140099999655,None,91,0,90,425.2504881999994,,,,,,,,,,,,,,,,,,,,,,,,,,,,,,,,,,,,,,,,,,,,,,,,,,425.2344985999989,425.2504881999994,425.79122610000013,425.73427119999906,425.7890324,425.79122610000013,425.79122610000013,425.79122610000013,426.9344867999989,Objects\078b.jpg,post,o,1.128140099999655,None,,,,,,,,00069,001,2026-01-25_16h10.30.795,MST_test,2024.2.0,60.07156926820897,2026-01-25 16h10.36.200474 +0530,
91,0,92,s,3.6832410999995773,None,92,0,91,426.9505427999993,,,,,,,,,,,,,,,,,,,,,,,,,,,,,,,,,,,,,,,,,,,,,,,,,,426.9348852000003,426.9505427999993,427.4762092000001,427.43422420000024,427.47405139999864,427.4762092000001,427.4762092000001,427.4762092000001,431.1676231000001,Objects\067b.jpg,mid,s,3.6832410999995773,None,,,,,,,,00069,001,2026-01-25_16h10.30.795,MST_test,2024.2.0,60.07156926820897,2026-01-25 16h10.36.200474 +0530,
92,0,93,s,1.399801600000501,None,93,0,92,431.18376849999913,,,,,,,,,,,,,,,,,,,,,,,,,,,,,,,,,,,,,,,,,,,,,,,,,,431.16797899999983,431.18376849999913,431.71202959999937,431.66726689999996,431.70971329999884,431.71202959999937,431.71202959999937,431.71202959999937,433.1178923999996,Objects\091b.jpg,pre,s,1.399801600000501,None,,,,,,,,00069,001,2026-01-25_16h10.30.795,MST_test,2024.2.0,60.07156926820897,2026-01-25 16h10.36.200474 +0530,
93,0,94,o,1.1332060000004276,None,94,0,93,433.13344719999986,,,,,,,,,,,,,,,,,,,,,,,,,,,,,,,,,,,,,,,,,,,,,,,,,,433.1182589,433.13344719999986,433.6340261999994,433.6175612999996,433.62630999999965,433.6340261999994,433.6340261999994,433.6340261999994,434.7678821999998,Objects\132a.jpg,post,o,1.1332060000004276,None,,,,,,,,00069,001,2026-01-25_16h10.30.795,MST_test,2024.2.0,60.07156926820897,2026-01-25 16h10.36.200474 +0530,
94,0,95,s,3.7793774000001576,None,95,0,94,434.783784199999,,,,,,,,,,,,,,,,,,,,,,,,,,,,,,,,,,,,,,,,,,,,,,,,,,434.7682334000001,434.783784199999,435.3164799999995,435.26801199999863,435.3140199999998,435.3164799999995,435.3164799999995,435.3164799999995,439.1010637999989,Objects\207b.jpg,post,s,3.7793774000001576,None,,,,,,,,00069,001,2026-01-25_16h10.30.795,MST_test,2024.2.0,60.07156926820897,2026-01-25 16h10.36.200474 +0530,
95,0,96,s,1.8260196000010183,None,96,0,95,439.1172201999998,,,,,,,,,,,,,,,,,,,,,,,,,,,,,,,,,,,,,,,,,,,,,,,,,,439.1014598999991,439.1172201999998,,439.60139119999985,439.66709059999994,439.66981769999984,439.66981769999984,439.66981769999984,441.5009682,Objects\295b.jpg,post,s,1.8260196000010183,None,,,,,,,,00069,001,2026-01-25_16h10.30.795,MST_test,2024.2.0,60.07156926820897,2026-01-25 16h10.36.200474 +0530,
96,0,97,s,4.064649799998733,None,97,0,96,441.5168045999999,,,,,,,,,,,,,,,,,,,,,,,,,,,,,,,,,,,,,,,,,,,,,,,,,,441.5013170000002,441.5168045999999,442.0385760999998,442.0005627999999,442.0365660999996,442.0385760999998,442.0385760999998,442.0385760999998,446.11859729999924,Objects\042b.jpg,pre,s,4.064649799998733,None,,,,,,,,00069,001,2026-01-25_16h10.30.795,MST_test,2024.2.0,60.07156926820897,2026-01-25 16h10.36.200474 +0530,
97,0,98,s,1.2125583000015467,None,98,0,97,446.1334085999988,,,,,,,,,,,,,,,,,,,,,,,,,,,,,,,,,,,,,,,,,,,,,,,,,,446.1189730999995,446.1334085999988,446.6673035999993,446.61764849999963,446.66519359999984,446.6673035999993,446.6673035999993,446.6673035999993,447.88455619999877,Objects\147b.jpg,pre,s,1.2125583000015467,None,,,,,,,,00069,001,2026-01-25_16h10.30.795,MST_test,2024.2.0,60.07156926820897,2026-01-25 16h10.36.200474 +0530,
98,0,99,s,1.086630600000717,None,99,0,98,447.9005433000002,,,,,,,,,,,,,,,,,,,,,,,,,,,,,,,,,,,,,,,,,,,,,,,,,,447.8849365999995,447.9005433000002,448.40066429999933,448.38411300000007,448.3932057999991,448.40066429999933,448.40066429999933,448.40066429999933,449.5010891999991,Objects\382a.jpg,post,s,1.086630600000717,None,,,,,,,,00069,001,2026-01-25_16h10.30.795,MST_test,2024.2.0,60.07156926820897,2026-01-25 16h10.36.200474 +0530,
99,0,100,s,1.0707579999998416,None,100,0,99,449.5172598999998,,,,,,,,,,,,,,,,,,,,,,,,,,,,,,,,,,,,,,,,,,,,,,,,,,449.501484299999,449.5172598999998,450.04837739999857,450.000854599999,450.04547900000034,450.04837739999857,450.04837739999857,450.04837739999857,451.13443949999964,Objects\177b.jpg,post,s,1.0707579999998416,None,,,,,,,,00069,001,2026-01-25_16h10.30.795,MST_test,2024.2.0,60.07156926820897,2026-01-25 16h10.36.200474 +0530,
100,0,101,s,1.6321291999993264,None,101,0,100,451.1503004999995,,,,,,,,,,,,,,,,,,,,,,,,,,,,,,,,,,,,,,,,,,,,,,,,,,451.1348335999992,451.1503004999995,451.67118019999907,451.63426459999937,451.66867269999966,451.67118019999907,451.67118019999907,451.67118019999907,453.3182273000002,Objects\263b.jpg,pre,s,1.6321291999993264,None,,,,,,,,00069,001,2026-01-25_16h10.30.795,MST_test,2024.2.0,60.07156926820897,2026-01-25 16h10.36.200474 +0530,
101,0,102,s,1.4367450999998255,None,102,0,101,453.3338141999993,,,,,,,,,,,,,,,,,,,,,,,,,,,,,,,,,,,,,,,,,,,,,,,,,,453.3186009000001,453.3338141999993,453.83434579999994,453.8172692999997,453.8254746999992,453.83434579999994,453.83434579999994,453.83434579999994,455.2843568999997,Objects\376a.jpg,post,s,1.4367450999998255,None,,,,,,,,00069,001,2026-01-25_16h10.30.795,MST_test,2024.2.0,60.07156926820897,2026-01-25 16h10.36.200474 +0530,
102,0,103,n,3.1023612000008143,None,103,0,102,455.30010779999975,,,,,,,,,,,,,,,,,,,,,,,,,,,,,,,,,,,,,,,,,,,,,,,,,,455.2846907999992,455.30010779999975,455.89715389999947,455.7842604999987,455.8943890999999,455.89715389999947,455.89715389999947,455.89715389999947,459.00101509999877,Foils\f6.jpg,none,n,3.1023612000008143,None,,,,,,,,00069,001,2026-01-25_16h10.30.795,MST_test,2024.2.0,60.07156926820897,2026-01-25 16h10.36.200474 +0530,
103,0,104,s,1.426315099999556,None,104,0,103,459.0169503999987,,,,,,,,,,,,,,,,,,,,,,,,,,,,,,,,,,,,,,,,,,,,,,,,,,459.00136269999894,459.0169503999987,459.5175091000001,459.5007397999998,459.5098414999993,459.5175091000001,459.5175091000001,459.5175091000001,460.95118679999905,Objects\010a.jpg,pre,s,1.426315099999556,None,,,,,,,,00069,001,2026-01-25_16h10.30.795,MST_test,2024.2.0,60.07156926820897,2026-01-25 16h10.36.200474 +0530,
104,0,105,s,1.1229545999995025,None,105,0,104,460.96714040000006,,,,,,,,,,,,,,,,,,,,,,,,,,,,,,,,,,,,,,,,,,,,,,,,,,460.95154809999985,460.96714040000006,461.50020869999935,461.4509597999986,461.49761359999866,461.50020869999935,461.50020869999935,461.50020869999935,462.63397019999866,Objects\054b.jpg,pre,s,1.1229545999995025,None,,,,,,,,00069,001,2026-01-25_16h10.30.795,MST_test,2024.2.0,60.07156926820897,2026-01-25 16h10.36.200474 +0530,
105,0,106,n,2.519346200000655,None,106,0,105,462.6502641999996,,,,,,,,,,,,,,,,,,,,,,,,,,,,,,,,,,,,,,,,,,,,,,,,,,462.63409539999884,462.6502641999996,463.183875499999,463.1339164000001,463.18173449999995,463.183875499999,463.183875499999,463.183875499999,465.71769889999996,Objects\143b.jpg,post,n,2.519346200000655,None,,,,,,,,00069,001,2026-01-25_16h10.30.795,MST_test,2024.2.0,60.07156926820897,2026-01-25 16h10.36.200474 +0530,
106,0,107,s,1.1700996999989002,None,107,0,106,465.73386740000024,,,,,,,,,,,,,,,,,,,,,,,,,,,,,,,,,,,,,,,,,,,,,,,,,,465.71807679999984,465.73386740000024,466.2537537999997,466.2176232999991,466.25138289999995,466.2537537999997,466.2537537999997,466.2537537999997,467.4345197999992,Objects\327b.jpg,pre,s,1.1700996999989002,None,,,,,,,,00069,001,2026-01-25_16h10.30.795,MST_test,2024.2.0,60.07156926820897,2026-01-25 16h10.36.200474 +0530,
107,0,108,o,1.2250590000003285,None,108,0,107,467.45047840000007,,,,,,,,,,,,,,,,,,,,,,,,,,,,,,,,,,,,,,,,,,,,,,,,,,467.43487359999926,467.45047840000007,467.9509744999996,467.93429560000004,467.94121970000015,467.9509744999996,467.9509744999996,467.9509744999996,469.18454050000037,Objects\137a.jpg,post,o,1.2250590000003285,None,,,,,,,,00069,001,2026-01-25_16h10.30.795,MST_test,2024.2.0,60.07156926820897,2026-01-25 16h10.36.200474 +0530,
108,0,109,n,3.2960127999995166,None,109,0,108,469.20051260000037,,,,,,,,,,,,,,,,,,,,,,,,,,,,,,,,,,,,,,,,,,,,,,,,,,469.18489260000024,469.20051260000037,469.72747659999914,469.6845694000003,469.7251572999994,469.72747659999914,469.72747659999914,469.72747659999914,473.0345271999995,Objects\262b.jpg,mid,n,3.2960127999995166,None,,,,,,,,00069,001,2026-01-25_16h10.30.795,MST_test,2024.2.0,60.07156926820897,2026-01-25 16h10.36.200474 +0530,
109,0,110,o,2.625175199998921,None,110,0,109,473.0504811999999,,,,,,,,,,,,,,,,,,,,,,,,,,,,,,,,,,,,,,,,,,,,,,,,,,473.0348775000002,473.0504811999999,473.55075119999856,473.53439569999864,473.542179099999,473.55075119999856,473.55075119999856,473.55075119999856,476.1845741999987,Objects\099a.jpg,pre,o,2.625175199998921,None,,,,,,,,00069,001,2026-01-25_16h10.30.795,MST_test,2024.2.0,60.07156926820897,2026-01-25 16h10.36.200474 +0530,
110,0,111,o,1.946727099999407,None,111,0,110,476.2005104,,,,,,,,,,,,,,,,,,,,,,,,,,,,,,,,,,,,,,,,,,,,,,,,,,476.1849552999993,476.2005104,476.70073349999984,476.6843250999991,476.6910848999996,476.70073349999984,476.70073349999984,476.70073349999984,478.65136299999904,Objects\361a.jpg,pre,o,1.946727099999407,None,,,,,,,,00069,001,2026-01-25_16h10.30.795,MST_test,2024.2.0,60.07156926820897,2026-01-25 16h10.36.200474 +0530,
111,0,112,o,1.2314126000001124,None,112,0,111,478.66886669999985,,,,,,,,,,,,,,,,,,,,,,,,,,,,,,,,,,,,,,,,,,,,,,,,,,478.65173759999925,478.66886669999985,,479.16735510000035,479.1745132999986,479.1840923999989,479.1840923999989,479.1840923999989,480.4175192999992,Objects\011a.jpg,mid,o,1.2314126000001124,None,,,,,,,,00069,001,2026-01-25_16h10.30.795,MST_test,2024.2.0,60.07156926820897,2026-01-25 16h10.36.200474 +0530,
112,0,113,o,0.9293601999997918,None,113,0,112,480.4337426000002,,,,,,,,,,,,,,,,,,,,,,,,,,,,,,,,,,,,,,,,,,,,,,,,,,480.4178675999992,480.4337426000002,480.9338337999998,480.91767640000035,480.9263054999992,480.9338337999998,480.9338337999998,480.9338337999998,481.8678984999988,Objects\033a.jpg,mid,o,0.9293601999997918,None,,,,,,,,00069,001,2026-01-25_16h10.30.795,MST_test,2024.2.0,60.07156926820897,2026-01-25 16h10.36.200474 +0530,
113,0,114,o,1.4704875000006723,None,114,0,113,481.8838939999987,,,,,,,,,,,,,,,,,,,,,,,,,,,,,,,,,,,,,,,,,,,,,,,,,,481.86824629999865,481.8838939999987,482.40901940000003,482.3676402000001,482.40696749999915,482.40901940000003,482.40901940000003,482.40901940000003,483.8842277999993,Objects\082b.jpg,post,o,1.4704875000006723,None,,,,,,,,00069,001,2026-01-25_16h10.30.795,MST_test,2024.2.0,60.07156926820897,2026-01-25 16h10.36.200474 +0530,
114,0,115,s,1.522372199999154,None,115,0,114,483.90030619999925,,,,,,,,,,,,,,,,,,,,,,,,,,,,,,,,,,,,,,,,,,,,,,,,,,483.88461239999924,483.90030619999925,484.44497819999924,484.38415410000016,484.4420066999992,484.44497819999924,484.44497819999924,484.44497819999924,485.9845749999986,Objects\380b.jpg,post,s,1.522372199999154,None,,,,,,,,00069,001,2026-01-25_16h10.30.795,MST_test,2024.2.0,60.07156926820897,2026-01-25 16h10.36.200474 +0530,
115,0,116,s,3.769730600000912,None,116,0,115,486.0006128999994,,,,,,,,,,,,,,,,,,,,,,,,,,,,,,,,,,,,,,,,,,,,,,,,,,485.98492350000015,486.0006128999994,486.51811499999894,486.48431009999877,486.5155083999998,486.51811499999894,486.51811499999894,486.51811499999894,490.30114909999975,Objects\126b.jpg,pre,s,3.769730600000912,None,,,,,,,,00069,001,2026-01-25_16h10.30.795,MST_test,2024.2.0,60.07156926820897,2026-01-25 16h10.36.200474 +0530,
116,0,117,o,2.254626100000678,None,117,0,116,490.31717860000026,,,,,,,,,,,,,,,,,,,,,,,,,,,,,,,,,,,,,,,,,,,,,,,,,,490.3014955999988,490.31717860000026,490.81720739999946,490.8010240000003,490.80989769999906,490.81720739999946,490.81720739999946,490.81720739999946,493.08425179999904,Objects\026a.jpg,mid,o,2.254626100000678,None,,,,,,,,00069,001,2026-01-25_16h10.30.795,MST_test,2024.2.0,60.07156926820897,2026-01-25 16h10.36.200474 +0530,
117,0,118,o,1.1473241000003327,None,118,0,117,493.1005047999988,,,,,,,,,,,,,,,,,,,,,,,,,,,,,,,,,,,,,,,,,,,,,,,,,,493.08459930000026,493.1005047999988,493.6285216999986,493.5842192,493.6257807999991,493.6285216999986,493.6285216999986,493.6285216999986,494.78458859999955,Objects\216b.jpg,post,o,1.1473241000003327,None,,,,,,,,00069,001,2026-01-25_16h10.30.795,MST_test,2024.2.0,60.07156926820897,2026-01-25 16h10.36.200474 +0530,
118,0,119,s,3.7332760999997845,None,119,0,118,494.80057979999947,,,,,,,,,,,,,,,,,,,,,,,,,,,,,,,,,,,,,,,,,,,,,,,,,,494.7849351999994,494.80057979999947,495.3385980999992,495.28432819999944,495.3361855000003,495.3385980999992,495.3385980999992,495.3385980999992,499.0841849999997,Objects\003b.jpg,mid,s,3.7332760999997845,None,,,,,,,,00069,001,2026-01-25_16h10.30.795,MST_test,2024.2.0,60.07156926820897,2026-01-25 16h10.36.200474 +0530,
119,0,120,s,0.9103692000007868,None,120,0,119,499.1006422999999,,,,,,,,,,,,,,,,,,,,,,,,,,,,,,,,,,,,,,,,,,,,,,,,,,499.0845623999994,499.1006422999999,499.6010293999989,499.58425369999895,499.59361999999965,499.6010293999989,499.6010293999989,499.6010293999989,500.5177070999998,Objects\329a.jpg,pre,s,0.9103692000007868,None,,,,,,,,00069,001,2026-01-25_16h10.30.795,MST_test,2024.2.0,60.07156926820897,2026-01-25 16h10.36.200474 +0530,
120,0,121,s,1.0106565999994928,None,121,0,120,500.533668099999,,,,,,,,,,,,,,,,,,,,,,,,,,,,,,,,,,,,,,,,,,,,,,,,,,500.51805479999894,500.533668099999,,501.01819590000014,501.1295692999993,501.13318939999954,501.13318939999954,501.13318939999954,502.1512279999988,Objects\290b.jpg,mid,s,1.0106565999994928,None,,,,,,,,00069,001,2026-01-25_16h10.30.795,MST_test,2024.2.0,60.07156926820897,2026-01-25 16h10.36.200474 +0530,
121,0,122,n,3.6370876000000862,None,122,0,121,502.16729060000034,,,,,,,,,,,,,,,,,,,,,,,,,,,,,,,,,,,,,,,,,,,,,,,,,,502.1515746999994,502.16729060000034,502.69821279999996,502.65097330000026,502.69563089999974,502.69821279999996,502.69821279999996,502.69821279999996,506.35132129999874,Foils\020b.jpg,none,n,3.6370876000000862,None,,,,,,,,00069,001,2026-01-25_16h10.30.795,MST_test,2024.2.0,60.07156926820897,2026-01-25 16h10.36.200474 +0530,
122,0,123,n,1.6763515999991796,None,123,0,122,506.36719149999954,,,,,,,,,,,,,,,,,,,,,,,,,,,,,,,,,,,,,,,,,,,,,,,,,,506.35174369999913,506.36719149999954,506.8994247999999,506.8510719999995,506.89616079999905,506.8994247999999,506.8994247999999,506.8994247999999,508.5845322999994,Objects\251b.jpg,mid,n,1.6763515999991796,None,,,,,,,,00069,001,2026-01-25_16h10.30.795,MST_test,2024.2.0,60.07156926820897,2026-01-25 16h10.36.200474 +0530,
123,0,124,s,2.2263485999992554,None,124,0,123,508.60073159999956,,,,,,,,,,,,,,,,,,,,,,,,,,,,,,,,,,,,,,,,,,,,,,,,,,508.58489310000004,508.60073159999956,509.10150280000016,509.0842382999999,509.09835380000004,509.10150280000016,509.10150280000016,509.10150280000016,511.334521499999,Objects\227a.jpg,mid,s,2.2263485999992554,None,,,,,,,,00069,001,2026-01-25_16h10.30.795,MST_test,2024.2.0,60.07156926820897,2026-01-25 16h10.36.200474 +0530,
124,0,125,s,1.2951892000000953,None,125,0,124,511.35062519999883,,,,,,,,,,,,,,,,,,,,,,,,,,,,,,,,,,,,,,,,,,,,,,,,,,511.3349038999986,511.35062519999883,511.880649499999,511.83422880000035,511.87768099999994,511.880649499999,511.880649499999,511.880649499999,513.1843215999997,Foils\042a.jpg,none,s,1.2951892000000953,None,,,,,,,,00069,001,2026-01-25_16h10.30.795,MST_test,2024.2.0,60.07156926820897,2026-01-25 16h10.36.200474 +0530,
125,0,126,o,1.1547616999996535,None,126,0,125,513.2006091000003,,,,,,,,,,,,,,,,,,,,,,,,,,,,,,,,,,,,,,,,,,,,,,,,,,513.1846686999997,513.2006091000003,513.7010833999993,513.6842808000001,513.6901586999993,513.7010833999993,513.7010833999993,513.7010833999993,514.8679667999986,Objects\284a.jpg,mid,o,1.1547616999996535,None,,,,,,,,00069,001,2026-01-25_16h10.30.795,MST_test,2024.2.0,60.07156926820897,2026-01-25 16h10.36.200474 +0530,
126,0,127,n,2.4320351999995182,None,127,0,126,514.8838662999988,,,,,,,,,,,,,,,,,,,,,,,,,,,,,,,,,,,,,,,,,,,,,,,,,,514.8683151999994,514.8838662999988,515.4073470999992,515.3675782999999,515.4049742999996,515.4073470999992,515.4073470999992,515.4073470999992,517.8513354999995,Objects\036b.jpg,pre,n,2.4320351999995182,None,,,,,,,,00069,001,2026-01-25_16h10.30.795,MST_test,2024.2.0,60.07156926820897,2026-01-25 16h10.36.200474 +0530,
127,0,128,n,1.1594879000003857,None,128,0,127,517.8672922999995,,,,,,,,,,,,,,,,,,,,,,,,,,,,,,,,,,,,,,,,,,,,,,,,,,517.851713099999,517.8672922999995,518.4077937999991,518.3510633999995,518.4051641999995,518.4077937999991,518.4077937999991,518.4077937999991,519.5680248999997,Foils\049a.jpg,none,n,1.1594879000003857,None,,,,,,,,00069,001,2026-01-25_16h10.30.795,MST_test,2024.2.0,60.07156926820897,2026-01-25 16h10.36.200474 +0530,
128,0,129,o,1.618904200000543,None,129,0,128,519.5838915999993,,,,,,,,,,,,,,,,,,,,,,,,,,,,,,,,,,,,,,,,,,,,,,,,,,519.5683718,519.5838915999993,520.0843891999994,520.0676848000003,520.0760961999986,520.0843891999994,520.0843891999994,520.0843891999994,521.7179803999989,Objects\331a.jpg,mid,o,1.618904200000543,None,,,,,,,,00069,001,2026-01-25_16h10.30.795,MST_test,2024.2.0,60.07156926820897,2026-01-25 16h10.36.200474 +0530,
129,0,130,o,1.3657891000002564,None,130,0,129,521.7338774,,,,,,,,,,,,,,,,,,,,,,,,,,,,,,,,,,,,,,,,,,,,,,,,,,521.7183312999987,521.7338774,522.2340339000002,522.2178296999991,522.2295821999996,522.2340339000002,522.2340339000002,522.2340339000002,523.6013770999998,Objects\203a.jpg,post,o,1.3657891000002564,None,,,,,,,,00069,001,2026-01-25_16h10.30.795,MST_test,2024.2.0,60.07156926820897,2026-01-25 16h10.36.200474 +0530,
130,0,131,n,1.3982531000001472,None,131,0,130,523.6173297999994,,,,,,,,,,,,,,,,,,,,,,,,,,,,,,,,,,,,,,,,,,,,,,,,,,523.6017923999989,523.6173297999994,,524.1017529000001,524.1340542999988,524.1369489999997,524.1369489999997,524.1369489999997,525.5512583999989,Foils\097a.jpg,none,n,1.3982531000001472,None,,,,,,,,00069,001,2026-01-25_16h10.30.795,MST_test,2024.2.0,60.07156926820897,2026-01-25 16h10.36.200474 +0530,
131,0,132,o,1.2282190999994782,None,132,0,131,525.5669760000001,,,,,,,,,,,,,,,,,,,,,,,,,,,,,,,,,,,,,,,,,,,,,,,,,,525.5516969,525.5669760000001,526.0909722999986,526.0509284999989,526.0883217999999,526.0909722999986,526.0909722999986,526.0909722999986,527.3344868999993,Objects\154b.jpg,post,o,1.2282190999994782,None,,,,,,,,00069,001,2026-01-25_16h10.30.795,MST_test,2024.2.0,60.07156926820897,2026-01-25 16h10.36.200474 +0530,
132,0,133,o,1.0683286000003136,None,133,0,132,527.3505616000002,,,,,,,,,,,,,,,,,,,,,,,,,,,,,,,,,,,,,,,,,,,,,,,,,,527.3348366999999,527.3505616000002,527.850827799999,527.8343807000001,527.8411157999999,527.850827799999,527.850827799999,527.850827799999,528.9346643999997,Objects\037a.jpg,post,o,1.0683286000003136,None,,,,,,,,00069,001,2026-01-25_16h10.30.795,MST_test,2024.2.0,60.07156926820897,2026-01-25 16h10.36.200474 +0530,
133,0,134,n,1.2397178999999596,None,134,0,133,528.9505595999999,,,,,,,,,,,,,,,,,,,,,,,,,,,,,,,,,,,,,,,,,,,,,,,,,,528.9350417999995,528.9505595999999,529.4635890999998,529.4343384999993,529.4616368999996,529.4635890999998,529.4635890999998,529.4635890999998,530.7178752999989,Foils\082a.jpg,none,n,1.2397178999999596,None,,,,,,,,00069,001,2026-01-25_16h10.30.795,MST_test,2024.2.0,60.07156926820897,2026-01-25 16h10.36.200474 +0530,
134,0,135,n,0.9101456999997026,None,135,0,134,530.7338959999997,,,,,,,,,,,,,,,,,,,,,,,,,,,,,,,,,,,,,,,,,,,,,,,,,,530.7182331000004,530.7338959999997,531.2490289999987,531.2178093999992,531.2465507999987,531.2490289999987,531.2490289999987,531.2490289999987,532.1679764,Foils\057a.jpg,none,n,0.9101456999997026,None,,,,,,,,00069,001,2026-01-25_16h10.30.795,MST_test,2024.2.0,60.07156926820897,2026-01-25 16h10.36.200474 +0530,
135,0,136,n,0.9714186000001064,None,136,0,135,532.1839806999997,,,,,,,,,,,,,,,,,,,,,,,,,,,,,,,,,,,,,,,,,,,,,,,,,,532.1683524,532.1839806999997,532.700449599999,532.6674098999993,532.6976361999987,532.700449599999,532.700449599999,532.700449599999,533.6846301999994,Foils\106a.jpg,none,n,0.9714186000001064,None,,,,,,,,00069,001,2026-01-25_16h10.30.795,MST_test,2024.2.0,60.07156926820897,2026-01-25 16h10.36.200474 +0530,
136,0,137,n,0.8867139000012685,None,137,0,136,533.7005825999986,,,,,,,,,,,,,,,,,,,,,,,,,,,,,,,,,,,,,,,,,,,,,,,,,,533.6850697999998,533.7005825999986,534.2007999999987,534.1843589,534.1923870999999,534.2007999999987,534.2007999999987,534.2007999999987,535.1012066999992,Objects\140a.jpg,post,n,0.8867139000012685,None,,,,,,,,00069,001,2026-01-25_16h10.30.795,MST_test,2024.2.0,60.07156926820897,2026-01-25 16h10.36.200474 +0530,
137,0,138,s,1.6280014999993,None,138,0,137,535.1172902999988,,,,,,,,,,,,,,,,,,,,,,,,,,,,,,,,,,,,,,,,,,,,,,,,,,535.1015478999998,535.1172902999988,535.6598349999986,535.6006927999988,535.657142,535.6598349999986,535.6598349999986,535.6598349999986,537.3012631999991,Objects\136b.jpg,pre,s,1.6280014999993,None,,,,,,,,00069,001,2026-01-25_16h10.30.795,MST_test,2024.2.0,60.07156926820897,2026-01-25 16h10.36.200474 +0530,
138,0,139,n,1.0776650000007066,None,139,0,138,537.3172355999995,,,,,,,,,,,,,,,,,,,,,,,,,,,,,,,,,,,,,,,,,,,,,,,,,,537.3016121,537.3172355999995,537.8175102999994,537.8010123999993,537.8075071999992,537.8175102999994,537.8175102999994,537.8175102999994,538.9010832999993,Objects\317a.jpg,pre,n,1.0776650000007066,None,,,,,,,,00069,001,2026-01-25_16h10.30.795,MST_test,2024.2.0,60.07156926820897,2026-01-25 16h10.36.200474 +0530,
139,0,140,n,1.5101020000001881,None,140,0,139,538.9165094999989,,,,,,,,,,,,,,,,,,,,,,,,,,,,,,,,,,,,,,,,,,,,,,,,,,538.9014408999992,538.9165094999989,539.4177567999996,539.4010285999993,539.4092368999991,539.4177567999996,539.4177567999996,539.4177567999996,540.9346108999998,Objects\220a.jpg,post,n,1.5101020000001881,None,,,,,,,,00069,001,2026-01-25_16h10.30.795,MST_test,2024.2.0,60.07156926820897,2026-01-25 16h10.36.200474 +0530,
140,0,141,n,0.8796338000011019,None,141,0,140,540.9503127999997,,,,,,,,,,,,,,,,,,,,,,,,,,,,,,,,,,,,,,,,,,,,,,,,,,540.9349552000003,540.9503127999997,541.4956186,541.4343707999997,541.4929173,541.4956186,541.4956186,541.4956186,542.3845337000002,Foils\098a.jpg,none,n,0.8796338000011019,None,,,,,,,,00069,001,2026-01-25_16h10.30.795,MST_test,2024.2.0,60.07156926820897,2026-01-25 16h10.36.200474 +0530,
141,0,142,n,0.8106523000005836,None,142,0,141,542.4006477000003,,,,,,,,,,,,,,,,,,,,,,,,,,,,,,,,,,,,,,,,,,,,,,,,,,542.3848810999989,542.4006477000003,542.9012253000001,542.8842991999991,542.8927733,542.9012253000001,542.9012253000001,542.9012253000001,543.7179846999989,Objects\188a.jpg,mid,n,0.8106523000005836,None,,,,,,,,00069,001,2026-01-25_16h10.30.795,MST_test,2024.2.0,60.07156926820897,2026-01-25 16h10.36.200474 +0530,
142,0,143,s,3.147632500000327,None,143,0,142,543.7339104999992,,,,,,,,,,,,,,,,,,,,,,,,,,,,,,,,,,,,,,,,,,,,,,,,,,543.7183411999995,543.7339104999992,544.2596785999995,544.2176658999997,544.2575024999987,544.2596785999995,544.2596785999995,544.2596785999995,547.4179525999989,Objects\038b.jpg,post,s,3.147632500000327,None,,,,,,,,00069,001,2026-01-25_16h10.30.795,MST_test,2024.2.0,60.07156926820897,2026-01-25 16h10.36.200474 +0530,
143,0,144,s,1.8711961999997584,None,144,0,143,547.4339144999994,,,,,,,,,,,,,,,,,,,,,,,,,,,,,,,,,,,,,,,,,,,,,,,,,,547.4183188999996,547.4339144999994,547.9679794000003,547.9175739999991,547.965164199999,547.9679794000003,547.9679794000003,547.9679794000003,549.8519990999994,Objects\277b.jpg,mid,s,1.8711961999997584,None,,,,,,,,00069,001,2026-01-25_16h10.30.795,MST_test,2024.2.0,60.07156926820897,2026-01-25 16h10.36.200474 +0530,
144,0,145,s,1.2111323999997694,None,145,0,144,549.8673142999996,,,,,,,,,,,,,,,,,,,,,,,,,,,,,,,,,,,,,,,,,,,,,,,,,,549.8523554000003,549.8673142999996,550.3887533999987,550.3510391999989,550.3862138999993,550.3887533999987,550.3887533999987,550.3887533999987,551.6013724999993,Objects\212b.jpg,mid,s,1.2111323999997694,None,,,,,,,,00069,001,2026-01-25_16h10.30.795,MST_test,2024.2.0,60.07156926820897,2026-01-25 16h10.36.200474 +0530,
145,0,146,s,0.7785334999989573,None,146,0,145,551.6173140999999,,,,,,,,,,,,,,,,,,,,,,,,,,,,,,,,,,,,,,,,,,,,,,,,,,551.6017181999996,551.6173140999999,552.1173050999987,552.1008077999995,552.1095693999996,552.1173050999987,552.1173050999987,552.1173050999987,552.9012217999989,Objects\167a.jpg,mid,s,0.7785334999989573,None,,,,,,,,00069,001,2026-01-25_16h10.30.795,MST_test,2024.2.0,60.07156926820897,2026-01-25 16h10.36.200474 +0530,
146,0,147,o,1.1817773999991914,None,147,0,146,552.9173288999991,,,,,,,,,,,,,,,,,,,,,,,,,,,,,,,,,,,,,,,,,,,,,,,,,,552.9015764999986,552.9173288999991,553.4176470999992,553.400924399999,553.4069015999994,553.4176470999992,553.4176470999992,553.4176470999992,554.6011569999991,Objects\056a.jpg,post,o,1.1817773999991914,None,,,,,,,,00069,001,2026-01-25_16h10.30.795,MST_test,2024.2.0,60.07156926820897,2026-01-25 16h10.36.200474 +0530,
147,0,148,o,1.3922198000000208,None,148,0,147,554.6171503999994,,,,,,,,,,,,,,,,,,,,,,,,,,,,,,,,,,,,,,,,,,,,,,,,,,554.6015167999994,554.6171503999994,555.2232542000002,555.1010349999997,555.2208762999999,555.2232542000002,555.2232542000002,555.2232542000002,556.6176171999996,Objects\298b.jpg,pre,o,1.3922198000000208,None,,,,,,,,00069,001,2026-01-25_16h10.30.795,MST_test,2024.2.0,60.07156926820897,2026-01-25 16h10.36.200474 +0530,
148,0,149,n,0.9372110000003886,None,149,0,148,556.6338013999994,,,,,,,,,,,,,,,,,,,,,,,,,,,,,,,,,,,,,,,,,,,,,,,,,,556.6179796999986,556.6338013999994,557.1343615999995,557.1177188000001,557.1273337999992,557.1343615999995,557.1343615999995,557.1343615999995,558.0845681999999,Objects\282a.jpg,post,n,0.9372110000003886,None,,,,,,,,00069,001,2026-01-25_16h10.30.795,MST_test,2024.2.0,60.07156926820897,2026-01-25 16h10.36.200474 +0530,
149,0,150,n,1.4359791000006226,None,150,0,149,558.1006708999994,,,,,,,,,,,,,,,,,,,,,,,,,,,,,,,,,,,,,,,,,,,,,,,,,,558.0849213999991,558.1006708999994,558.6193152999986,558.5843189999996,558.6165203,558.6193152999986,558.6193152999986,558.6193152999986,560.0679686999993,Objects\249b.jpg,pre,n,1.4359791000006226,None,,,,,,,,00069,001,2026-01-25_16h10.30.795,MST_test,2024.2.0,60.07156926820897,2026-01-25 16h10.36.200474 +0530,
,,,,,,,,,,,,,,,,,,,,,,,,,,,,,,,,,,,,,,,,,,,,,,,,,,,,,,,,,,,,,,,,,,,,,,,,,560.068199899999,560.0839171999996,560.0839171999996,561.5008598999993,space,1.4032705000008718,None,00069,001,2026-01-25_16h10.30.795,MST_test,2024.2.0,60.07156926820897,2026-01-25 16h10.36.200474 +0530,
