thisN,thisTrialN,thisRepN,key_resp_3.keys,key_resp_3.rt,key_resp_3.duration,trials.thisRepN,trials.thisTrialN,trials.thisN,thisRow.t,notes,intro_page.started,text.started,key_resp.started,intro_page.stopped,key_resp.keys,key_resp.rt,key_resp.duration,instructions.started,text_2.started,key_resp_2.started,instructions.stopped,key_resp_2.keys,key_resp_2.rt,key_resp_2.duration,demo1.started,image_1.started,image_2.started,text_7.started,key_resp_6.started,text_9.started,demo1.stopped,key_resp_6.keys,key_resp_6.rt,key_resp_6.duration,demo3.started,image_5.started,image_6.started,text_11.started,text_12.started,key_resp_8.started,demo3.stopped,key_resp_8.keys,key_resp_8.rt,key_resp_8.duration,demo_conclusion.started,text_13.started,key_resp_9.started,demo_conclusion.stopped,key_resp_9.keys,key_resp_9.rt,key_resp_9.duration,start_test.started,text_6.started,key_resp_5.started,start_test.stopped,key_resp_5.keys,key_resp_5.rt,key_resp_5.duration,ISI.started,text_4.started,ISI.stopped,routine_1.started,image.started,text_3.started,key_resp_3.started,routine_1.stopped,image_path,position_of_stimuli,trials.key_resp_3.keys,trials.key_resp_3.rt,trials.key_resp_3.duration,End_page.started,text_5.started,key_resp_4.started,End_page.stopped,key_resp_4.keys,key_resp_4.rt,key_resp_4.duration,participant,session,date,expName,psychopyVersion,frameRate,expStart,
,,,,,,,,,,,0.017176599998492748,0.03340570000000298,0.03340570000000298,1.7931895999936387,space,1.7440093000186607,None,,,,,,,,,,,,,,,,,,,,,,,,,,,,,,,,,,,,,,,,,,,,,,,,,,,,,,,,,,,,,,00060,001,2026-01-19_17h34.35.123,MST_test,2024.2.0,59.83495127443477,2026-01-19 17h34.48.893197 +0530,
,,,,,,,,,,,,,,,,,,1.7932245999691077,1.80784559994936,1.80784559994936,9.937487999966834,space,8.121682800003327,None,,,,,,,,,,,,,,,,,,,,,,,,,,,,,,,,,,,,,,,,,,,,,,,,,,,,,,,00060,001,2026-01-19_17h34.35.123,MST_test,2024.2.0,59.83495127443477,2026-01-19 17h34.48.893197 +0530,
,,,,,,,,,,,,,,,,,,,,,,,,,9.937517099955585,9.953194000001531,9.953194000001531,9.953194000001531,9.953194000001531,9.953194000001531,14.20220929995412,space,4.248218100052327,None,,,,,,,,,,,,,,,,,,,,,,,,,,,,,,,,,,,,,,,,,,,,,00060,001,2026-01-19_17h34.35.123,MST_test,2024.2.0,59.83495127443477,2026-01-19 17h34.48.893197 +0530,
,,,,,,,,,,,,,,,,,,,,,,,,,,,,,,,,,,,14.202239299949724,14.2183424999821,14.2183424999821,14.2183424999821,14.2183424999821,14.2183424999821,16.310059099982027,space,2.0883358000428416,None,,,,,,,,,,,,,,,,,,,,,,,,,,,,,,,,,,,00060,001,2026-01-19_17h34.35.123,MST_test,2024.2.0,59.83495127443477,2026-01-19 17h34.48.893197 +0530,
,,,,,,,,,,,,,,,,,,,,,,,,,,,,,,,,,,,,,,,,,,,,,16.310090199986007,16.325762899999972,16.325762899999972,27.582236499991268,space,11.244400699972175,None,,,,,,,,,,,,,,,,,,,,,,,,,,,,00060,001,2026-01-19_17h34.35.123,MST_test,2024.2.0,59.83495127443477,2026-01-19 17h34.48.893197 +0530,
,,,,,,,,,,,,,,,,,,,,,,,,,,,,,,,,,,,,,,,,,,,,,,,,,,,,27.582273399981204,27.615167599986307,27.615167599986307,40.10952009999892,space,12.482298700022511,None,,,,,,,,,,,,,,,,,,,,,00060,001,2026-01-19_17h34.35.123,MST_test,2024.2.0,59.83495127443477,2026-01-19 17h34.48.893197 +0530,
0,0,1,s,5.028533500037156,None,1,0,0,40.12553779996233,,,,,,,,,,,,,,,,,,,,,,,,,,,,,,,,,,,,,,,,,,,,,,,,,,40.112977999961004,40.12553779996233,40.61106009996729,40.63019559998065,40.644891000003554,40.644891000003554,40.644891000003554,45.67924819997279,Objects\130b.jpg,post,s,5.028533500037156,None,,,,,,,,00060,001,2026-01-19_17h34.35.123,MST_test,2024.2.0,59.83495127443477,2026-01-19 17h34.48.893197 +0530,
1,0,2,n,12.51641149999341,None,2,0,1,45.69503619999159,,,,,,,,,,,,,,,,,,,,,,,,,,,,,,,,,,,,,,,,,,,,,,,,,,45.679345799959265,45.69503619999159,46.180237900000066,46.18995119997999,46.21353759994963,46.21353759994963,46.21353759994963,58.74160989996744,Foils\098a.jpg,none,n,12.51641149999341,None,,,,,,,,00060,001,2026-01-19_17h34.35.123,MST_test,2024.2.0,59.83495127443477,2026-01-19 17h34.48.893197 +0530,
2,0,3,s,2.8456875000265427,None,3,0,2,58.75756379996892,,,,,,,,,,,,,,,,,,,,,,,,,,,,,,,,,,,,,,,,,,,,,,,,,,58.741712799994275,58.75756379996892,59.24257849995047,59.25212709995685,59.2760544999619,59.2760544999619,59.2760544999619,62.137171599955764,Objects\014b.jpg,pre,s,2.8456875000265427,None,,,,,,,,00060,001,2026-01-19_17h34.35.123,MST_test,2024.2.0,59.83495127443477,2026-01-19 17h34.48.893197 +0530,
3,0,4,o,1.5310572999878787,None,4,0,3,62.15251439996064,,,,,,,,,,,,,,,,,,,,,,,,,,,,,,,,,,,,,,,,,,,,,,,,,,62.13727819995256,62.15251439996064,62.63746849994641,62.64846899994882,62.67095459997654,62.67095459997654,62.67095459997654,64.2103405999951,Objects\117b.jpg,pre,o,1.5310572999878787,None,,,,,,,,00060,001,2026-01-19_17h34.35.123,MST_test,2024.2.0,59.83495127443477,2026-01-19 17h34.48.893197 +0530,
4,0,5,o,0.9764968000235967,None,5,0,4,64.22632749995682,,,,,,,,,,,,,,,,,,,,,,,,,,,,,,,,,,,,,,,,,,,,,,,,,,64.21044249995612,64.22632749995682,64.71167950000381,64.71714139997493,64.72887739998987,64.72887739998987,64.72887739998987,65.71588799997699,Objects\200a.jpg,post,o,0.9764968000235967,None,,,,,,,,00060,001,2026-01-19_17h34.35.123,MST_test,2024.2.0,59.83495127443477,2026-01-19 17h34.48.893197 +0530,
5,0,6,o,0.8322903999942355,None,6,0,5,65.73172239999985,,,,,,,,,,,,,,,,,,,,,,,,,,,,,,,,,,,,,,,,,,,,,,,,,,65.71600269997725,65.73172239999985,66.2169251999585,66.22413999994751,66.23332929995377,66.23332929995377,66.23332929995377,67.07028439996066,Objects\369a.jpg,pre,o,0.8322903999942355,None,,,,,,,,00060,001,2026-01-19_17h34.35.123,MST_test,2024.2.0,59.83495127443477,2026-01-19 17h34.48.893197 +0530,
6,0,7,s,2.3977580000064336,None,7,0,6,67.08643529994879,,,,,,,,,,,,,,,,,,,,,,,,,,,,,,,,,,,,,,,,,,,,,,,,,,67.07037699996727,67.08643529994879,67.57139699999243,67.581469799974,67.60498679999728,67.60498679999728,67.60498679999728,70.01383660000283,Objects\092b.jpg,post,s,2.3977580000064336,None,,,,,,,,00060,001,2026-01-19_17h34.35.123,MST_test,2024.2.0,59.83495127443477,2026-01-19 17h34.48.893197 +0530,
7,0,8,n,3.4059161000186577,None,8,0,7,70.03024599998025,,,,,,,,,,,,,,,,,,,,,,,,,,,,,,,,,,,,,,,,,,,,,,,,,,70.01393459999235,70.03024599998025,70.51521759998286,70.52208839997184,70.53150489996187,70.53150489996187,70.53150489996187,73.944414699974,Objects\233a.jpg,pre,n,3.4059161000186577,None,,,,,,,,00060,001,2026-01-19_17h34.35.123,MST_test,2024.2.0,59.83495127443477,2026-01-19 17h34.48.893197 +0530,
8,0,9,o,1.6192184999817982,None,9,0,8,73.96040629997151,,,,,,,,,,,,,,,,,,,,,,,,,,,,,,,,,,,,,,,,,,,,,,,,,,73.94450639997376,73.96040629997151,74.44601499999408,74.45219499996165,74.4621208999888,74.4621208999888,74.4621208999888,76.08518499997444,Objects\292a.jpg,post,o,1.6192184999817982,None,,,,,,,,00060,001,2026-01-19_17h34.35.123,MST_test,2024.2.0,59.83495127443477,2026-01-19 17h34.48.893197 +0530,
9,0,10,o,0.7263794000027701,None,10,0,9,76.10123400000157,,,,,,,,,,,,,,,,,,,,,,,,,,,,,,,,,,,,,,,,,,,,,,,,,,76.08528129995102,76.10123400000157,76.58644179999828,76.59467429999495,76.60296119999839,76.60296119999839,76.60296119999839,77.33966719999444,Objects\324a.jpg,mid,o,0.7263794000027701,None,,,,,,,,00060,001,2026-01-19_17h34.35.123,MST_test,2024.2.0,59.83495127443477,2026-01-19 17h34.48.893197 +0530,
10,0,11,o,0.7674229999538511,None,11,0,10,77.35575849999441,,,,,,,,,,,,,,,,,,,,,,,,,,,,,,,,,,,,,,,,,,,,,,,,,,77.33976889995392,77.35575849999441,77.84070569998585,77.84952039999189,77.87419010000303,77.87419010000303,77.87419010000303,78.64457839995157,Objects\003a.jpg,post,o,0.7674229999538511,None,,,,,,,,00060,001,2026-01-19_17h34.35.123,MST_test,2024.2.0,59.83495127443477,2026-01-19 17h34.48.893197 +0530,
11,0,12,o,0.7200167999835685,None,12,0,11,78.66073279996635,,,,,,,,,,,,,,,,,,,,,,,,,,,,,,,,,,,,,,,,,,,,,,,,,,78.64468869997654,78.66073279996635,79.14539289998356,79.14875709998887,79.1619073000038,79.1619073000038,79.1619073000038,79.89854369999375,Objects\161a.jpg,pre,o,0.7200167999835685,None,,,,,,,,00060,001,2026-01-19_17h34.35.123,MST_test,2024.2.0,59.83495127443477,2026-01-19 17h34.48.893197 +0530,
12,0,13,n,1.0482400000328198,None,13,0,12,79.91470779996598,,,,,,,,,,,,,,,,,,,,,,,,,,,,,,,,,,,,,,,,,,,,,,,,,,79.89864269999089,79.91470779996598,80.39966249995632,80.40959019999718,80.43315359996632,80.43315359996632,80.43315359996632,81.48751559999073,Foils\009a.jpg,none,n,1.0482400000328198,None,,,,,,,,00060,001,2026-01-19_17h34.35.123,MST_test,2024.2.0,59.83495127443477,2026-01-19 17h34.48.893197 +0530,
13,0,14,o,1.1483771000057459,None,14,0,13,81.503750999982,,,,,,,,,,,,,,,,,,,,,,,,,,,,,,,,,,,,,,,,,,,,,,,,,,81.48761949996697,81.503750999982,81.98855339997681,81.99093839997659,82.00541639997391,82.00541639997391,82.00541639997391,83.1603538999916,Objects\347a.jpg,pre,o,1.1483771000057459,None,,,,,,,,00060,001,2026-01-19_17h34.35.123,MST_test,2024.2.0,59.83495127443477,2026-01-19 17h34.48.893197 +0530,
14,0,15,o,0.8520719000371173,None,15,0,14,83.17613300000085,,,,,,,,,,,,,,,,,,,,,,,,,,,,,,,,,,,,,,,,,,,,,,,,,,83.16045149997808,83.17613300000085,83.66108849999728,83.66371549997712,83.67784789996222,83.67784789996222,83.67784789996222,84.53152259998024,Objects\280a.jpg,mid,o,0.8520719000371173,None,,,,,,,,00060,001,2026-01-19_17h34.35.123,MST_test,2024.2.0,59.83495127443477,2026-01-19 17h34.48.893197 +0530,
15,0,16,o,1.0000154000008479,None,16,0,15,84.54767529998207,,,,,,,,,,,,,,,,,,,,,,,,,,,,,,,,,,,,,,,,,,,,,,,,,,84.53162529994734,84.54767529998207,85.03255619999254,85.03553529997589,85.04943899996579,85.04943899996579,85.04943899996579,86.05329619999975,Objects\145a.jpg,mid,o,1.0000154000008479,None,,,,,,,,00060,001,2026-01-19_17h34.35.123,MST_test,2024.2.0,59.83495127443477,2026-01-19 17h34.48.893197 +0530,
16,0,17,s,4.325109600031283,None,17,0,16,86.06947469996521,,,,,,,,,,,,,,,,,,,,,,,,,,,,,,,,,,,,,,,,,,,,,,,,,,86.05339759995695,86.06947469996521,86.55469269998139,86.5650820999872,86.58792489999905,86.58792489999905,86.58792489999905,90.92104909999762,Foils\066a.jpg,none,s,4.325109600031283,None,,,,,,,,00060,001,2026-01-19_17h34.35.123,MST_test,2024.2.0,59.83495127443477,2026-01-19 17h34.48.893197 +0530,
17,0,18,n,3.370770799985621,None,18,0,17,90.93692019995069,,,,,,,,,,,,,,,,,,,,,,,,,,,,,,,,,,,,,,,,,,,,,,,,,,90.9211873000022,90.93692019995069,91.42185789998621,91.43932449998101,91.45495579997078,91.45495579997078,91.45495579997078,94.83427519997349,Objects\243b.jpg,pre,n,3.370770799985621,None,,,,,,,,00060,001,2026-01-19_17h34.35.123,MST_test,2024.2.0,59.83495127443477,2026-01-19 17h34.48.893197 +0530,
18,0,19,o,1.3929519000230357,None,19,0,18,94.85033960000146,,,,,,,,,,,,,,,,,,,,,,,,,,,,,,,,,,,,,,,,,,,,,,,,,,94.83437209995463,94.85033960000146,95.33591869997326,95.34481379995123,95.3692960999906,95.3692960999906,95.3692960999906,96.77436209999723,Objects\213a.jpg,pre,o,1.3929519000230357,None,,,,,,,,00060,001,2026-01-19_17h34.35.123,MST_test,2024.2.0,59.83495127443477,2026-01-19 17h34.48.893197 +0530,
19,0,20,n,4.3899182000313886,None,20,0,19,96.79035219998332,,,,,,,,,,,,,,,,,,,,,,,,,,,,,,,,,,,,,,,,,,,,,,,,,,96.77445549995173,96.79035219998332,97.27576579997549,97.28280499996617,97.29185469995718,97.29185469995718,97.29185469995718,101.6915223999531,Objects\269a.jpg,post,n,4.3899182000313886,None,,,,,,,,00060,001,2026-01-19_17h34.35.123,MST_test,2024.2.0,59.83495127443477,2026-01-19 17h34.48.893197 +0530,
20,0,21,o,1.3114332999684848,None,21,0,20,101.70756529999198,,,,,,,,,,,,,,,,,,,,,,,,,,,,,,,,,,,,,,,,,,,,,,,,,,101.69161979999626,101.70756529999198,102.19279139995342,102.20195119996788,102.2261386999744,102.2261386999744,102.2261386999744,103.54826249997132,Objects\223a.jpg,pre,o,1.3114332999684848,None,,,,,,,,00060,001,2026-01-19_17h34.35.123,MST_test,2024.2.0,59.83495127443477,2026-01-19 17h34.48.893197 +0530,
21,0,22,o,1.118759500037413,None,22,0,21,103.56409289996373,,,,,,,,,,,,,,,,,,,,,,,,,,,,,,,,,,,,,,,,,,,,,,,,,,103.54835859994637,103.56409289996373,104.04993709997507,104.05966389999958,104.08252119994722,104.08252119994722,104.08252119994722,105.2037637999747,Objects\068b.jpg,mid,o,1.118759500037413,None,,,,,,,,00060,001,2026-01-19_17h34.35.123,MST_test,2024.2.0,59.83495127443477,2026-01-19 17h34.48.893197 +0530,
22,0,23,s,3.1434336999664083,None,23,0,22,105.2198712999816,,,,,,,,,,,,,,,,,,,,,,,,,,,,,,,,,,,,,,,,,,,,,,,,,,105.20385779999197,105.2198712999816,105.7051176999812,105.71794169995701,105.7383127999492,105.7383127999492,105.7383127999492,108.8834926999989,Objects\247b.jpg,mid,s,3.1434336999664083,None,,,,,,,,00060,001,2026-01-19_17h34.35.123,MST_test,2024.2.0,59.83495127443477,2026-01-19 17h34.48.893197 +0530,
23,0,24,n,1.2078178999945521,None,24,0,23,108.8995965999784,,,,,,,,,,,,,,,,,,,,,,,,,,,,,,,,,,,,,,,,,,,,,,,,,,108.88358859997243,108.8995965999784,109.38451299996814,109.39877069997601,109.41798509994987,109.41798509994987,109.41798509994987,110.63962809997611,Foils\082a.jpg,none,n,1.2078178999945521,None,,,,,,,,00060,001,2026-01-19_17h34.35.123,MST_test,2024.2.0,59.83495127443477,2026-01-19 17h34.48.893197 +0530,
24,0,25,o,1.09176620002836,None,25,0,24,110.65570669999579,,,,,,,,,,,,,,,,,,,,,,,,,,,,,,,,,,,,,,,,,,,,,,,,,,110.63972330000252,110.65570669999579,111.14064519997919,111.14333459996851,111.15742010000395,111.15742010000395,111.15742010000395,112.26200909999898,Objects\076a.jpg,mid,o,1.09176620002836,None,,,,,,,,00060,001,2026-01-19_17h34.35.123,MST_test,2024.2.0,59.83495127443477,2026-01-19 17h34.48.893197 +0530,
25,0,26,o,0.9735250999801792,None,26,0,25,112.27804039994953,,,,,,,,,,,,,,,,,,,,,,,,,,,,,,,,,,,,,,,,,,,,,,,,,,112.26210549997631,112.27804039994953,112.76313379994826,112.7657677999814,112.7796401999658,112.7796401999658,112.7796401999658,113.76714879996143,Objects\169a.jpg,mid,o,0.9735250999801792,None,,,,,,,,00060,001,2026-01-19_17h34.35.123,MST_test,2024.2.0,59.83495127443477,2026-01-19 17h34.48.893197 +0530,
26,0,27,o,2.156692299991846,None,27,0,26,113.78320809995057,,,,,,,,,,,,,,,,,,,,,,,,,,,,,,,,,,,,,,,,,,,,,,,,,,113.76724309998099,113.78320809995057,114.26839589996962,114.27104859997053,114.28491319995373,114.28491319995373,114.28491319995373,116.44355039997026,Objects\301a.jpg,post,o,2.156692299991846,None,,,,,,,,00060,001,2026-01-19_17h34.35.123,MST_test,2024.2.0,59.83495127443477,2026-01-19 17h34.48.893197 +0530,
27,0,28,o,0.6883430000161752,None,28,0,27,116.45923509995919,,,,,,,,,,,,,,,,,,,,,,,,,,,,,,,,,,,,,,,,,,,,,,,,,,116.44364549999591,116.45923509995919,116.94443429994863,116.95373719994677,116.97767429996748,116.97767429996748,116.97767429996748,117.68075329996645,Objects\064b.jpg,mid,o,0.6883430000161752,None,,,,,,,,00060,001,2026-01-19_17h34.35.123,MST_test,2024.2.0,59.83495127443477,2026-01-19 17h34.48.893197 +0530,
28,0,29,s,1.3298020000220276,None,29,0,28,117.69711189996451,,,,,,,,,,,,,,,,,,,,,,,,,,,,,,,,,,,,,,,,,,,,,,,,,,117.68085639999481,117.69711189996451,118.18202209996525,118.1987149999477,118.21546969999326,118.21546969999326,118.21546969999326,119.55458909994923,Objects\358b.jpg,post,s,1.3298020000220276,None,,,,,,,,00060,001,2026-01-19_17h34.35.123,MST_test,2024.2.0,59.83495127443477,2026-01-19 17h34.48.893197 +0530,
29,0,30,o,1.7531444000196643,None,30,0,29,119.57118599995738,,,,,,,,,,,,,,,,,,,,,,,,,,,,,,,,,,,,,,,,,,,,,,,,,,119.55469219997758,119.57118599995738,120.05547419999493,120.07003289996646,120.08869549998781,120.08869549998781,120.08869549998781,121.84538269997574,Objects\040b.jpg,mid,o,1.7531444000196643,None,,,,,,,,00060,001,2026-01-19_17h34.35.123,MST_test,2024.2.0,59.83495127443477,2026-01-19 17h34.48.893197 +0530,
30,0,31,o,2.4535008000093512,None,31,0,30,121.86164629994892,,,,,,,,,,,,,,,,,,,,,,,,,,,,,,,,,,,,,,,,,,,,,,,,,,121.84547979995841,121.86164629994892,122.347257299989,122.35677519999444,122.3799294999917,122.3799294999917,122.3799294999917,124.83932289999211,Objects\278a.jpg,pre,o,2.4535008000093512,None,,,,,,,,00060,001,2026-01-19_17h34.35.123,MST_test,2024.2.0,59.83495127443477,2026-01-19 17h34.48.893197 +0530,
31,0,32,o,1.644730800006073,None,32,0,31,124.85530249995645,,,,,,,,,,,,,,,,,,,,,,,,,,,,,,,,,,,,,,,,,,,,,,,,,,124.83941729995422,124.85530249995645,125.34065999998711,125.34774509997806,125.35697099997196,125.35697099997196,125.35697099997196,127.01364249998005,Objects\035a.jpg,pre,o,1.644730800006073,None,,,,,,,,00060,001,2026-01-19_17h34.35.123,MST_test,2024.2.0,59.83495127443477,2026-01-19 17h34.48.893197 +0530,
32,0,33,o,2.653600200021174,None,33,0,32,127.02971439994872,,,,,,,,,,,,,,,,,,,,,,,,,,,,,,,,,,,,,,,,,,,,,,,,,,127.01383239997085,127.02971439994872,127.5146839999943,127.51717339997413,127.53142989997286,127.53142989997286,127.53142989997286,130.19152789999498,Objects\013a.jpg,mid,o,2.653600200021174,None,,,,,,,,00060,001,2026-01-19_17h34.35.123,MST_test,2024.2.0,59.83495127443477,2026-01-19 17h34.48.893197 +0530,
33,0,34,o,0.7877671999740414,None,34,0,33,130.20749369997066,,,,,,,,,,,,,,,,,,,,,,,,,,,,,,,,,,,,,,,,,,,,,,,,,,130.1916224999586,130.20749369997066,130.6924509999808,130.71066209999844,130.72595329995966,130.72595329995966,130.72595329995966,131.5294856999535,Objects\221b.jpg,pre,o,0.7877671999740414,None,,,,,,,,00060,001,2026-01-19_17h34.35.123,MST_test,2024.2.0,59.83495127443477,2026-01-19 17h34.48.893197 +0530,
34,0,35,s,2.210141899995506,None,35,0,34,131.54558829998132,,,,,,,,,,,,,,,,,,,,,,,,,,,,,,,,,,,,,,,,,,,,,,,,,,131.529581699986,131.54558829998132,132.03079399996204,132.0366945999558,132.04710299998987,132.04710299998987,132.04710299998987,134.27246859995648,Objects\364a.jpg,post,s,2.210141899995506,None,,,,,,,,00060,001,2026-01-19_17h34.35.123,MST_test,2024.2.0,59.83495127443477,2026-01-19 17h34.48.893197 +0530,
35,0,36,s,11.754899599996861,None,36,0,35,134.28832859999966,,,,,,,,,,,,,,,,,,,,,,,,,,,,,,,,,,,,,,,,,,,,,,,,,,134.27256459998898,134.28832859999966,134.77354059997015,134.79012309998507,134.8067996999598,134.8067996999598,134.8067996999598,146.56524899997748,Objects\322b.jpg,mid,s,11.754899599996861,None,,,,,,,,00060,001,2026-01-19_17h34.35.123,MST_test,2024.2.0,59.83495127443477,2026-01-19 17h34.48.893197 +0530,
36,0,37,n,3.8612621999927796,None,37,0,36,146.58166729996447,,,,,,,,,,,,,,,,,,,,,,,,,,,,,,,,,,,,,,,,,,,,,,,,,,146.56534659996396,146.58166729996447,147.06648649997078,147.08088189997943,147.10011379997013,147.10011379997013,147.10011379997013,150.96409339999082,Foils\065a.jpg,none,n,3.8612621999927796,None,,,,,,,,00060,001,2026-01-19_17h34.35.123,MST_test,2024.2.0,59.83495127443477,2026-01-19 17h34.48.893197 +0530,
37,0,38,o,1.9194291000021622,None,38,0,37,150.98025279998546,,,,,,,,,,,,,,,,,,,,,,,,,,,,,,,,,,,,,,,,,,,,,,,,,,150.96420449996367,150.98025279998546,151.46520689997124,151.47455679997802,151.4987797999638,151.4987797999638,151.4987797999638,153.4227486999589,Objects\065b.jpg,pre,o,1.9194291000021622,None,,,,,,,,00060,001,2026-01-19_17h34.35.123,MST_test,2024.2.0,59.83495127443477,2026-01-19 17h34.48.893197 +0530,
38,0,39,o,1.012571100029163,None,39,0,38,153.4388548999559,,,,,,,,,,,,,,,,,,,,,,,,,,,,,,,,,,,,,,,,,,,,,,,,,,153.42284719995223,153.4388548999559,153.92385419999482,153.92667859996436,153.94056969997473,153.94056969997473,153.94056969997473,154.96151999995345,Objects\024a.jpg,mid,o,1.012571100029163,None,,,,,,,,00060,001,2026-01-19_17h34.35.123,MST_test,2024.2.0,59.83495127443477,2026-01-19 17h34.48.893197 +0530,
39,0,40,o,0.9539639000431634,None,40,0,39,154.97769989998778,,,,,,,,,,,,,,,,,,,,,,,,,,,,,,,,,,,,,,,,,,,,,,,,,,154.9616150999791,154.97769989998778,155.46253999997862,155.46625929995207,155.47917259996757,155.47917259996757,155.47917259996757,156.4498295999947,Objects\366a.jpg,post,o,0.9539639000431634,None,,,,,,,,00060,001,2026-01-19_17h34.35.123,MST_test,2024.2.0,59.83495127443477,2026-01-19 17h34.48.893197 +0530,
40,0,41,o,1.1529055000282824,None,41,0,40,156.4661114999908,,,,,,,,,,,,,,,,,,,,,,,,,,,,,,,,,,,,,,,,,,,,,,,,,,156.44992649997585,156.4661114999908,156.9511273999815,156.96532979997573,156.98468409996713,156.98468409996713,156.98468409996713,158.13926470000297,Objects\291b.jpg,post,o,1.1529055000282824,None,,,,,,,,00060,001,2026-01-19_17h34.35.123,MST_test,2024.2.0,59.83495127443477,2026-01-19 17h34.48.893197 +0530,
41,0,42,o,1.1693814999889582,None,42,0,41,158.15551529999357,,,,,,,,,,,,,,,,,,,,,,,,,,,,,,,,,,,,,,,,,,,,,,,,,,158.13935899996432,158.15551529999357,158.64032519998727,158.64807259995723,158.65681419998873,158.65681419998873,158.65681419998873,159.82852749997983,Objects\374a.jpg,mid,o,1.1693814999889582,None,,,,,,,,00060,001,2026-01-19_17h34.35.123,MST_test,2024.2.0,59.83495127443477,2026-01-19 17h34.48.893197 +0530,
42,0,43,n,1.815035599982366,None,43,0,42,159.84449699998368,,,,,,,,,,,,,,,,,,,,,,,,,,,,,,,,,,,,,,,,,,,,,,,,,,159.82862369995564,159.84449699998368,160.32983059994876,160.34337029996095,160.36294779996388,160.36294779996388,160.36294779996388,162.18725789996097,Objects\195b.jpg,pre,n,1.815035599982366,None,,,,,,,,00060,001,2026-01-19_17h34.35.123,MST_test,2024.2.0,59.83495127443477,2026-01-19 17h34.48.893197 +0530,
43,0,44,n,1.0001925000105985,None,44,0,43,162.20275669998955,,,,,,,,,,,,,,,,,,,,,,,,,,,,,,,,,,,,,,,,,,,,,,,,,,162.1873672999791,162.20275669998955,162.68782669998473,162.70282059995225,162.7214541999856,162.7214541999856,162.7214541999856,163.72565069998382,Foils\034a.jpg,none,n,1.0001925000105985,None,,,,,,,,00060,001,2026-01-19_17h34.35.123,MST_test,2024.2.0,59.83495127443477,2026-01-19 17h34.48.893197 +0530,
44,0,45,s,1.2778695999877527,None,45,0,44,163.74146779999137,,,,,,,,,,,,,,,,,,,,,,,,,,,,,,,,,,,,,,,,,,,,,,,,,,163.72575379995396,163.74146779999137,164.22683349996805,164.23654989997158,164.25992299994687,164.25992299994687,164.25992299994687,165.54843609995442,Objects\246b.jpg,post,s,1.2778695999877527,None,,,,,,,,00060,001,2026-01-19_17h34.35.123,MST_test,2024.2.0,59.83495127443477,2026-01-19 17h34.48.893197 +0530,
45,0,46,s,2.4307759999646805,None,46,0,45,165.5645218999707,,,,,,,,,,,,,,,,,,,,,,,,,,,,,,,,,,,,,,,,,,,,,,,,,,165.54854099999648,165.5645218999707,166.0497346999473,166.05608579999534,166.0664359999937,166.0664359999937,166.0664359999937,168.50883999996586,Objects\201a.jpg,pre,s,2.4307759999646805,None,,,,,,,,00060,001,2026-01-19_17h34.35.123,MST_test,2024.2.0,59.83495127443477,2026-01-19 17h34.48.893197 +0530,
46,0,47,n,1.0061808999744244,None,47,0,46,168.5251163999783,,,,,,,,,,,,,,,,,,,,,,,,,,,,,,,,,,,,,,,,,,,,,,,,,,168.50893849995919,168.5251163999783,169.00998639996396,169.01595439994708,169.02694379998138,169.02694379998138,169.02694379998138,170.0474242999917,Foils\f7.jpg,none,n,1.0061808999744244,None,,,,,,,,00060,001,2026-01-19_17h34.35.123,MST_test,2024.2.0,59.83495127443477,2026-01-19 17h34.48.893197 +0530,
47,0,48,o,0.9946623999858275,None,48,0,47,170.0637402999564,,,,,,,,,,,,,,,,,,,,,,,,,,,,,,,,,,,,,,,,,,,,,,,,,,170.04752480000025,170.0637402999564,170.54903489997378,170.5569929999765,170.58235250000143,170.58235250000143,170.58235250000143,171.58624479995342,Objects\046a.jpg,pre,o,0.9946623999858275,None,,,,,,,,00060,001,2026-01-19_17h34.35.123,MST_test,2024.2.0,59.83495127443477,2026-01-19 17h34.48.893197 +0530,
48,0,49,s,1.4003464999841526,None,49,0,48,171.60233979998156,,,,,,,,,,,,,,,,,,,,,,,,,,,,,,,,,,,,,,,,,,,,,,,,,,171.58633829996688,171.60233979998156,172.08753739995882,172.09743229998276,172.12079839996295,172.12079839996295,172.12079839996295,173.52649419999216,Objects\276b.jpg,pre,s,1.4003464999841526,None,,,,,,,,00060,001,2026-01-19_17h34.35.123,MST_test,2024.2.0,59.83495127443477,2026-01-19 17h34.48.893197 +0530,
49,0,50,s,2.4129141999874264,None,50,0,49,173.54260349995457,,,,,,,,,,,,,,,,,,,,,,,,,,,,,,,,,,,,,,,,,,,,,,,,,,173.5265923999832,173.54260349995457,174.02754639997147,174.03793969994877,174.06104629999027,174.06104629999027,174.06104629999027,176.48656869999832,Objects\166b.jpg,pre,s,2.4129141999874264,None,,,,,,,,00060,001,2026-01-19_17h34.35.123,MST_test,2024.2.0,59.83495127443477,2026-01-19 17h34.48.893197 +0530,
50,0,51,o,1.0852464999770746,None,51,0,50,176.50294749997556,,,,,,,,,,,,,,,,,,,,,,,,,,,,,,,,,,,,,,,,,,,,,,,,,,176.4866737999837,176.50294749997556,176.98805809998885,176.99103889998514,177.00466969999252,177.00466969999252,177.00466969999252,178.0925512999529,Objects\308a.jpg,pre,o,1.0852464999770746,None,,,,,,,,00060,001,2026-01-19_17h34.35.123,MST_test,2024.2.0,59.83495127443477,2026-01-19 17h34.48.893197 +0530,
51,0,52,s,1.5099992000032216,None,52,0,51,178.1085819999571,,,,,,,,,,,,,,,,,,,,,,,,,,,,,,,,,,,,,,,,,,,,,,,,,,178.0926428999519,178.1085819999571,178.59358479996445,178.61048689996824,178.62703009997495,178.62703009997495,178.62703009997495,180.14973959996132,Objects\290b.jpg,post,s,1.5099992000032216,None,,,,,,,,00060,001,2026-01-19_17h34.35.123,MST_test,2024.2.0,59.83495127443477,2026-01-19 17h34.48.893197 +0530,
52,0,53,o,1.0381755999987945,None,53,0,52,180.16569209995214,,,,,,,,,,,,,,,,,,,,,,,,,,,,,,,,,,,,,,,,,,,,,,,,,,180.14983519999078,180.16569209995214,180.6508808999788,180.6593520999886,180.6669089999632,180.6669089999632,180.6669089999632,181.72154050000245,Objects\063a.jpg,pre,o,1.0381755999987945,None,,,,,,,,00060,001,2026-01-19_17h34.35.123,MST_test,2024.2.0,59.83495127443477,2026-01-19 17h34.48.893197 +0530,
53,0,54,o,0.8907310000504367,None,54,0,53,181.7381000999594,,,,,,,,,,,,,,,,,,,,,,,,,,,,,,,,,,,,,,,,,,,,,,,,,,181.7216365999775,181.7381000999594,182.2230336999637,182.22963829996297,182.23947430000408,182.23947430000408,182.23947430000408,183.1431674999767,Objects\286a.jpg,post,o,0.8907310000504367,None,,,,,,,,00060,001,2026-01-19_17h34.35.123,MST_test,2024.2.0,59.83495127443477,2026-01-19 17h34.48.893197 +0530,
54,0,55,s,1.7724820000003092,None,55,0,54,183.15975799999433,,,,,,,,,,,,,,,,,,,,,,,,,,,,,,,,,,,,,,,,,,,,,,,,,,183.14326489996165,183.15975799999433,183.6451014999766,183.661632000003,183.67821469996125,183.67821469996125,183.67821469996125,185.4515943999868,Objects\284b.jpg,pre,s,1.7724820000003092,None,,,,,,,,00060,001,2026-01-19_17h34.35.123,MST_test,2024.2.0,59.83495127443477,2026-01-19 17h34.48.893197 +0530,
55,0,56,n,11.736059800023213,None,56,0,55,185.4677300999756,,,,,,,,,,,,,,,,,,,,,,,,,,,,,,,,,,,,,,,,,,,,,,,,,,185.45169779995922,185.4677300999756,185.95294849999482,185.96123729995452,185.96894239995163,185.96894239995163,185.96894239995163,197.71140179998474,Objects\087a.jpg,mid,n,11.736059800023213,None,,,,,,,,00060,001,2026-01-19_17h34.35.123,MST_test,2024.2.0,59.83495127443477,2026-01-19 17h34.48.893197 +0530,
56,0,57,s,1.5151002000202425,None,57,0,56,197.72762729995884,,,,,,,,,,,,,,,,,,,,,,,,,,,,,,,,,,,,,,,,,,,,,,,,,,197.71153609995963,197.72762729995884,198.21304909995524,198.22243989998242,198.24623999994947,198.24623999994947,198.24623999994947,199.76853079994908,Objects\328b.jpg,pre,s,1.5151002000202425,None,,,,,,,,00060,001,2026-01-19_17h34.35.123,MST_test,2024.2.0,59.83495127443477,2026-01-19 17h34.48.893197 +0530,
57,0,58,o,1.1540465999860317,None,58,0,57,199.78542859997833,,,,,,,,,,,,,,,,,,,,,,,,,,,,,,,,,,,,,,,,,,,,,,,,,,199.7686279999907,199.78542859997833,200.26993289997336,200.27919549995568,200.30334509996464,200.30334509996464,200.30334509996464,201.4582315000007,Objects\370b.jpg,post,o,1.1540465999860317,None,,,,,,,,00060,001,2026-01-19_17h34.35.123,MST_test,2024.2.0,59.83495127443477,2026-01-19 17h34.48.893197 +0530,
58,0,59,n,1.2005625999881886,None,59,0,58,201.47463229997084,,,,,,,,,,,,,,,,,,,,,,,,,,,,,,,,,,,,,,,,,,,,,,,,,,201.45832829998108,201.47463229997084,201.9601630999823,201.97323959995992,201.99256399995647,201.99256399995647,201.99256399995647,203.19716739997966,Objects\270b.jpg,mid,n,1.2005625999881886,None,,,,,,,,00060,001,2026-01-19_17h34.35.123,MST_test,2024.2.0,59.83495127443477,2026-01-19 17h34.48.893197 +0530,
59,0,60,s,1.4288643999607302,None,60,0,59,203.2136310999631,,,,,,,,,,,,,,,,,,,,,,,,,,,,,,,,,,,,,,,,,,,,,,,,,,203.19726230000379,203.2136310999631,203.698602999968,203.71510699996725,203.73216630000388,203.73216630000388,203.73216630000388,205.17115499998908,Objects\190b.jpg,pre,s,1.4288643999607302,None,,,,,,,,00060,001,2026-01-19_17h34.35.123,MST_test,2024.2.0,59.83495127443477,2026-01-19 17h34.48.893197 +0530,
60,0,61,n,0.9598728999844752,None,61,0,60,205.18692359997658,,,,,,,,,,,,,,,,,,,,,,,,,,,,,,,,,,,,,,,,,,,,,,,,,,205.17124999995576,205.18692359997658,205.67266199999722,205.68262579996372,205.7054048999562,205.7054048999562,205.7054048999562,206.6760643000016,Foils\105a.jpg,none,n,0.9598728999844752,None,,,,,,,,00060,001,2026-01-19_17h34.35.123,MST_test,2024.2.0,59.83495127443477,2026-01-19 17h34.48.893197 +0530,
61,0,62,n,1.2065753999631852,None,62,0,61,206.69248619995778,,,,,,,,,,,,,,,,,,,,,,,,,,,,,,,,,,,,,,,,,,,,,,,,,,206.6761599999736,206.69248619995778,207.17731669999193,207.1868890999467,207.21079399995506,207.21079399995506,207.21079399995506,208.43259539996507,Foils\020b.jpg,none,n,1.2065753999631852,None,,,,,,,,00060,001,2026-01-19_17h34.35.123,MST_test,2024.2.0,59.83495127443477,2026-01-19 17h34.48.893197 +0530,
62,0,63,o,1.2823195999953896,None,63,0,62,208.44847079995088,,,,,,,,,,,,,,,,,,,,,,,,,,,,,,,,,,,,,,,,,,,,,,,,,,208.43270029994892,208.44847079995088,208.93343269999605,208.9474249999621,208.96693539997796,208.96693539997796,208.96693539997796,210.25552159996005,Objects\262b.jpg,mid,o,1.2823195999953896,None,,,,,,,,00060,001,2026-01-19_17h34.35.123,MST_test,2024.2.0,59.83495127443477,2026-01-19 17h34.48.893197 +0530,
63,0,64,s,3.540836300002411,None,64,0,63,210.2714964999468,,,,,,,,,,,,,,,,,,,,,,,,,,,,,,,,,,,,,,,,,,,,,,,,,,210.25561779999407,210.2714964999468,210.75646469998173,210.77156079997076,210.79001109994715,210.79001109994715,210.79001109994715,214.33624609996332,Foils\026a.jpg,none,s,3.540836300002411,None,,,,,,,,00060,001,2026-01-19_17h34.35.123,MST_test,2024.2.0,59.83495127443477,2026-01-19 17h34.48.893197 +0530,
64,0,65,n,4.699880999978632,None,65,0,64,214.35204919998068,,,,,,,,,,,,,,,,,,,,,,,,,,,,,,,,,,,,,,,,,,,,,,,,,,214.3363504000008,214.35204919998068,214.83731350000016,214.84037709998665,214.85404759994708,214.85404759994708,214.85404759994708,219.57108329999028,Objects\124a.jpg,post,n,4.699880999978632,None,,,,,,,,00060,001,2026-01-19_17h34.35.123,MST_test,2024.2.0,59.83495127443477,2026-01-19 17h34.48.893197 +0530,
65,0,66,n,0.7600592999951914,None,66,0,65,219.58705099998042,,,,,,,,,,,,,,,,,,,,,,,,,,,,,,,,,,,,,,,,,,,,,,,,,,219.57118189998437,219.58705099998042,220.07239689998096,220.08145539998077,220.10563219996402,220.10563219996402,220.10563219996402,220.87571239995304,Foils\049a.jpg,none,n,0.7600592999951914,None,,,,,,,,00060,001,2026-01-19_17h34.35.123,MST_test,2024.2.0,59.83495127443477,2026-01-19 17h34.48.893197 +0530,
66,0,67,o,0.9924719000118785,None,67,0,66,220.89163099997677,,,,,,,,,,,,,,,,,,,,,,,,,,,,,,,,,,,,,,,,,,,,,,,,,,220.8758106000023,220.89163099997677,221.37682149995817,221.3844543999876,221.3928065999644,221.3928065999644,221.3928065999644,222.39764739997918,Objects\329a.jpg,pre,o,0.9924719000118785,None,,,,,,,,00060,001,2026-01-19_17h34.35.123,MST_test,2024.2.0,59.83495127443477,2026-01-19 17h34.48.893197 +0530,
67,0,68,o,0.8065478000207804,None,68,0,67,222.41373349999776,,,,,,,,,,,,,,,,,,,,,,,,,,,,,,,,,,,,,,,,,,,,,,,,,,222.39774200000102,222.41373349999776,222.89870929997414,222.90608249994693,222.9154489999637,222.9154489999637,222.9154489999637,223.736132799997,Objects\156a.jpg,post,o,0.8065478000207804,None,,,,,,,,00060,001,2026-01-19_17h34.35.123,MST_test,2024.2.0,59.83495127443477,2026-01-19 17h34.48.893197 +0530,
68,0,69,s,1.2507858999888413,None,69,0,68,223.751930599974,,,,,,,,,,,,,,,,,,,,,,,,,,,,,,,,,,,,,,,,,,,,,,,,,,223.7362362999702,223.751930599974,224.2367593999952,224.24741469998844,224.2703345999471,224.2703345999471,224.2703345999471,225.52607689995784,Objects\073b.jpg,mid,s,1.2507858999888413,None,,,,,,,,00060,001,2026-01-19_17h34.35.123,MST_test,2024.2.0,59.83495127443477,2026-01-19 17h34.48.893197 +0530,
69,0,70,s,1.2615481999819167,None,70,0,69,225.5417257999652,,,,,,,,,,,,,,,,,,,,,,,,,,,,,,,,,,,,,,,,,,,,,,,,,,225.5261923999642,225.5417257999652,226.0263527999632,226.03603779996047,226.0597701999941,226.0597701999941,226.0597701999941,227.33139979996486,Objects\178b.jpg,mid,s,1.2615481999819167,None,,,,,,,,00060,001,2026-01-19_17h34.35.123,MST_test,2024.2.0,59.83495127443477,2026-01-19 17h34.48.893197 +0530,
70,0,71,s,1.5033660999615677,None,71,0,70,227.34755599999335,,,,,,,,,,,,,,,,,,,,,,,,,,,,,,,,,,,,,,,,,,,,,,,,,,227.3314979999559,227.34755599999335,227.83297029999085,227.84920919995056,227.86612369999057,227.86612369999057,227.86612369999057,229.37218949996168,Objects\373b.jpg,post,s,1.5033660999615677,None,,,,,,,,00060,001,2026-01-19_17h34.35.123,MST_test,2024.2.0,59.83495127443477,2026-01-19 17h34.48.893197 +0530,
71,0,72,o,0.9601698000333272,None,72,0,71,229.38815989997238,,,,,,,,,,,,,,,,,,,,,,,,,,,,,,,,,,,,,,,,,,,,,,,,,,229.3722825999721,229.38815989997238,229.87314719997812,229.8816067999578,229.889471100003,229.889471100003,229.889471100003,230.86053369997535,Objects\279a.jpg,post,o,0.9601698000333272,None,,,,,,,,00060,001,2026-01-19_17h34.35.123,MST_test,2024.2.0,59.83495127443477,2026-01-19 17h34.48.893197 +0530,
72,0,73,s,1.4140365999774076,None,73,0,72,230.87659699999494,,,,,,,,,,,,,,,,,,,,,,,,,,,,,,,,,,,,,,,,,,,,,,,,,,230.86085449997336,230.87659699999494,231.3619567999849,231.37124799995217,231.39504259999376,231.39504259999376,231.39504259999376,232.81768729997566,Objects\174b.jpg,mid,s,1.4140365999774076,None,,,,,,,,00060,001,2026-01-19_17h34.35.123,MST_test,2024.2.0,59.83495127443477,2026-01-19 17h34.48.893197 +0530,
73,0,74,o,1.0099263999727555,None,74,0,73,232.8334663999849,,,,,,,,,,,,,,,,,,,,,,,,,,,,,,,,,,,,,,,,,,,,,,,,,,232.81779339996865,232.8334663999849,233.31865400000243,233.3281104999478,233.3520881999866,233.3520881999866,233.3520881999866,234.37292039999738,Objects\118b.jpg,pre,o,1.0099263999727555,None,,,,,,,,00060,001,2026-01-19_17h34.35.123,MST_test,2024.2.0,59.83495127443477,2026-01-19 17h34.48.893197 +0530,
74,0,75,n,1.0620610999758355,None,75,0,74,234.3888842999586,,,,,,,,,,,,,,,,,,,,,,,,,,,,,,,,,,,,,,,,,,,,,,,,,,234.37302070000442,234.3888842999586,234.87423019995913,234.88403899996774,234.90745569998398,234.90745569998398,234.90745569998398,235.97848369996063,Foils\033a.jpg,none,n,1.0620610999758355,None,,,,,,,,00060,001,2026-01-19_17h34.35.123,MST_test,2024.2.0,59.83495127443477,2026-01-19 17h34.48.893197 +0530,
75,0,76,s,1.2649359999923036,None,76,0,75,235.99451129999943,,,,,,,,,,,,,,,,,,,,,,,,,,,,,,,,,,,,,,,,,,,,,,,,,,235.97858639998594,235.99451129999943,236.47976799996104,236.49550089996774,236.51308529998641,236.51308529998641,236.51308529998641,237.78498009999748,Objects\360b.jpg,pre,s,1.2649359999923036,None,,,,,,,,00060,001,2026-01-19_17h34.35.123,MST_test,2024.2.0,59.83495127443477,2026-01-19 17h34.48.893197 +0530,
76,0,77,s,1.7143531999900006,None,77,0,76,237.8009532999713,,,,,,,,,,,,,,,,,,,,,,,,,,,,,,,,,,,,,,,,,,,,,,,,,,237.78509739995934,237.8009532999713,238.28591409994988,238.30435959994793,238.31939779996173,238.31939779996173,238.31939779996173,240.0426632000017,Objects\259b.jpg,pre,s,1.7143531999900006,None,,,,,,,,00060,001,2026-01-19_17h34.35.123,MST_test,2024.2.0,59.83495127443477,2026-01-19 17h34.48.893197 +0530,
77,0,78,s,1.2634680999908596,None,78,0,77,240.05886679998366,,,,,,,,,,,,,,,,,,,,,,,,,,,,,,,,,,,,,,,,,,,,,,,,,,240.042763299949,240.05886679998366,240.54385369998636,240.5587398999487,240.5775200999924,240.5775200999924,240.5775200999924,241.84927629999584,Objects\348b.jpg,post,s,1.2634680999908596,None,,,,,,,,00060,001,2026-01-19_17h34.35.123,MST_test,2024.2.0,59.83495127443477,2026-01-19 17h34.48.893197 +0530,
78,0,79,o,1.0343722000252455,None,79,0,78,241.8651665999787,,,,,,,,,,,,,,,,,,,,,,,,,,,,,,,,,,,,,,,,,,,,,,,,,,241.84937439998612,241.8651665999787,242.35029249999207,242.35351659997832,242.36687999998685,242.36687999998685,242.36687999998685,243.4044334999635,Objects\112a.jpg,post,o,1.0343722000252455,None,,,,,,,,00060,001,2026-01-19_17h34.35.123,MST_test,2024.2.0,59.83495127443477,2026-01-19 17h34.48.893197 +0530,
79,0,80,s,1.9023112999857403,None,80,0,79,243.42089849995682,,,,,,,,,,,,,,,,,,,,,,,,,,,,,,,,,,,,,,,,,,,,,,,,,,243.40453810000326,243.42089849995682,243.90562189999036,243.92202189995442,243.93920259998413,243.93920259998413,243.93920259998413,245.84637849999126,Objects\254b.jpg,post,s,1.9023112999857403,None,,,,,,,,00060,001,2026-01-19_17h34.35.123,MST_test,2024.2.0,59.83495127443477,2026-01-19 17h34.48.893197 +0530,
80,0,81,s,2.0773215999943204,None,81,0,80,245.86240109999198,,,,,,,,,,,,,,,,,,,,,,,,,,,,,,,,,,,,,,,,,,,,,,,,,,245.8464707999956,245.86240109999198,246.34790169994812,246.35566339996876,246.36376759997802,246.36376759997802,246.36376759997802,248.455588599958,Objects\004a.jpg,mid,s,2.0773215999943204,None,,,,,,,,00060,001,2026-01-19_17h34.35.123,MST_test,2024.2.0,59.83495127443477,2026-01-19 17h34.48.893197 +0530,
81,0,82,s,1.0045767999836244,None,82,0,81,248.47154869994847,,,,,,,,,,,,,,,,,,,,,,,,,,,,,,,,,,,,,,,,,,,,,,,,,,248.45569059997797,248.47154869994847,248.9567623999901,248.959808399959,248.9732665999909,248.9732665999909,248.9732665999909,249.9941038999823,Objects\185a.jpg,pre,s,1.0045767999836244,None,,,,,,,,00060,001,2026-01-19_17h34.35.123,MST_test,2024.2.0,59.83495127443477,2026-01-19 17h34.48.893197 +0530,
82,0,83,s,2.2408839000272565,None,83,0,82,250.01027569995495,,,,,,,,,,,,,,,,,,,,,,,,,,,,,,,,,,,,,,,,,,,,,,,,,,249.99420209997334,250.01027569995495,250.49566099996446,250.5052150999545,250.52882619999582,250.52882619999582,250.52882619999582,252.77074549999088,Foils\073a.jpg,none,s,2.2408839000272565,None,,,,,,,,00060,001,2026-01-19_17h34.35.123,MST_test,2024.2.0,59.83495127443477,2026-01-19 17h34.48.893197 +0530,
83,0,84,s,3.7688651000498794,None,84,0,83,252.78664049995132,,,,,,,,,,,,,,,,,,,,,,,,,,,,,,,,,,,,,,,,,,,,,,,,,,252.77085199998692,252.78664049995132,253.27186409995193,253.2860394999734,253.30511789995944,253.30511789995944,253.30511789995944,257.0859371999977,Objects\260b.jpg,mid,s,3.7688651000498794,None,,,,,,,,00060,001,2026-01-19_17h34.35.123,MST_test,2024.2.0,59.83495127443477,2026-01-19 17h34.48.893197 +0530,
84,0,85,o,1.0454212999902666,None,85,0,84,257.1018868999672,,,,,,,,,,,,,,,,,,,,,,,,,,,,,,,,,,,,,,,,,,,,,,,,,,257.0860294000013,257.1018868999672,257.5868411999545,257.5954170000041,257.6204355999944,257.6204355999944,257.6204355999944,258.67449259996647,Objects\153a.jpg,post,o,1.0454212999902666,None,,,,,,,,00060,001,2026-01-19_17h34.35.123,MST_test,2024.2.0,59.83495127443477,2026-01-19 17h34.48.893197 +0530,
85,0,86,o,0.78501839999808,None,86,0,85,258.69078599999193,,,,,,,,,,,,,,,,,,,,,,,,,,,,,,,,,,,,,,,,,,,,,,,,,,258.67458759999136,258.69078599999193,259.1758088999777,259.17894589999923,259.19249609997496,259.19249609997496,259.19249609997496,259.97921329998644,Objects\147a.jpg,mid,o,0.78501839999808,None,,,,,,,,00060,001,2026-01-19_17h34.35.123,MST_test,2024.2.0,59.83495127443477,2026-01-19 17h34.48.893197 +0530,
86,0,87,o,0.960970800020732,None,87,0,86,259.9954104999779,,,,,,,,,,,,,,,,,,,,,,,,,,,,,,,,,,,,,,,,,,,,,,,,,,259.9793056999915,259.9954104999779,260.4803207999794,260.48337489995174,260.49706929997774,260.49706929997774,260.49706929997774,261.46806629997445,Objects\122a.jpg,mid,o,0.960970800020732,None,,,,,,,,00060,001,2026-01-19_17h34.35.123,MST_test,2024.2.0,59.83495127443477,2026-01-19 17h34.48.893197 +0530,
87,0,88,s,1.70392100000754,None,88,0,87,261.48389959998894,,,,,,,,,,,,,,,,,,,,,,,,,,,,,,,,,,,,,,,,,,,,,,,,,,261.46816509997007,261.48389959998894,261.9689789999975,261.9785884000012,262.00222159997793,262.00222159997793,262.00222159997793,263.7089128999505,Objects\110b.jpg,mid,s,1.70392100000754,None,,,,,,,,00060,001,2026-01-19_17h34.35.123,MST_test,2024.2.0,59.83495127443477,2026-01-19 17h34.48.893197 +0530,
88,0,89,o,1.1187072999891825,None,89,0,88,263.7253097999492,,,,,,,,,,,,,,,,,,,,,,,,,,,,,,,,,,,,,,,,,,,,,,,,,,263.7090101999929,263.7253097999492,264.2100761999609,264.2136889999965,264.22679759998573,264.22679759998573,264.22679759998573,265.34797719999915,Objects\084a.jpg,pre,o,1.1187072999891825,None,,,,,,,,00060,001,2026-01-19_17h34.35.123,MST_test,2024.2.0,59.83495127443477,2026-01-19 17h34.48.893197 +0530,
89,0,90,o,3.719049500010442,None,90,0,89,265.36414239997976,,,,,,,,,,,,,,,,,,,,,,,,,,,,,,,,,,,,,,,,,,,,,,,,,,265.3480708999559,265.36414239997976,265.84915669995826,265.865852399962,265.8826038999832,265.8826038999832,265.8826038999832,269.61297789996024,Objects\225b.jpg,post,o,3.719049500010442,None,,,,,,,,00060,001,2026-01-19_17h34.35.123,MST_test,2024.2.0,59.83495127443477,2026-01-19 17h34.48.893197 +0530,
90,0,91,o,1.1756978000048548,None,91,0,90,269.6289682999486,,,,,,,,,,,,,,,,,,,,,,,,,,,,,,,,,,,,,,,,,,,,,,,,,,269.6130692999577,269.6289682999486,270.1141618999536,270.1225479999557,270.1302063000039,270.1302063000039,270.1302063000039,271.3188208999927,Objects\180a.jpg,mid,o,1.1756978000048548,None,,,,,,,,00060,001,2026-01-19_17h34.35.123,MST_test,2024.2.0,59.83495127443477,2026-01-19 17h34.48.893197 +0530,
91,0,92,o,0.9409539999905974,None,92,0,91,271.33492449996993,,,,,,,,,,,,,,,,,,,,,,,,,,,,,,,,,,,,,,,,,,,,,,,,,,271.3189166999655,271.33492449996993,271.8204782999819,271.82325849996414,271.8366605999763,271.8366605999763,271.8366605999763,272.79092569998465,Objects\088a.jpg,post,o,0.9409539999905974,None,,,,,,,,00060,001,2026-01-19_17h34.35.123,MST_test,2024.2.0,59.83495127443477,2026-01-19 17h34.48.893197 +0530,
92,0,93,s,1.156669000047259,None,93,0,92,272.80676680000033,,,,,,,,,,,,,,,,,,,,,,,,,,,,,,,,,,,,,,,,,,,,,,,,,,272.79102399997646,272.80676680000033,273.2919953999808,273.3017263999791,273.32521319994703,273.32521319994703,273.32521319994703,274.49683799996274,Objects\216b.jpg,mid,s,1.156669000047259,None,,,,,,,,00060,001,2026-01-19_17h34.35.123,MST_test,2024.2.0,59.83495127443477,2026-01-19 17h34.48.893197 +0530,
93,0,94,s,1.2577679000096396,None,94,0,93,274.5129893999547,,,,,,,,,,,,,,,,,,,,,,,,,,,,,,,,,,,,,,,,,,,,,,,,,,274.49694479996106,274.5129893999547,274.99796339997556,275.01173209998524,275.03141029999824,275.03141029999824,275.03141029999824,276.3029777999618,Objects\344b.jpg,post,s,1.2577679000096396,None,,,,,,,,00060,001,2026-01-19_17h34.35.123,MST_test,2024.2.0,59.83495127443477,2026-01-19 17h34.48.893197 +0530,
94,0,95,s,1.731642099970486,None,95,0,94,276.3190760999569,,,,,,,,,,,,,,,,,,,,,,,,,,,,,,,,,,,,,,,,,,,,,,,,,,276.3030787999742,276.3190760999569,276.8042537999572,276.818716699956,276.8375148999621,276.8375148999621,276.8375148999621,278.57770109997364,Objects\039b.jpg,pre,s,1.731642099970486,None,,,,,,,,00060,001,2026-01-19_17h34.35.123,MST_test,2024.2.0,59.83495127443477,2026-01-19 17h34.48.893197 +0530,
95,0,96,n,1.0493550999672152,None,96,0,95,278.593812099949,,,,,,,,,,,,,,,,,,,,,,,,,,,,,,,,,,,,,,,,,,,,,,,,,,278.5778022999875,278.593812099949,279.07878129999153,279.0883863999625,279.1123036999488,279.1123036999488,279.1123036999488,280.16666279995115,Foils\057a.jpg,none,n,1.0493550999672152,None,,,,,,,,00060,001,2026-01-19_17h34.35.123,MST_test,2024.2.0,59.83495127443477,2026-01-19 17h34.48.893197 +0530,
96,0,97,n,1.0762031999765895,None,97,0,96,280.1827086999547,,,,,,,,,,,,,,,,,,,,,,,,,,,,,,,,,,,,,,,,,,,,,,,,,,280.16675909998594,280.1827086999547,280.6678328999551,280.6840488999733,280.7011443999945,280.7011443999945,280.7011443999945,281.78889079997316,Objects\266b.jpg,post,n,1.0762031999765895,None,,,,,,,,00060,001,2026-01-19_17h34.35.123,MST_test,2024.2.0,59.83495127443477,2026-01-19 17h34.48.893197 +0530,
97,0,98,o,1.5497884999495,None,98,0,97,281.8052447999944,,,,,,,,,,,,,,,,,,,,,,,,,,,,,,,,,,,,,,,,,,,,,,,,,,281.78898419998586,281.8052447999944,282.29015959997196,282.2992226999486,282.32350089994725,282.32350089994725,282.32350089994725,283.8792702999781,Objects\384a.jpg,pre,o,1.5497884999495,None,,,,,,,,00060,001,2026-01-19_17h34.35.123,MST_test,2024.2.0,59.83495127443477,2026-01-19 17h34.48.893197 +0530,
98,0,99,s,1.1636514000128955,None,99,0,98,283.8958305999986,,,,,,,,,,,,,,,,,,,,,,,,,,,,,,,,,,,,,,,,,,,,,,,,,,283.87936639995314,283.8958305999986,284.38070609996794,284.39468189998297,284.41415209998377,284.41415209998377,284.41415209998377,285.5857229999965,Objects\194b.jpg,post,s,1.1636514000128955,None,,,,,,,,00060,001,2026-01-19_17h34.35.123,MST_test,2024.2.0,59.83495127443477,2026-01-19 17h34.48.893197 +0530,
99,0,100,n,0.9938089000061154,None,100,0,99,285.6015717999544,,,,,,,,,,,,,,,,,,,,,,,,,,,,,,,,,,,,,,,,,,,,,,,,,,285.5858409999637,285.6015717999544,286.0869117999682,286.10327949997736,286.12002410000423,286.12002410000423,286.12002410000423,287.12424409994856,Foils\121a.jpg,none,n,0.9938089000061154,None,,,,,,,,00060,001,2026-01-19_17h34.35.123,MST_test,2024.2.0,59.83495127443477,2026-01-19 17h34.48.893197 +0530,
100,0,101,s,1.3341086000436917,None,101,0,100,287.1402812000015,,,,,,,,,,,,,,,,,,,,,,,,,,,,,,,,,,,,,,,,,,,,,,,,,,287.12434529996244,287.1402812000015,287.625499799964,287.6347060999833,287.65878820000216,287.65878820000216,287.65878820000216,288.99765299999854,Objects\146b.jpg,mid,s,1.3341086000436917,None,,,,,,,,00060,001,2026-01-19_17h34.35.123,MST_test,2024.2.0,59.83495127443477,2026-01-19 17h34.48.893197 +0530,
101,0,102,s,1.548815399990417,None,102,0,101,289.0136273999815,,,,,,,,,,,,,,,,,,,,,,,,,,,,,,,,,,,,,,,,,,,,,,,,,,288.99774399999296,289.0136273999815,289.4986023999518,289.50860739999916,289.5320876999758,289.5320876999758,289.5320876999758,291.08813940000255,Objects\026b.jpg,mid,s,1.548815399990417,None,,,,,,,,00060,001,2026-01-19_17h34.35.123,MST_test,2024.2.0,59.83495127443477,2026-01-19 17h34.48.893197 +0530,
102,0,103,n,2.170528899994679,None,103,0,102,291.10434520000126,,,,,,,,,,,,,,,,,,,,,,,,,,,,,,,,,,,,,,,,,,,,,,,,,,291.08823739999207,291.10434520000126,291.5892483999487,291.60276310000336,291.62272849999135,291.62272849999135,291.62272849999135,293.79774959996575,Objects\208b.jpg,post,n,2.170528899994679,None,,,,,,,,00060,001,2026-01-19_17h34.35.123,MST_test,2024.2.0,59.83495127443477,2026-01-19 17h34.48.893197 +0530,
103,0,104,o,0.933915099943988,None,104,0,103,293.8137832999928,,,,,,,,,,,,,,,,,,,,,,,,,,,,,,,,,,,,,,,,,,,,,,,,,,293.79801479994785,293.8137832999928,294.2989173999522,294.30493939999724,294.3155043000006,294.3155043000006,294.3155043000006,295.2526050999877,Objects\367a.jpg,post,o,0.933915099943988,None,,,,,,,,00060,001,2026-01-19_17h34.35.123,MST_test,2024.2.0,59.83495127443477,2026-01-19 17h34.48.893197 +0530,
104,0,105,o,1.5024836999946274,None,105,0,104,295.26886199996807,,,,,,,,,,,,,,,,,,,,,,,,,,,,,,,,,,,,,,,,,,,,,,,,,,295.2526979999966,295.26886199996807,295.7545190999517,295.76224299997557,295.78720550000435,295.78720550000435,295.78720550000435,297.2934245999786,Objects\091a.jpg,mid,o,1.5024836999946274,None,,,,,,,,00060,001,2026-01-19_17h34.35.123,MST_test,2024.2.0,59.83495127443477,2026-01-19 17h34.48.893197 +0530,
105,0,106,n,0.6787325000041164,None,106,0,105,297.3093501999974,,,,,,,,,,,,,,,,,,,,,,,,,,,,,,,,,,,,,,,,,,,,,,,,,,297.29351449996466,297.3093501999974,297.79431499994826,297.8036600999767,297.8279068999691,297.8279068999691,297.8279068999691,298.5141163999797,Foils\097a.jpg,none,n,0.6787325000041164,None,,,,,,,,00060,001,2026-01-19_17h34.35.123,MST_test,2024.2.0,59.83495127443477,2026-01-19 17h34.48.893197 +0530,
106,0,107,n,0.7689099999843165,None,107,0,106,298.5303043999593,,,,,,,,,,,,,,,,,,,,,,,,,,,,,,,,,,,,,,,,,,,,,,,,,,298.5142087999848,298.5303043999593,299.0154115000041,299.0247349999845,299.04873789998237,299.04873789998237,299.04873789998237,299.8188452000031,Foils\010a.jpg,none,n,0.7689099999843165,None,,,,,,,,00060,001,2026-01-19_17h34.35.123,MST_test,2024.2.0,59.83495127443477,2026-01-19 17h34.48.893197 +0530,
107,0,108,o,0.9917260999791324,None,108,0,107,299.83486309996806,,,,,,,,,,,,,,,,,,,,,,,,,,,,,,,,,,,,,,,,,,,,,,,,,,299.8189430999919,299.83486309996806,300.320135499991,300.3292832999723,300.3531937999651,300.3531937999651,300.3531937999651,301.35731409996515,Objects\217a.jpg,mid,o,0.9917260999791324,None,,,,,,,,00060,001,2026-01-19_17h34.35.123,MST_test,2024.2.0,59.83495127443477,2026-01-19 17h34.48.893197 +0530,
108,0,109,s,1.149612800043542,None,109,0,108,301.37357349996455,,,,,,,,,,,,,,,,,,,,,,,,,,,,,,,,,,,,,,,,,,,,,,,,,,301.35741159995086,301.37357349996455,301.85854689998087,301.87359469995135,301.892049499962,301.892049499962,301.892049499962,303.046485400002,Objects\248b.jpg,post,s,1.149612800043542,None,,,,,,,,00060,001,2026-01-19_17h34.35.123,MST_test,2024.2.0,59.83495127443477,2026-01-19 17h34.48.893197 +0530,
109,0,110,n,1.2212805000017397,None,110,0,109,303.0628326999722,,,,,,,,,,,,,,,,,,,,,,,,,,,,,,,,,,,,,,,,,,,,,,,,,,303.0466089999536,303.0628326999722,303.54784279997693,303.5583975999616,303.58128369995393,303.58128369995393,303.58128369995393,304.81959459994687,Foils\050a.jpg,none,n,1.2212805000017397,None,,,,,,,,00060,001,2026-01-19_17h34.35.123,MST_test,2024.2.0,59.83495127443477,2026-01-19 17h34.48.893197 +0530,
110,0,111,n,0.6875623000087216,None,111,0,110,304.8356817999738,,,,,,,,,,,,,,,,,,,,,,,,,,,,,,,,,,,,,,,,,,,,,,,,,,304.8196881999611,304.8356817999738,305.3206619999837,305.3312592000002,305.3541484999587,305.3541484999587,305.3541484999587,306.0571905999677,Foils\002a.jpg,none,n,0.6875623000087216,None,,,,,,,,00060,001,2026-01-19_17h34.35.123,MST_test,2024.2.0,59.83495127443477,2026-01-19 17h34.48.893197 +0530,
111,0,112,o,1.090286599996034,None,112,0,111,306.0732600999763,,,,,,,,,,,,,,,,,,,,,,,,,,,,,,,,,,,,,,,,,,,,,,,,,,306.0572863999987,306.0732600999763,306.5588880999712,306.56222689995775,306.5749687999487,306.5749687999487,306.5749687999487,307.6796287999605,Objects\242a.jpg,mid,o,1.090286599996034,None,,,,,,,,00060,001,2026-01-19_17h34.35.123,MST_test,2024.2.0,59.83495127443477,2026-01-19 17h34.48.893197 +0530,
112,0,113,s,1.2991540000075474,None,113,0,112,307.69584770000074,,,,,,,,,,,,,,,,,,,,,,,,,,,,,,,,,,,,,,,,,,,,,,,,,,307.6797207999625,307.69584770000074,308.18068659998244,308.19590930000413,308.21417349996045,308.21417349996045,308.21417349996045,309.5195599999861,Objects\244b.jpg,pre,s,1.2991540000075474,None,,,,,,,,00060,001,2026-01-19_17h34.35.123,MST_test,2024.2.0,59.83495127443477,2026-01-19 17h34.48.893197 +0530,
113,0,114,n,1.5317282000323758,None,114,0,113,309.5353851999971,,,,,,,,,,,,,,,,,,,,,,,,,,,,,,,,,,,,,,,,,,,,,,,,,,309.51965609996114,309.5353851999971,310.02058229997056,310.0353333999519,310.05394479999086,310.05394479999086,310.05394479999086,311.5932347999769,Foils\086a.jpg,none,n,1.5317282000323758,None,,,,,,,,00060,001,2026-01-19_17h34.35.123,MST_test,2024.2.0,59.83495127443477,2026-01-19 17h34.48.893197 +0530,
114,0,115,o,1.1301576999831013,None,115,0,114,311.6093196999864,,,,,,,,,,,,,,,,,,,,,,,,,,,,,,,,,,,,,,,,,,,,,,,,,,311.5933315999573,311.6093196999864,312.0944210999878,312.1001676999731,312.11157690000255,312.11157690000255,312.11157690000255,313.2489910000004,Objects\296a.jpg,pre,o,1.1301576999831013,None,,,,,,,,00060,001,2026-01-19_17h34.35.123,MST_test,2024.2.0,59.83495127443477,2026-01-19 17h34.48.893197 +0530,
115,0,116,o,0.8109971000230871,None,116,0,115,313.26510769996094,,,,,,,,,,,,,,,,,,,,,,,,,,,,,,,,,,,,,,,,,,,,,,,,,,313.24908579996554,313.26510769996094,313.7503254999756,313.7582419999526,313.76669209997635,313.76669209997635,313.76669209997635,314.5869229999953,Objects\141a.jpg,post,o,0.8109971000230871,None,,,,,,,,00060,001,2026-01-19_17h34.35.123,MST_test,2024.2.0,59.83495127443477,2026-01-19 17h34.48.893197 +0530,
116,0,117,o,0.8638119999668561,None,117,0,116,314.60327179997694,,,,,,,,,,,,,,,,,,,,,,,,,,,,,,,,,,,,,,,,,,,,,,,,,,314.58712879999075,314.60327179997694,315.0884266999783,315.0989581999602,315.1215674999985,315.1215674999985,315.1215674999985,315.9919993999647,Objects\203a.jpg,mid,o,0.8638119999668561,None,,,,,,,,00060,001,2026-01-19_17h34.35.123,MST_test,2024.2.0,59.83495127443477,2026-01-19 17h34.48.893197 +0530,
117,0,118,o,0.7160398000269197,None,118,0,117,316.00815700000385,,,,,,,,,,,,,,,,,,,,,,,,,,,,,,,,,,,,,,,,,,,,,,,,,,315.9920893999515,316.00815700000385,316.4932940999861,316.4999577999697,316.509895199968,316.509895199968,316.509895199968,317.2296817000024,Objects\362a.jpg,pre,o,0.7160398000269197,None,,,,,,,,00060,001,2026-01-19_17h34.35.123,MST_test,2024.2.0,59.83495127443477,2026-01-19 17h34.48.893197 +0530,
118,0,119,s,1.1408140999847092,None,119,0,118,317.24596269999165,,,,,,,,,,,,,,,,,,,,,,,,,,,,,,,,,,,,,,,,,,,,,,,,,,317.22977469995385,317.24596269999165,317.73080550000304,317.7457309999736,317.76428719999967,317.76428719999967,317.76428719999967,318.91893859999254,Objects\196b.jpg,mid,s,1.1408140999847092,None,,,,,,,,00060,001,2026-01-19_17h34.35.123,MST_test,2024.2.0,59.83495127443477,2026-01-19 17h34.48.893197 +0530,
119,0,120,s,2.0843924999935552,None,120,0,119,318.93508229998406,,,,,,,,,,,,,,,,,,,,,,,,,,,,,,,,,,,,,,,,,,,,,,,,,,318.91904389997944,318.93508229998406,319.4200879999553,319.429587599996,319.4535384999472,319.4535384999472,319.4535384999472,321.5447313999757,Objects\179b.jpg,mid,s,2.0843924999935552,None,,,,,,,,00060,001,2026-01-19_17h34.35.123,MST_test,2024.2.0,59.83495127443477,2026-01-19 17h34.48.893197 +0530,
120,0,121,s,2.338444299995899,None,121,0,120,321.5609964999603,,,,,,,,,,,,,,,,,,,,,,,,,,,,,,,,,,,,,,,,,,,,,,,,,,321.5448289999622,321.5609964999603,322.04607379995286,322.04867639997974,322.0628347999882,322.0628347999882,322.0628347999882,324.40477999998257,Objects\011a.jpg,post,s,2.338444299995899,None,,,,,,,,00060,001,2026-01-19_17h34.35.123,MST_test,2024.2.0,59.83495127443477,2026-01-19 17h34.48.893197 +0530,
121,0,122,s,0.9496855000033975,None,122,0,121,324.42084819998126,,,,,,,,,,,,,,,,,,,,,,,,,,,,,,,,,,,,,,,,,,,,,,,,,,324.40487349999603,324.42084819998126,324.90621180000016,324.92121229995973,324.93992719997186,324.93992719997186,324.93992719997186,325.893336499983,Objects\304b.jpg,pre,s,0.9496855000033975,None,,,,,,,,00060,001,2026-01-19_17h34.35.123,MST_test,2024.2.0,59.83495127443477,2026-01-19 17h34.48.893197 +0530,
122,0,123,n,0.7973053000168875,None,123,0,122,325.9095471999608,,,,,,,,,,,,,,,,,,,,,,,,,,,,,,,,,,,,,,,,,,,,,,,,,,325.89343199995346,325.9095471999608,326.39487570000347,326.4091230999911,326.4280023999745,326.4280023999745,326.4280023999745,327.23120939999353,Foils\106a.jpg,none,n,0.7973053000168875,None,,,,,,,,00060,001,2026-01-19_17h34.35.123,MST_test,2024.2.0,59.83495127443477,2026-01-19 17h34.48.893197 +0530,
123,0,124,n,0.8108748000231571,None,124,0,123,327.2476944999653,,,,,,,,,,,,,,,,,,,,,,,,,,,,,,,,,,,,,,,,,,,,,,,,,,327.23130319995107,327.2476944999653,327.73266909999074,327.7416743999929,327.7661426999839,327.7661426999839,327.7661426999839,328.58582349994686,Foils\113a.jpg,none,n,0.8108748000231571,None,,,,,,,,00060,001,2026-01-19_17h34.35.123,MST_test,2024.2.0,59.83495127443477,2026-01-19 17h34.48.893197 +0530,
124,0,125,s,1.5829377999762073,None,125,0,124,328.60257739998633,,,,,,,,,,,,,,,,,,,,,,,,,,,,,,,,,,,,,,,,,,,,,,,,,,328.58591689995956,328.60257739998633,329.08772599999793,329.1070122999954,329.12201079999795,329.12201079999795,329.12201079999795,330.7108181999647,Objects\303b.jpg,mid,s,1.5829377999762073,None,,,,,,,,00060,001,2026-01-19_17h34.35.123,MST_test,2024.2.0,59.83495127443477,2026-01-19 17h34.48.893197 +0530,
125,0,126,n,0.8364260999951512,None,126,0,125,330.72719029994914,,,,,,,,,,,,,,,,,,,,,,,,,,,,,,,,,,,,,,,,,,,,,,,,,,330.7109133999911,330.72719029994914,331.2118109999574,331.2274160999805,331.2452124999836,331.2452124999836,331.2452124999836,332.0822728999774,Foils\058a.jpg,none,n,0.8364260999951512,None,,,,,,,,00060,001,2026-01-19_17h34.35.123,MST_test,2024.2.0,59.83495127443477,2026-01-19 17h34.48.893197 +0530,
126,0,127,o,1.2088258999865502,None,127,0,126,332.0981948999688,,,,,,,,,,,,,,,,,,,,,,,,,,,,,,,,,,,,,,,,,,,,,,,,,,332.082365499984,332.0981948999688,332.5836639999761,332.59319259994663,332.61649269994814,332.61649269994814,332.61649269994814,333.83809360000305,Objects\050b.jpg,mid,o,1.2088258999865502,None,,,,,,,,00060,001,2026-01-19_17h34.35.123,MST_test,2024.2.0,59.83495127443477,2026-01-19 17h34.48.893197 +0530,
127,0,128,s,1.1181364000076428,None,128,0,127,333.8541988999932,,,,,,,,,,,,,,,,,,,,,,,,,,,,,,,,,,,,,,,,,,,,,,,,,,333.8381906999857,333.8541988999932,334.3393762999913,334.3543851999566,334.3726698999526,334.3726698999526,334.3726698999526,335.4937674999819,Objects\230b.jpg,mid,s,1.1181364000076428,None,,,,,,,,00060,001,2026-01-19_17h34.35.123,MST_test,2024.2.0,59.83495127443477,2026-01-19 17h34.48.893197 +0530,
128,0,129,o,0.963937500026077,None,129,0,128,335.50967879995005,,,,,,,,,,,,,,,,,,,,,,,,,,,,,,,,,,,,,,,,,,,,,,,,,,335.4938706999528,335.50967879995005,335.9950414999621,336.00849179999204,336.02952389995335,336.02952389995335,336.02952389995335,336.99955049995333,Objects\224b.jpg,pre,o,0.963937500026077,None,,,,,,,,00060,001,2026-01-19_17h34.35.123,MST_test,2024.2.0,59.83495127443477,2026-01-19 17h34.48.893197 +0530,
129,0,130,n,1.6437939999741502,None,130,0,129,337.01530999998795,,,,,,,,,,,,,,,,,,,,,,,,,,,,,,,,,,,,,,,,,,,,,,,,,,336.9996491999482,337.01530999998795,337.50027309998404,337.5145546999993,337.53374220000114,337.53374220000114,337.53374220000114,339.1902364999987,Foils\093b.jpg,none,n,1.6437939999741502,None,,,,,,,,00060,001,2026-01-19_17h34.35.123,MST_test,2024.2.0,59.83495127443477,2026-01-19 17h34.48.893197 +0530,
130,0,131,n,0.9811870999983512,None,131,0,130,339.206244699948,,,,,,,,,,,,,,,,,,,,,,,,,,,,,,,,,,,,,,,,,,,,,,,,,,339.1903293999494,339.206244699948,339.69102529995143,339.70107739995,339.72451299999375,339.72451299999375,339.72451299999375,340.7120995000005,Foils\090a.jpg,none,n,0.9811870999983512,None,,,,,,,,00060,001,2026-01-19_17h34.35.123,MST_test,2024.2.0,59.83495127443477,2026-01-19 17h34.48.893197 +0530,
131,0,132,s,3.3311653999844566,None,132,0,131,340.72794909996446,,,,,,,,,,,,,,,,,,,,,,,,,,,,,,,,,,,,,,,,,,,,,,,,,,340.7121969999862,340.72794909996446,341.21317669999553,341.2191463999916,341.2296699999715,341.2296699999715,341.2296699999715,344.57543509994866,Foils\f6.jpg,none,s,3.3311653999844566,None,,,,,,,,00060,001,2026-01-19_17h34.35.123,MST_test,2024.2.0,59.83495127443477,2026-01-19 17h34.48.893197 +0530,
132,0,133,n,1.3239030000404455,None,133,0,132,344.5915852999897,,,,,,,,,,,,,,,,,,,,,,,,,,,,,,,,,,,,,,,,,,,,,,,,,,344.5755336000002,344.5915852999897,345.07680999999866,345.0926969999564,345.11003439995693,345.11003439995693,345.11003439995693,346.44862479995936,Objects\327b.jpg,pre,n,1.3239030000404455,None,,,,,,,,00060,001,2026-01-19_17h34.35.123,MST_test,2024.2.0,59.83495127443477,2026-01-19 17h34.48.893197 +0530,
133,0,134,o,1.570408099971246,None,134,0,133,346.46484229998896,,,,,,,,,,,,,,,,,,,,,,,,,,,,,,,,,,,,,,,,,,,,,,,,,,346.44871539995074,346.46484229998896,346.94989960000385,346.96310419996735,346.9831529999501,346.9831529999501,346.9831529999501,348.5560454999795,Objects\251b.jpg,post,o,1.570408099971246,None,,,,,,,,00060,001,2026-01-19_17h34.35.123,MST_test,2024.2.0,59.83495127443477,2026-01-19 17h34.48.893197 +0530,
134,0,135,n,1.3749901000410318,None,135,0,134,348.57220649998635,,,,,,,,,,,,,,,,,,,,,,,,,,,,,,,,,,,,,,,,,,,,,,,,,,348.5561388999922,348.57220649998635,349.0573476999998,349.0720335999504,349.0906480999547,349.0906480999547,349.0906480999547,350.4793171999627,Objects\184b.jpg,post,n,1.3749901000410318,None,,,,,,,,00060,001,2026-01-19_17h34.35.123,MST_test,2024.2.0,59.83495127443477,2026-01-19 17h34.48.893197 +0530,
135,0,136,s,1.2998572000069544,None,136,0,135,350.4957682999666,,,,,,,,,,,,,,,,,,,,,,,,,,,,,,,,,,,,,,,,,,,,,,,,,,350.4794139000005,350.4957682999666,350.98073409998324,350.98997389996657,351.0142218999681,351.0142218999681,351.0142218999681,352.3192247999832,Objects\060b.jpg,pre,s,1.2998572000069544,None,,,,,,,,00060,001,2026-01-19_17h34.35.123,MST_test,2024.2.0,59.83495127443477,2026-01-19 17h34.48.893197 +0530,
136,0,137,o,1.2276078999857418,None,137,0,136,352.3355801999569,,,,,,,,,,,,,,,,,,,,,,,,,,,,,,,,,,,,,,,,,,,,,,,,,,352.319320999959,352.3355801999569,352.82062620000215,352.82995769998524,352.85386529995594,352.85386529995594,352.85386529995594,354.0923147999565,Foils\017a.jpg,none,o,1.2276078999857418,None,,,,,,,,00060,001,2026-01-19_17h34.35.123,MST_test,2024.2.0,59.83495127443477,2026-01-19 17h34.48.893197 +0530,
137,0,138,o,1.1687423000112176,None,138,0,137,354.10841970000183,,,,,,,,,,,,,,,,,,,,,,,,,,,,,,,,,,,,,,,,,,,,,,,,,,354.0924095999799,354.10841970000183,354.59340650000377,354.59587659995304,354.6100243999972,354.6100243999972,354.6100243999972,355.781204400002,Objects\274a.jpg,mid,o,1.1687423000112176,None,,,,,,,,00060,001,2026-01-19_17h34.35.123,MST_test,2024.2.0,59.83495127443477,2026-01-19 17h34.48.893197 +0530,
138,0,139,n,0.8125282000401057,None,139,0,138,355.7976788999513,,,,,,,,,,,,,,,,,,,,,,,,,,,,,,,,,,,,,,,,,,,,,,,,,,355.781299699971,355.7976788999513,356.28263219998917,356.2919221999473,356.3165520999464,356.3165520999464,356.3165520999464,357.1359021999524,Foils\101b.jpg,none,n,0.8125282000401057,None,,,,,,,,00060,001,2026-01-19_17h34.35.123,MST_test,2024.2.0,59.83495127443477,2026-01-19 17h34.48.893197 +0530,
139,0,140,n,0.8184738999698311,None,140,0,139,357.15240829996765,,,,,,,,,,,,,,,,,,,,,,,,,,,,,,,,,,,,,,,,,,,,,,,,,,357.1360007999465,357.15240829996765,357.63744099996984,357.64724819996627,357.67070329998387,357.67070329998387,357.67070329998387,358.4908389999764,Foils\074a.jpg,none,n,0.8184738999698311,None,,,,,,,,00060,001,2026-01-19_17h34.35.123,MST_test,2024.2.0,59.83495127443477,2026-01-19 17h34.48.893197 +0530,
140,0,141,o,1.152489300002344,None,141,0,140,358.50708739995025,,,,,,,,,,,,,,,,,,,,,,,,,,,,,,,,,,,,,,,,,,,,,,,,,,358.4909378999728,358.50708739995025,358.99212089995854,358.99502789997496,359.0086007999489,359.0086007999489,359.0086007999489,360.1636101999902,Objects\171a.jpg,pre,o,1.152489300002344,None,,,,,,,,00060,001,2026-01-19_17h34.35.123,MST_test,2024.2.0,59.83495127443477,2026-01-19 17h34.48.893197 +0530,
141,0,142,o,2.7368663999950513,None,142,0,141,360.17938619997585,,,,,,,,,,,,,,,,,,,,,,,,,,,,,,,,,,,,,,,,,,,,,,,,,,360.1637027999968,360.17938619997585,360.6645905000041,360.6726837999886,360.68073239998193,360.68073239998193,360.68073239998193,363.4250166999991,Objects\372a.jpg,post,o,2.7368663999950513,None,,,,,,,,00060,001,2026-01-19_17h34.35.123,MST_test,2024.2.0,59.83495127443477,2026-01-19 17h34.48.893197 +0530,
142,0,143,o,0.9554350999533199,None,143,0,142,363.4409841999877,,,,,,,,,,,,,,,,,,,,,,,,,,,,,,,,,,,,,,,,,,,,,,,,,,363.4251217999845,363.4409841999877,363.92591569997603,363.9333504999522,363.94261460000416,363.94261460000416,363.94261460000416,364.91414719994646,Objects\165a.jpg,pre,o,0.9554350999533199,None,,,,,,,,00060,001,2026-01-19_17h34.35.123,MST_test,2024.2.0,59.83495127443477,2026-01-19 17h34.48.893197 +0530,
143,0,144,s,2.5310627999715507,None,144,0,143,364.92943019996164,,,,,,,,,,,,,,,,,,,,,,,,,,,,,,,,,,,,,,,,,,,,,,,,,,364.9142618999467,364.92943019996164,365.4148717999924,365.42198149999604,365.430630799965,365.430630799965,365.430630799965,367.9739431999624,Objects\205a.jpg,mid,s,2.5310627999715507,None,,,,,,,,00060,001,2026-01-19_17h34.35.123,MST_test,2024.2.0,59.83495127443477,2026-01-19 17h34.48.893197 +0530,
144,0,145,n,1.173962999950163,None,145,0,144,367.99021019996144,,,,,,,,,,,,,,,,,,,,,,,,,,,,,,,,,,,,,,,,,,,,,,,,,,367.97404729999835,367.99021019996144,368.4752214999753,368.4836326999939,368.4914252999588,368.4914252999588,368.4914252999588,369.6807731000008,Objects\281a.jpg,post,n,1.173962999950163,None,,,,,,,,00060,001,2026-01-19_17h34.35.123,MST_test,2024.2.0,59.83495127443477,2026-01-19 17h34.48.893197 +0530,
145,0,146,n,0.8419066999922507,None,146,0,145,369.69690719997743,,,,,,,,,,,,,,,,,,,,,,,,,,,,,,,,,,,,,,,,,,,,,,,,,,369.6808763999725,369.69690719997743,370.18159130000276,370.1981874999474,370.2153029999463,370.2153029999463,370.2153029999463,371.06921669997973,Objects\045b.jpg,post,n,0.8419066999922507,None,,,,,,,,00060,001,2026-01-19_17h34.35.123,MST_test,2024.2.0,59.83495127443477,2026-01-19 17h34.48.893197 +0530,
146,0,147,o,0.9669113000272773,None,147,0,146,371.0851993999677,,,,,,,,,,,,,,,,,,,,,,,,,,,,,,,,,,,,,,,,,,,,,,,,,,371.06932579999557,371.0851993999677,371.5693758999696,371.57247399998596,371.58635239995783,371.58635239995783,371.58635239995783,372.55679239996243,Objects\062a.jpg,mid,o,0.9669113000272773,None,,,,,,,,00060,001,2026-01-19_17h34.35.123,MST_test,2024.2.0,59.83495127443477,2026-01-19 17h34.48.893197 +0530,
147,0,148,n,1.3896382999955676,None,148,0,147,372.5728014999768,,,,,,,,,,,,,,,,,,,,,,,,,,,,,,,,,,,,,,,,,,,,,,,,,,372.55688389996067,372.5728014999768,373.05799669999396,373.06754889996955,373.0912407999858,373.0912407999858,373.0912407999858,374.49675209994894,Objects\017b.jpg,post,n,1.3896382999955676,None,,,,,,,,00060,001,2026-01-19_17h34.35.123,MST_test,2024.2.0,59.83495127443477,2026-01-19 17h34.48.893197 +0530,
148,0,149,o,0.8663663999759592,None,149,0,148,374.5130431999569,,,,,,,,,,,,,,,,,,,,,,,,,,,,,,,,,,,,,,,,,,,,,,,,,,374.4968512999476,374.5130431999569,374.99802810000256,375.0012439999846,375.01475869998103,375.01475869998103,375.01475869998103,375.8853067999589,Objects\030a.jpg,post,o,0.8663663999759592,None,,,,,,,,00060,001,2026-01-19_17h34.35.123,MST_test,2024.2.0,59.83495127443477,2026-01-19 17h34.48.893197 +0530,
149,0,150,s,1.2785305999568664,None,150,0,149,375.9011343999882,,,,,,,,,,,,,,,,,,,,,,,,,,,,,,,,,,,,,,,,,,,,,,,,,,375.88540759996977,375.9011343999882,376.386473999999,376.3954657999566,376.4195811999962,376.4195811999962,376.4195811999962,377.7079894999624,Foils\018a.jpg,none,s,1.2785305999568664,None,,,,,,,,00060,001,2026-01-19_17h34.35.123,MST_test,2024.2.0,59.83495127443477,2026-01-19 17h34.48.893197 +0530,
,,,,,,,,,,,,,,,,,,,,,,,,,,,,,,,,,,,,,,,,,,,,,,,,,,,,,,,,,,,,,,,,,,,,,,,,377.708054799994,377.7241511999746,377.7241511999746,381.471713899984,space,3.742190600023605,None,00060,001,2026-01-19_17h34.35.123,MST_test,2024.2.0,59.83495127443477,2026-01-19 17h34.48.893197 +0530,
