thisN,thisTrialN,thisRepN,key_resp_3.keys,key_resp_3.rt,key_resp_3.duration,trials.thisRepN,trials.thisTrialN,trials.thisN,thisRow.t,notes,intro_page.started,text.started,key_resp.started,intro_page.stopped,key_resp.keys,key_resp.rt,key_resp.duration,instructions.started,text_2.started,key_resp_2.started,instructions.stopped,key_resp_2.keys,key_resp_2.rt,key_resp_2.duration,demo1.started,image_1.started,image_2.started,text_7.started,key_resp_6.started,text_9.started,demo1.stopped,key_resp_6.keys,key_resp_6.rt,key_resp_6.duration,demo3.started,image_5.started,image_6.started,text_11.started,text_12.started,key_resp_8.started,demo3.stopped,key_resp_8.keys,key_resp_8.rt,key_resp_8.duration,demo_conclusion.started,text_13.started,key_resp_9.started,demo_conclusion.stopped,key_resp_9.keys,key_resp_9.rt,key_resp_9.duration,start_test.started,text_6.started,key_resp_5.started,start_test.stopped,key_resp_5.keys,key_resp_5.rt,key_resp_5.duration,ISI.started,text_4.started,text_4.stopped,ISI.stopped,routine_1.started,image.started,text_3.started,key_resp_3.started,routine_1.stopped,image_path,position_of_stimuli,trials.key_resp_3.keys,trials.key_resp_3.rt,trials.key_resp_3.duration,End_page.started,text_5.started,key_resp_4.started,End_page.stopped,key_resp_4.keys,key_resp_4.rt,key_resp_4.duration,participant,session,date,expName,psychopyVersion,frameRate,expStart,
,,,,,,,,,,,0.0012563000000227476,0.003036699999938719,0.003036699999938719,2.3770275999995647,space,2.365828699999838,None,,,,,,,,,,,,,,,,,,,,,,,,,,,,,,,,,,,,,,,,,,,,,,,,,,,,,,,,,,,,,,,00062,001,2026-01-19_19h46.43.275,MST_test,2024.2.0,59.99656819614141,2026-01-19 19h46.50.915533 +0530,
,,,,,,,,,,,,,,,,,,2.3771469999992405,2.401965699998982,2.401965699998982,12.288379100000384,space,9.879580099999657,None,,,,,,,,,,,,,,,,,,,,,,,,,,,,,,,,,,,,,,,,,,,,,,,,,,,,,,,,00062,001,2026-01-19_19h46.43.275,MST_test,2024.2.0,59.99656819614141,2026-01-19 19h46.50.915533 +0530,
,,,,,,,,,,,,,,,,,,,,,,,,,12.28847549999955,12.329862000000503,12.329862000000503,12.329862000000503,12.329862000000503,12.329862000000503,19.15525609999895,space,6.815172099999472,None,,,,,,,,,,,,,,,,,,,,,,,,,,,,,,,,,,,,,,,,,,,,,,00062,001,2026-01-19_19h46.43.275,MST_test,2024.2.0,59.99656819614141,2026-01-19 19h46.50.915533 +0530,
,,,,,,,,,,,,,,,,,,,,,,,,,,,,,,,,,,,19.15536880000036,19.17114980000042,19.17114980000042,19.17114980000042,19.17114980000042,19.17114980000042,21.505362300000343,space,2.3262814999998227,None,,,,,,,,,,,,,,,,,,,,,,,,,,,,,,,,,,,,00062,001,2026-01-19_19h46.43.275,MST_test,2024.2.0,59.99656819614141,2026-01-19 19h46.50.915533 +0530,
,,,,,,,,,,,,,,,,,,,,,,,,,,,,,,,,,,,,,,,,,,,,,21.50546299999951,21.52152810000007,21.52152810000007,35.638173299999835,space,14.11129290000099,None,,,,,,,,,,,,,,,,,,,,,,,,,,,,,00062,001,2026-01-19_19h46.43.275,MST_test,2024.2.0,59.99656819614141,2026-01-19 19h46.50.915533 +0530,
,,,,,,,,,,,,,,,,,,,,,,,,,,,,,,,,,,,,,,,,,,,,,,,,,,,,35.63828959999955,35.669311699999525,35.669311699999525,103.0713242999991,space,67.38773799999944,None,,,,,,,,,,,,,,,,,,,,,,00062,001,2026-01-19_19h46.43.275,MST_test,2024.2.0,59.99656819614141,2026-01-19 19h46.50.915533 +0530,
0,0,1,o,3.4567695000005187,None,1,0,0,103.08867139999893,,,,,,,,,,,,,,,,,,,,,,,,,,,,,,,,,,,,,,,,,,,,,,,,,,103.07839359999889,103.08867139999893,103.59292839999944,103.57142480000039,103.59072969999943,103.59292839999944,103.59292839999944,103.59292839999944,107.05512110000018,Objects\226a.jpg,mid,o,3.4567695000005187,None,,,,,,,,00062,001,2026-01-19_19h46.43.275,MST_test,2024.2.0,59.99656819614141,2026-01-19 19h46.50.915533 +0530,
1,0,2,n,2.216424399999596,None,2,0,1,107.07107969999925,,,,,,,,,,,,,,,,,,,,,,,,,,,,,,,,,,,,,,,,,,,,,,,,,,107.05547739999929,107.07107969999925,107.6006054999998,107.55521070000032,107.59847029999946,107.6006054999998,107.6006054999998,107.6006054999998,109.82198479999897,Objects\359b.jpg,post,n,2.216424399999596,None,,,,,,,,00062,001,2026-01-19_19h46.43.275,MST_test,2024.2.0,59.99656819614141,2026-01-19 19h46.50.915533 +0530,
2,0,3,n,2.4406658000007155,None,3,0,2,109.83781629999976,,,,,,,,,,,,,,,,,,,,,,,,,,,,,,,,,,,,,,,,,,,,,,,,,,109.8223324999999,109.83781629999976,110.37670529999923,110.32146069999908,110.37444340000002,110.37670529999923,110.37670529999923,110.37670529999923,112.82177769999907,Objects\186b.jpg,post,n,2.4406658000007155,None,,,,,,,,00062,001,2026-01-19_19h46.43.275,MST_test,2024.2.0,59.99656819614141,2026-01-19 19h46.50.915533 +0530,
3,0,4,o,1.6310326000002533,None,4,0,3,112.8379187999999,,,,,,,,,,,,,,,,,,,,,,,,,,,,,,,,,,,,,,,,,,,,,,,,,,112.82213279999996,112.8379187999999,113.33784480000031,113.32158270000036,113.33056519999991,113.33784480000031,113.33784480000031,113.33784480000031,114.9716685000003,Objects\363a.jpg,post,o,1.6310326000002533,None,,,,,,,,00062,001,2026-01-19_19h46.43.275,MST_test,2024.2.0,59.99656819614141,2026-01-19 19h46.50.915533 +0530,
4,0,5,n,2.645281999999497,None,5,0,4,114.98815339999965,,,,,,,,,,,,,,,,,,,,,,,,,,,,,,,,,,,,,,,,,,,,,,,,,,114.97201759999916,114.98815339999965,115.51608149999993,115.47153959999923,115.51401470000019,115.51608149999993,115.51608149999993,115.51608149999993,118.17159530000026,Foils\093b.jpg,none,n,2.645281999999497,None,,,,,,,,00062,001,2026-01-19_19h46.43.275,MST_test,2024.2.0,59.99656819614141,2026-01-19 19h46.50.915533 +0530,
5,0,6,n,1.320244399999865,None,6,0,5,118.18761819999963,,,,,,,,,,,,,,,,,,,,,,,,,,,,,,,,,,,,,,,,,,,,,,,,,,118.17197180000039,118.18761819999963,118.71268659999987,118.67193679999946,118.71059280000009,118.71268659999987,118.71268659999987,118.71268659999987,120.03797519999898,Foils\034a.jpg,none,n,1.320244399999865,None,,,,,,,,00062,001,2026-01-19_19h46.43.275,MST_test,2024.2.0,59.99656819614141,2026-01-19 19h46.50.915533 +0530,
6,0,7,o,1.9704053999994358,None,7,0,6,120.05428670000038,,,,,,,,,,,,,,,,,,,,,,,,,,,,,,,,,,,,,,,,,,,,,,,,,,120.038321,120.05428670000038,120.59045089999927,120.53822889999901,120.587846299999,120.59045089999927,120.59045089999927,120.59045089999927,122.57161619999897,Objects\322b.jpg,post,o,1.9704053999994358,None,,,,,,,,00062,001,2026-01-19_19h46.43.275,MST_test,2024.2.0,59.99656819614141,2026-01-19 19h46.50.915533 +0530,
7,0,8,o,2.920804600000338,None,8,0,7,122.58782389999942,,,,,,,,,,,,,,,,,,,,,,,,,,,,,,,,,,,,,,,,,,,,,,,,,,122.57198470000003,122.58782389999942,123.1199316000002,123.07150929999989,123.11768610000036,123.1199316000002,123.1199316000002,123.1199316000002,126.05514269999912,Objects\015b.jpg,mid,o,2.920804600000338,None,,,,,,,,00062,001,2026-01-19_19h46.43.275,MST_test,2024.2.0,59.99656819614141,2026-01-19 19h46.50.915533 +0530,
8,0,9,o,1.4140996999994968,None,9,0,8,126.07098749999932,,,,,,,,,,,,,,,,,,,,,,,,,,,,,,,,,,,,,,,,,,,,,,,,,,126.05549140000039,126.07098749999932,126.57124459999977,126.55469830000038,126.56275570000071,126.57124459999977,126.57124459999977,126.57124459999977,127.9886207999989,Objects\296a.jpg,mid,o,1.4140996999994968,None,,,,,,,,00062,001,2026-01-19_19h46.43.275,MST_test,2024.2.0,59.99656819614141,2026-01-19 19h46.50.915533 +0530,
9,0,10,o,0.8309676999997464,None,10,0,9,128.00522459999956,,,,,,,,,,,,,,,,,,,,,,,,,,,,,,,,,,,,,,,,,,,,,,,,,,127.98898569999983,128.00522459999956,,128.50541879999946,128.51440039999943,128.5220090999992,128.5220090999992,128.5220090999992,129.3547510999997,Objects\127a.jpg,post,o,0.8309676999997464,None,,,,,,,,00062,001,2026-01-19_19h46.43.275,MST_test,2024.2.0,59.99656819614141,2026-01-19 19h46.50.915533 +0530,
10,0,11,o,0.7373134000008577,None,11,0,10,129.37095369999952,,,,,,,,,,,,,,,,,,,,,,,,,,,,,,,,,,,,,,,,,,,,,,,,,,129.3551011999989,129.37095369999952,129.87158060000002,129.85471130000042,129.8632849000005,129.87158060000002,129.87158060000002,129.87158060000002,130.621465799999,Objects\241a.jpg,pre,o,0.7373134000008577,None,,,,,,,,00062,001,2026-01-19_19h46.43.275,MST_test,2024.2.0,59.99656819614141,2026-01-19 19h46.50.915533 +0530,
11,0,12,o,0.8357156000001851,None,12,0,11,130.63855440000043,,,,,,,,,,,,,,,,,,,,,,,,,,,,,,,,,,,,,,,,,,,,,,,,,,130.62182810000013,130.63855440000043,131.1656211999998,131.1214134999991,131.1632673999993,131.1656211999998,131.1656211999998,131.1656211999998,132.00492180000037,Objects\369b.jpg,mid,o,0.8357156000001851,None,,,,,,,,00062,001,2026-01-19_19h46.43.275,MST_test,2024.2.0,59.99656819614141,2026-01-19 19h46.50.915533 +0530,
12,0,13,o,1.471744899999976,None,13,0,12,132.02075829999922,,,,,,,,,,,,,,,,,,,,,,,,,,,,,,,,,,,,,,,,,,,,,,,,,,132.00526919999902,132.02075829999922,132.52160209999965,132.50463429999945,132.51423579999937,132.52160209999965,132.52160209999965,132.52160209999965,134.00511449999976,Objects\383a.jpg,mid,o,1.471744899999976,None,,,,,,,,00062,001,2026-01-19_19h46.43.275,MST_test,2024.2.0,59.99656819614141,2026-01-19 19h46.50.915533 +0530,
13,0,14,o,0.8155368000007002,None,14,0,13,134.021086499999,,,,,,,,,,,,,,,,,,,,,,,,,,,,,,,,,,,,,,,,,,,,,,,,,,134.00546600000052,134.021086499999,134.52115679999952,134.50485929999923,134.51459020000038,134.52115679999952,134.52115679999952,134.52115679999952,135.33826899999985,Objects\213a.jpg,post,o,0.8155368000007002,None,,,,,,,,00062,001,2026-01-19_19h46.43.275,MST_test,2024.2.0,59.99656819614141,2026-01-19 19h46.50.915533 +0530,
14,0,15,s,3.7278518000002805,None,15,0,14,135.35458950000066,,,,,,,,,,,,,,,,,,,,,,,,,,,,,,,,,,,,,,,,,,,,,,,,,,135.3385722999992,135.35458950000066,,135.83880510000017,135.88677029999963,135.88885029999983,135.88885029999983,135.88885029999983,139.62157800000023,Objects\348b.jpg,pre,s,3.7278518000002805,None,,,,,,,,00062,001,2026-01-19_19h46.43.275,MST_test,2024.2.0,59.99656819614141,2026-01-19 19h46.50.915533 +0530,
15,0,16,s,1.0293490000003658,None,16,0,15,139.63780860000043,,,,,,,,,,,,,,,,,,,,,,,,,,,,,,,,,,,,,,,,,,,,,,,,,,139.62192850000065,139.63780860000043,140.17188299999907,140.12184109999907,140.16925189999893,140.17188299999907,140.17188299999907,140.17188299999907,141.2054537999993,Objects\321b.jpg,post,s,1.0293490000003658,None,,,,,,,,00062,001,2026-01-19_19h46.43.275,MST_test,2024.2.0,59.99656819614141,2026-01-19 19h46.50.915533 +0530,
16,0,17,n,4.651624899999661,None,17,0,16,141.22115529999974,,,,,,,,,,,,,,,,,,,,,,,,,,,,,,,,,,,,,,,,,,,,,,,,,,141.20580250000057,141.22115529999974,141.75716959999954,141.70479899999918,141.7544582999999,141.75716959999954,141.75716959999954,141.75716959999954,146.42159960000026,Objects\350b.jpg,pre,n,4.651624899999661,None,,,,,,,,00062,001,2026-01-19_19h46.43.275,MST_test,2024.2.0,59.99656819614141,2026-01-19 19h46.50.915533 +0530,
17,0,18,o,2.150369299999511,None,18,0,17,146.43781839999974,,,,,,,,,,,,,,,,,,,,,,,,,,,,,,,,,,,,,,,,,,,,,,,,,,146.42194819999895,146.43781839999974,146.93827500000043,146.92146540000067,146.92917639999905,146.93827500000043,146.93827500000043,146.93827500000043,149.10484309999993,Objects\200a.jpg,mid,o,2.150369299999511,None,,,,,,,,00062,001,2026-01-19_19h46.43.275,MST_test,2024.2.0,59.99656819614141,2026-01-19 19h46.50.915533 +0530,
18,0,19,n,2.6595340999992914,None,19,0,18,149.12085859999934,,,,,,,,,,,,,,,,,,,,,,,,,,,,,,,,,,,,,,,,,,,,,,,,,,149.10519310000018,149.12085859999934,149.6538031,149.60467860000063,149.65156430000025,149.6538031,149.6538031,149.6538031,152.3217912,Foils\097a.jpg,none,n,2.6595340999992914,None,,,,,,,,00062,001,2026-01-19_19h46.43.275,MST_test,2024.2.0,59.99656819614141,2026-01-19 19h46.50.915533 +0530,
19,0,20,s,2.3991865000007238,None,20,0,19,152.33799980000003,,,,,,,,,,,,,,,,,,,,,,,,,,,,,,,,,,,,,,,,,,,,,,,,,,152.32214720000047,152.33799980000003,152.8663317999999,152.8212786999993,152.8639428000006,152.8663317999999,152.8663317999999,152.8663317999999,155.27152569999998,Objects\072b.jpg,pre,s,2.3991865000007238,None,,,,,,,,00062,001,2026-01-19_19h46.43.275,MST_test,2024.2.0,59.99656819614141,2026-01-19 19h46.50.915533 +0530,
20,0,21,n,3.5571872999989864,None,21,0,20,155.2873383999995,,,,,,,,,,,,,,,,,,,,,,,,,,,,,,,,,,,,,,,,,,,,,,,,,,155.2718719000004,155.2873383999995,155.81167280000045,155.77152989999922,155.80835169999955,155.81167280000045,155.81167280000045,155.81167280000045,159.3719043000001,Foils\f7.jpg,none,n,3.5571872999989864,None,,,,,,,,00062,001,2026-01-19_19h46.43.275,MST_test,2024.2.0,59.99656819614141,2026-01-19 19h46.50.915533 +0530,
21,0,22,s,3.147528699999384,None,22,0,21,159.38774449999983,,,,,,,,,,,,,,,,,,,,,,,,,,,,,,,,,,,,,,,,,,,,,,,,,,159.3722512000004,159.38774449999983,159.91779759999918,159.87156510000023,159.91543249999995,159.91779759999918,159.91779759999918,159.91779759999918,163.07253579999997,Objects\031b.jpg,pre,s,3.147528699999384,None,,,,,,,,00062,001,2026-01-19_19h46.43.275,MST_test,2024.2.0,59.99656819614141,2026-01-19 19h46.50.915533 +0530,
22,0,23,n,2.1205265000007785,None,23,0,22,163.0876647999994,,,,,,,,,,,,,,,,,,,,,,,,,,,,,,,,,,,,,,,,,,,,,,,,,,163.07288659999904,163.0876647999994,163.63324289999946,163.57130929999948,163.63096099999893,163.63324289999946,163.63324289999946,163.63324289999946,165.75519390000045,Foils\009a.jpg,none,n,2.1205265000007785,None,,,,,,,,00062,001,2026-01-19_19h46.43.275,MST_test,2024.2.0,59.99656819614141,2026-01-19 19h46.50.915533 +0530,
23,0,24,o,1.7219676000004256,None,24,0,23,165.77114699999947,,,,,,,,,,,,,,,,,,,,,,,,,,,,,,,,,,,,,,,,,,,,,,,,,,165.75554659999943,165.77114699999947,166.3033532999998,166.2544111999996,166.30046319999929,166.3033532999998,166.3033532999998,166.3033532999998,168.03891280000062,Objects\310b.jpg,mid,o,1.7219676000004256,None,,,,,,,,00062,001,2026-01-19_19h46.43.275,MST_test,2024.2.0,59.99656819614141,2026-01-19 19h46.50.915533 +0530,
24,0,25,s,2.3401059999996505,None,25,0,24,168.05504370000017,,,,,,,,,,,,,,,,,,,,,,,,,,,,,,,,,,,,,,,,,,,,,,,,,,168.03926019999926,168.05504370000017,168.57250430000022,168.53822219999893,168.56997950000004,168.57250430000022,168.57250430000022,168.57250430000022,170.92140440000003,Foils\082a.jpg,none,s,2.3401059999996505,None,,,,,,,,00062,001,2026-01-19_19h46.43.275,MST_test,2024.2.0,59.99656819614141,2026-01-19 19h46.50.915533 +0530,
25,0,26,s,4.950029800000266,None,26,0,25,170.93736229999922,,,,,,,,,,,,,,,,,,,,,,,,,,,,,,,,,,,,,,,,,,,,,,,,,,170.92159390000052,170.93736229999922,171.45930000000044,171.42140329999893,171.45726110000032,171.45930000000044,171.45930000000044,171.45930000000044,176.42155379999895,Foils\113a.jpg,none,s,4.950029800000266,None,,,,,,,,00062,001,2026-01-19_19h46.43.275,MST_test,2024.2.0,59.99656819614141,2026-01-19 19h46.50.915533 +0530,
26,0,27,n,1.5271744999990915,None,27,0,26,176.43781180000042,,,,,,,,,,,,,,,,,,,,,,,,,,,,,,,,,,,,,,,,,,,,,,,,,,176.4219023000005,176.43781180000042,176.9383670999996,176.9210665999999,176.92781280000054,176.9383670999996,176.9383670999996,176.9383670999996,178.47184460000062,Objects\245a.jpg,pre,n,1.5271744999990915,None,,,,,,,,00062,001,2026-01-19_19h46.43.275,MST_test,2024.2.0,59.99656819614141,2026-01-19 19h46.50.915533 +0530,
27,0,28,s,2.9408371999998053,None,28,0,27,178.48776849999922,,,,,,,,,,,,,,,,,,,,,,,,,,,,,,,,,,,,,,,,,,,,,,,,,,178.47219380000024,178.48776849999922,179.02000550000048,178.97173870000006,179.01722100000006,179.02000550000048,179.02000550000048,179.02000550000048,181.97161570000026,Objects\183b.jpg,post,s,2.9408371999998053,None,,,,,,,,00062,001,2026-01-19_19h46.43.275,MST_test,2024.2.0,59.99656819614141,2026-01-19 19h46.50.915533 +0530,
28,0,29,s,2.421920200000386,None,29,0,28,181.9877190999996,,,,,,,,,,,,,,,,,,,,,,,,,,,,,,,,,,,,,,,,,,,,,,,,,,181.9719712999995,181.9877190999996,182.51576190000014,182.47180909999952,182.5134225999991,182.51576190000014,182.51576190000014,182.51576190000014,184.93863149999925,Objects\113b.jpg,mid,s,2.421920200000386,None,,,,,,,,00062,001,2026-01-19_19h46.43.275,MST_test,2024.2.0,59.99656819614141,2026-01-19 19h46.50.915533 +0530,
29,0,30,o,2.1787048999995022,None,30,0,29,184.95448709999982,,,,,,,,,,,,,,,,,,,,,,,,,,,,,,,,,,,,,,,,,,,,,,,,,,184.93899430000056,184.95448709999982,185.45461310000064,185.43785299999945,185.4450113999992,185.45461310000064,185.45461310000064,185.45461310000064,187.6385924999995,Objects\353a.jpg,post,o,2.1787048999995022,None,,,,,,,,00062,001,2026-01-19_19h46.43.275,MST_test,2024.2.0,59.99656819614141,2026-01-19 19h46.50.915533 +0530,
30,0,31,s,3.7457596999993257,None,31,0,30,187.65477869999995,,,,,,,,,,,,,,,,,,,,,,,,,,,,,,,,,,,,,,,,,,,,,,,,,,187.63893479999933,187.65477869999995,188.18391220000012,188.13814359999924,188.18167829999948,188.18391220000012,188.18391220000012,188.18391220000012,191.93839560000015,Foils\073a.jpg,none,s,3.7457596999993257,None,,,,,,,,00062,001,2026-01-19_19h46.43.275,MST_test,2024.2.0,59.99656819614141,2026-01-19 19h46.50.915533 +0530,
31,0,32,o,1.3719452000004821,None,32,0,31,191.95482869999978,,,,,,,,,,,,,,,,,,,,,,,,,,,,,,,,,,,,,,,,,,,,,,,,,,191.93874529999994,191.95482869999978,192.48471959999915,192.43814120000025,192.48240989999977,192.48471959999915,192.48471959999915,192.48471959999915,193.87183379999988,Objects\289b.jpg,pre,o,1.3719452000004821,None,,,,,,,,00062,001,2026-01-19_19h46.43.275,MST_test,2024.2.0,59.99656819614141,2026-01-19 19h46.50.915533 +0530,
32,0,33,s,1.272031500000594,None,33,0,32,193.88774749999902,,,,,,,,,,,,,,,,,,,,,,,,,,,,,,,,,,,,,,,,,,,,,,,,,,193.8721917999992,193.88774749999902,194.40915300000052,194.37158309999904,194.40607529999943,194.40915300000052,194.40915300000052,194.40915300000052,195.6883658000006,Foils\018a.jpg,none,s,1.272031500000594,None,,,,,,,,00062,001,2026-01-19_19h46.43.275,MST_test,2024.2.0,59.99656819614141,2026-01-19 19h46.50.915533 +0530,
33,0,34,s,2.0920963999997184,None,34,0,33,195.70436019999943,,,,,,,,,,,,,,,,,,,,,,,,,,,,,,,,,,,,,,,,,,,,,,,,,,195.68872229999943,195.70436019999943,196.20469699999921,196.1881381000003,196.19657179999922,196.20469699999921,196.20469699999921,196.20469699999921,198.3049374000002,Objects\068a.jpg,pre,s,2.0920963999997184,None,,,,,,,,00062,001,2026-01-19_19h46.43.275,MST_test,2024.2.0,59.99656819614141,2026-01-19 19h46.50.915533 +0530,
34,0,35,s,1.5604153999993287,None,35,0,34,198.32081149999976,,,,,,,,,,,,,,,,,,,,,,,,,,,,,,,,,,,,,,,,,,,,,,,,,,198.30530460000045,198.32081149999976,,198.80514389999917,198.87809220000054,198.88032139999996,198.88032139999996,198.88032139999996,200.45508449999943,Foils\086a.jpg,none,s,1.5604153999993287,None,,,,,,,,00062,001,2026-01-19_19h46.43.275,MST_test,2024.2.0,59.99656819614141,2026-01-19 19h46.50.915533 +0530,
35,0,36,o,1.1983245000010356,None,36,0,35,200.4712528,,,,,,,,,,,,,,,,,,,,,,,,,,,,,,,,,,,,,,,,,,,,,,,,,,200.4554365999993,200.4712528,200.97100180000052,200.95487719999983,200.96418859999903,200.97100180000052,200.97100180000052,200.97100180000052,202.17136530000062,Objects\053a.jpg,mid,o,1.1983245000010356,None,,,,,,,,00062,001,2026-01-19_19h46.43.275,MST_test,2024.2.0,59.99656819614141,2026-01-19 19h46.50.915533 +0530,
36,0,37,s,1.725288300000102,None,37,0,36,202.18782909999936,,,,,,,,,,,,,,,,,,,,,,,,,,,,,,,,,,,,,,,,,,,,,,,,,,202.17170729999998,202.18782909999936,202.72352460000002,202.67130309999993,202.7213897999991,202.72352460000002,202.72352460000002,202.72352460000002,204.45502639999904,Objects\022b.jpg,post,s,1.725288300000102,None,,,,,,,,00062,001,2026-01-19_19h46.43.275,MST_test,2024.2.0,59.99656819614141,2026-01-19 19h46.50.915533 +0530,
37,0,38,o,1.1575729999985924,None,38,0,37,204.4714655000007,,,,,,,,,,,,,,,,,,,,,,,,,,,,,,,,,,,,,,,,,,,,,,,,,,204.45537349999904,204.4714655000007,204.97197849999975,204.95486569999957,204.96375459999945,204.97197849999975,204.97197849999975,204.97197849999975,206.13840150000033,Objects\279a.jpg,post,o,1.1575729999985924,None,,,,,,,,00062,001,2026-01-19_19h46.43.275,MST_test,2024.2.0,59.99656819614141,2026-01-19 19h46.50.915533 +0530,
38,0,39,o,1.0579288999997516,None,39,0,38,206.15432920000057,,,,,,,,,,,,,,,,,,,,,,,,,,,,,,,,,,,,,,,,,,,,,,,,,,206.13874720000058,206.15432920000057,206.65473589999965,206.63809149999906,206.64416709999932,206.65473589999965,206.65473589999965,206.65473589999965,207.7215954000003,Objects\150a.jpg,mid,o,1.0579288999997516,None,,,,,,,,00062,001,2026-01-19_19h46.43.275,MST_test,2024.2.0,59.99656819614141,2026-01-19 19h46.50.915533 +0530,
39,0,40,s,1.9933892999997624,None,40,0,39,207.73816389999956,,,,,,,,,,,,,,,,,,,,,,,,,,,,,,,,,,,,,,,,,,,,,,,,,,207.72194769999987,207.73816389999956,208.25591750000058,208.22154749999936,208.25335880000057,208.25591750000058,208.25591750000058,208.25591750000058,210.2548201999998,Objects\272b.jpg,mid,s,1.9933892999997624,None,,,,,,,,00062,001,2026-01-19_19h46.43.275,MST_test,2024.2.0,59.99656819614141,2026-01-19 19h46.50.915533 +0530,
40,0,41,o,1.541967500001192,None,41,0,40,210.2710408999992,,,,,,,,,,,,,,,,,,,,,,,,,,,,,,,,,,,,,,,,,,,,,,,,,,210.2551868999999,210.2710408999992,210.77134280000064,210.75471160000052,210.76253410000027,210.77134280000064,210.77134280000064,210.77134280000064,212.32263889999922,Objects\344a.jpg,mid,o,1.541967500001192,None,,,,,,,,00062,001,2026-01-19_19h46.43.275,MST_test,2024.2.0,59.99656819614141,2026-01-19 19h46.50.915533 +0530,
41,0,42,o,1.1554094000002806,None,42,0,41,212.3377619999992,,,,,,,,,,,,,,,,,,,,,,,,,,,,,,,,,,,,,,,,,,,,,,,,,,212.32299389999935,212.3377619999992,212.83786789999976,212.8212210999991,212.83359109999947,212.83786789999976,212.83786789999976,212.83786789999976,214.0049068999997,Objects\088a.jpg,mid,o,1.1554094000002806,None,,,,,,,,00062,001,2026-01-19_19h46.43.275,MST_test,2024.2.0,59.99656819614141,2026-01-19 19h46.50.915533 +0530,
42,0,43,s,1.9126470999999583,None,43,0,42,214.02099219999945,,,,,,,,,,,,,,,,,,,,,,,,,,,,,,,,,,,,,,,,,,,,,,,,,,214.00525639999978,214.02099219999945,214.56003699999928,214.50488600000062,214.5578258000005,214.56003699999928,214.56003699999928,214.56003699999928,216.4882834,Objects\269b.jpg,mid,s,1.9126470999999583,None,,,,,,,,00062,001,2026-01-19_19h46.43.275,MST_test,2024.2.0,59.99656819614141,2026-01-19 19h46.50.915533 +0530,
43,0,44,n,1.871963899999173,None,44,0,43,216.50429350000013,,,,,,,,,,,,,,,,,,,,,,,,,,,,,,,,,,,,,,,,,,,,,,,,,,216.48865859999933,216.50429350000013,217.04962929999965,216.98821920000046,217.04729989999942,217.04962929999965,217.04962929999965,217.04962929999965,218.92253209999944,Foils\105a.jpg,none,n,1.871963899999173,None,,,,,,,,00062,001,2026-01-19_19h46.43.275,MST_test,2024.2.0,59.99656819614141,2026-01-19 19h46.50.915533 +0530,
44,0,45,o,1.882713099999819,None,45,0,44,218.93790099999933,,,,,,,,,,,,,,,,,,,,,,,,,,,,,,,,,,,,,,,,,,,,,,,,,,218.9229022999989,218.93790099999933,219.43803879999905,219.42137449999973,219.43004889999975,219.43803879999905,219.43803879999905,219.43803879999905,221.32169900000008,Objects\288a.jpg,pre,o,1.882713099999819,None,,,,,,,,00062,001,2026-01-19_19h46.43.275,MST_test,2024.2.0,59.99656819614141,2026-01-19 19h46.50.915533 +0530,
45,0,46,s,1.2815386000002036,None,46,0,45,221.33755810000002,,,,,,,,,,,,,,,,,,,,,,,,,,,,,,,,,,,,,,,,,,,,,,,,,,221.32206190000034,221.33755810000002,221.89519970000038,221.8214805000007,221.89275269999962,221.89519970000038,221.89519970000038,221.89519970000038,223.18856459999915,Foils\066a.jpg,none,s,1.2815386000002036,None,,,,,,,,00062,001,2026-01-19_19h46.43.275,MST_test,2024.2.0,59.99656819614141,2026-01-19 19h46.50.915533 +0530,
46,0,47,n,1.4754861000001256,None,47,0,46,223.20482339999944,,,,,,,,,,,,,,,,,,,,,,,,,,,,,,,,,,,,,,,,,,,,,,,,,,223.18891149999945,223.20482339999944,223.72580939999898,223.68802549999964,223.72313059999942,223.72580939999898,223.72580939999898,223.72580939999898,225.20508019999943,Objects\122b.jpg,post,n,1.4754861000001256,None,,,,,,,,00062,001,2026-01-19_19h46.43.275,MST_test,2024.2.0,59.99656819614141,2026-01-19 19h46.50.915533 +0530,
47,0,48,s,1.3577702000002319,None,48,0,47,225.22115610000037,,,,,,,,,,,,,,,,,,,,,,,,,,,,,,,,,,,,,,,,,,,,,,,,,,225.20543609999913,225.22115610000037,,225.70536429999993,225.75239689999944,225.7548850000003,225.7548850000003,225.7548850000003,227.1218262000002,Objects\217b.jpg,pre,s,1.3577702000002319,None,,,,,,,,00062,001,2026-01-19_19h46.43.275,MST_test,2024.2.0,59.99656819614141,2026-01-19 19h46.50.915533 +0530,
48,0,49,o,2.290473600000041,None,49,0,48,227.13810159999957,,,,,,,,,,,,,,,,,,,,,,,,,,,,,,,,,,,,,,,,,,,,,,,,,,227.12217190000047,227.13810159999957,227.63830749999943,227.62187330000052,227.6318678000007,227.63830749999943,227.63830749999943,227.63830749999943,229.93889859999945,Objects\282a.jpg,pre,o,2.290473600000041,None,,,,,,,,00062,001,2026-01-19_19h46.43.275,MST_test,2024.2.0,59.99656819614141,2026-01-19 19h46.50.915533 +0530,
49,0,50,n,2.7781950999997207,None,50,0,49,229.9544838999991,,,,,,,,,,,,,,,,,,,,,,,,,,,,,,,,,,,,,,,,,,,,,,,,,,229.93924920000063,229.9544838999991,230.47844369999984,230.4380385000004,230.47630410000056,230.47844369999984,230.47844369999984,230.47844369999984,233.2721543000007,Objects\091b.jpg,post,n,2.7781950999997207,None,,,,,,,,00062,001,2026-01-19_19h46.43.275,MST_test,2024.2.0,59.99656819614141,2026-01-19 19h46.50.915533 +0530,
50,0,51,o,2.9254277999989426,None,51,0,50,233.28782599999977,,,,,,,,,,,,,,,,,,,,,,,,,,,,,,,,,,,,,,,,,,,,,,,,,,233.27250169999934,233.28782599999977,233.78782669999964,233.7716113000006,233.77997119999964,233.78782669999964,233.78782669999964,233.78782669999964,236.72148759999982,Objects\097a.jpg,post,o,2.9254277999989426,None,,,,,,,,00062,001,2026-01-19_19h46.43.275,MST_test,2024.2.0,59.99656819614141,2026-01-19 19h46.50.915533 +0530,
51,0,52,n,2.8913456999998743,None,52,0,51,236.73789079999915,,,,,,,,,,,,,,,,,,,,,,,,,,,,,,,,,,,,,,,,,,,,,,,,,,236.72185630000058,236.73789079999915,237.26195860000007,237.2213654999996,237.25990499999898,237.26195860000007,237.26195860000007,237.26195860000007,240.1552515000003,Objects\169b.jpg,mid,n,2.8913456999998743,None,,,,,,,,00062,001,2026-01-19_19h46.43.275,MST_test,2024.2.0,59.99656819614141,2026-01-19 19h46.50.915533 +0530,
52,0,53,s,1.7787867000006372,None,53,0,52,240.17083970000022,,,,,,,,,,,,,,,,,,,,,,,,,,,,,,,,,,,,,,,,,,,,,,,,,,240.15560150000056,240.17083970000022,240.69459470000038,240.65536640000028,240.69153759999972,240.69459470000038,240.69459470000038,240.69459470000038,242.48845359999905,Objects\172b.jpg,mid,s,1.7787867000006372,None,,,,,,,,00062,001,2026-01-19_19h46.43.275,MST_test,2024.2.0,59.99656819614141,2026-01-19 19h46.50.915533 +0530,
53,0,54,s,1.4802420000014536,None,54,0,53,242.50448789999973,,,,,,,,,,,,,,,,,,,,,,,,,,,,,,,,,,,,,,,,,,,,,,,,,,242.4888157000005,242.50448789999973,243.04047059999903,242.98799639999925,243.03825890000007,243.04047059999903,243.04047059999903,243.04047059999903,244.52160039999944,Objects\332b.jpg,pre,s,1.4802420000014536,None,,,,,,,,00062,001,2026-01-19_19h46.43.275,MST_test,2024.2.0,59.99656819614141,2026-01-19 19h46.50.915533 +0530,
54,0,55,n,2.3482038999991346,None,55,0,54,244.53775060000044,,,,,,,,,,,,,,,,,,,,,,,,,,,,,,,,,,,,,,,,,,,,,,,,,,244.52195240000037,244.53775060000044,,245.02189840000028,245.05882340000062,245.06107220000013,245.06107220000013,245.06107220000013,247.42189429999962,Foils\010a.jpg,none,n,2.3482038999991346,None,,,,,,,,00062,001,2026-01-19_19h46.43.275,MST_test,2024.2.0,59.99656819614141,2026-01-19 19h46.50.915533 +0530,
55,0,56,s,2.6260700000002544,None,56,0,55,247.43766800000049,,,,,,,,,,,,,,,,,,,,,,,,,,,,,,,,,,,,,,,,,,,,,,,,,,247.42226499999924,247.43766800000049,247.9745772999995,247.92155529999945,247.97257249999893,247.9745772999995,247.9745772999995,247.9745772999995,250.6049363000002,Objects\165b.jpg,pre,s,2.6260700000002544,None,,,,,,,,00062,001,2026-01-19_19h46.43.275,MST_test,2024.2.0,59.99656819614141,2026-01-19 19h46.50.915533 +0530,
56,0,57,s,2.433518499999991,None,57,0,56,250.62154159999955,,,,,,,,,,,,,,,,,,,,,,,,,,,,,,,,,,,,,,,,,,,,,,,,,,250.60529130000032,250.62154159999955,251.15129119999983,251.1048178000001,251.14861849999943,251.15129119999983,251.15129119999983,251.15129119999983,253.58873010000025,Objects\138b.jpg,mid,s,2.433518499999991,None,,,,,,,,00062,001,2026-01-19_19h46.43.275,MST_test,2024.2.0,59.99656819614141,2026-01-19 19h46.50.915533 +0530,
57,0,58,n,3.0708912999998574,None,58,0,57,253.60472259999915,,,,,,,,,,,,,,,,,,,,,,,,,,,,,,,,,,,,,,,,,,,,,,,,,,253.58917459999975,253.60472259999915,254.13121110000066,254.08820509999896,254.12906029999976,254.13121110000066,254.13121110000066,254.13121110000066,257.2049473999996,Foils\090a.jpg,none,n,3.0708912999998574,None,,,,,,,,00062,001,2026-01-19_19h46.43.275,MST_test,2024.2.0,59.99656819614141,2026-01-19 19h46.50.915533 +0530,
58,0,59,o,2.8577413000002707,None,59,0,58,257.2208948000007,,,,,,,,,,,,,,,,,,,,,,,,,,,,,,,,,,,,,,,,,,,,,,,,,,257.2053068999994,257.2208948000007,257.7510686000005,257.70482339999944,257.74841410000045,257.7510686000005,257.7510686000005,257.7510686000005,260.62165090000053,Objects\121b.jpg,pre,o,2.8577413000002707,None,,,,,,,,00062,001,2026-01-19_19h46.43.275,MST_test,2024.2.0,59.99656819614141,2026-01-19 19h46.50.915533 +0530,
59,0,60,o,2.397636699999566,None,60,0,59,260.6383356000006,,,,,,,,,,,,,,,,,,,,,,,,,,,,,,,,,,,,,,,,,,,,,,,,,,260.6220178000003,260.6383356000006,261.16328579999936,261.12101640000037,261.1611625000005,261.16328579999936,261.16328579999936,261.16328579999936,263.5717681999995,Objects\179b.jpg,post,o,2.397636699999566,None,,,,,,,,00062,001,2026-01-19_19h46.43.275,MST_test,2024.2.0,59.99656819614141,2026-01-19 19h46.50.915533 +0530,
60,0,61,s,1.3732776000015292,None,61,0,60,263.58803219999936,,,,,,,,,,,,,,,,,,,,,,,,,,,,,,,,,,,,,,,,,,,,,,,,,,263.5721305999996,263.58803219999936,264.1154707000005,264.0715751000007,264.11343470000065,264.1154707000005,264.1154707000005,264.1154707000005,265.505409899999,Objects\049b.jpg,mid,s,1.3732776000015292,None,,,,,,,,00062,001,2026-01-19_19h46.43.275,MST_test,2024.2.0,59.99656819614141,2026-01-19 19h46.50.915533 +0530,
61,0,62,s,8.539800800001103,None,62,0,61,265.5211708000006,,,,,,,,,,,,,,,,,,,,,,,,,,,,,,,,,,,,,,,,,,,,,,,,,,265.50584080000044,265.5211708000006,266.0214388000004,266.00551350000023,266.0136917999989,266.0214388000004,266.0214388000004,266.0214388000004,274.57163649999893,Objects\307a.jpg,post,s,8.539800800001103,None,,,,,,,,00062,001,2026-01-19_19h46.43.275,MST_test,2024.2.0,59.99656819614141,2026-01-19 19h46.50.915533 +0530,
62,0,63,n,1.2477698999991844,None,63,0,62,274.5882485000002,,,,,,,,,,,,,,,,,,,,,,,,,,,,,,,,,,,,,,,,,,,,,,,,,,274.5719982999999,274.5882485000002,275.08878390000064,275.0714219999991,275.08002490000035,275.08878390000064,275.08878390000064,275.08878390000064,276.3380675999997,Objects\232a.jpg,post,n,1.2477698999991844,None,,,,,,,,00062,001,2026-01-19_19h46.43.275,MST_test,2024.2.0,59.99656819614141,2026-01-19 19h46.50.915533 +0530,
63,0,64,s,1.2336909000005107,None,64,0,63,276.3544726,,,,,,,,,,,,,,,,,,,,,,,,,,,,,,,,,,,,,,,,,,,,,,,,,,276.3384365999991,276.3544726,276.85494800000015,276.83826880000015,276.8476953999998,276.85494800000015,276.85494800000015,276.85494800000015,278.1050598999991,Objects\116a.jpg,post,s,1.2336909000005107,None,,,,,,,,00062,001,2026-01-19_19h46.43.275,MST_test,2024.2.0,59.99656819614141,2026-01-19 19h46.50.915533 +0530,
64,0,65,o,2.3157766999993328,None,65,0,64,278.1213814999992,,,,,,,,,,,,,,,,,,,,,,,,,,,,,,,,,,,,,,,,,,,,,,,,,,278.10541530000046,278.1213814999992,278.62125129999913,278.60482330000013,278.6145954000003,278.62125129999913,278.62125129999913,278.62125129999913,280.9385624000006,Objects\324a.jpg,pre,o,2.3157766999993328,None,,,,,,,,00062,001,2026-01-19_19h46.43.275,MST_test,2024.2.0,59.99656819614141,2026-01-19 19h46.50.915533 +0530,
65,0,66,o,1.844072199999573,None,66,0,65,280.95426899999984,,,,,,,,,,,,,,,,,,,,,,,,,,,,,,,,,,,,,,,,,,,,,,,,,,280.93894120000004,280.95426899999984,281.4852031999999,281.43860929999937,281.4829145999993,281.4852031999999,281.4852031999999,281.4852031999999,283.33818190000056,Foils\057a.jpg,none,o,1.844072199999573,None,,,,,,,,00062,001,2026-01-19_19h46.43.275,MST_test,2024.2.0,59.99656819614141,2026-01-19 19h46.50.915533 +0530,
66,0,67,o,1.4016657000011037,None,67,0,66,283.3541974,,,,,,,,,,,,,,,,,,,,,,,,,,,,,,,,,,,,,,,,,,,,,,,,,,283.33852560000014,283.3541974,283.85490199999913,283.8377679000005,283.844479899999,283.85490199999913,283.85490199999913,283.85490199999913,285.2718230999999,Objects\339a.jpg,post,o,1.4016657000011037,None,,,,,,,,00062,001,2026-01-19_19h46.43.275,MST_test,2024.2.0,59.99656819614141,2026-01-19 19h46.50.915533 +0530,
67,0,68,n,1.1392498999994132,None,68,0,67,285.2882592999995,,,,,,,,,,,,,,,,,,,,,,,,,,,,,,,,,,,,,,,,,,,,,,,,,,285.27216679999947,285.2882592999995,285.8375094999992,285.7712522999991,285.8349586000004,285.8375094999992,285.8375094999992,285.8375094999992,286.9882498999996,Foils\098a.jpg,none,n,1.1392498999994132,None,,,,,,,,00062,001,2026-01-19_19h46.43.275,MST_test,2024.2.0,59.99656819614141,2026-01-19 19h46.50.915533 +0530,
68,0,69,n,1.126023199998599,None,69,0,68,287.0044085999998,,,,,,,,,,,,,,,,,,,,,,,,,,,,,,,,,,,,,,,,,,,,,,,,,,286.98859450000054,287.0044085999998,287.5400669999999,287.4881573999992,287.5378765000005,287.5400669999999,287.5400669999999,287.5400669999999,288.6717650999999,Foils\002a.jpg,none,n,1.126023199998599,None,,,,,,,,00062,001,2026-01-19_19h46.43.275,MST_test,2024.2.0,59.99656819614141,2026-01-19 19h46.50.915533 +0530,
69,0,70,o,1.0601222000004782,None,70,0,69,288.6883732999995,,,,,,,,,,,,,,,,,,,,,,,,,,,,,,,,,,,,,,,,,,,,,,,,,,288.67213210000045,288.6883732999995,289.1885105000001,289.1715435999995,289.18043079999916,289.1885105000001,289.1885105000001,289.1885105000001,290.2552728999999,Objects\164a.jpg,mid,o,1.0601222000004782,None,,,,,,,,00062,001,2026-01-19_19h46.43.275,MST_test,2024.2.0,59.99656819614141,2026-01-19 19h46.50.915533 +0530,
70,0,71,o,1.12276010000096,None,71,0,70,290.27102809999997,,,,,,,,,,,,,,,,,,,,,,,,,,,,,,,,,,,,,,,,,,,,,,,,,,290.25562100000025,290.27102809999997,290.79787190000025,290.7547376000002,290.79584239999895,290.79787190000025,290.79787190000025,290.79787190000025,291.9215903000004,Objects\161b.jpg,pre,o,1.12276010000096,None,,,,,,,,00062,001,2026-01-19_19h46.43.275,MST_test,2024.2.0,59.99656819614141,2026-01-19 19h46.50.915533 +0530,
71,0,72,o,1.194371300000057,None,72,0,71,291.93801259999964,,,,,,,,,,,,,,,,,,,,,,,,,,,,,,,,,,,,,,,,,,,,,,,,,,291.92195580000043,291.93801259999964,292.4382492000004,292.42156149999937,292.42907899999955,292.4382492000004,292.4382492000004,292.4382492000004,293.63886420000017,Objects\284a.jpg,post,o,1.194371300000057,None,,,,,,,,00062,001,2026-01-19_19h46.43.275,MST_test,2024.2.0,59.99656819614141,2026-01-19 19h46.50.915533 +0530,
72,0,73,o,0.8940967999988061,None,73,0,72,293.6548258999992,,,,,,,,,,,,,,,,,,,,,,,,,,,,,,,,,,,,,,,,,,,,,,,,,,293.63921689999916,293.6548258999992,294.1545181999991,294.13780640000004,294.14938620000066,294.1545181999991,294.1545181999991,294.1545181999991,295.05478570000014,Objects\352a.jpg,post,o,0.8940967999988061,None,,,,,,,,00062,001,2026-01-19_19h46.43.275,MST_test,2024.2.0,59.99656819614141,2026-01-19 19h46.50.915533 +0530,
73,0,74,s,1.538074800000686,None,74,0,73,295.07136829999945,,,,,,,,,,,,,,,,,,,,,,,,,,,,,,,,,,,,,,,,,,,,,,,,,,295.05513880000035,295.07136829999945,295.5985994999992,295.554886599999,295.59637230000044,295.5985994999992,295.5985994999992,295.5985994999992,297.13816229999975,Foils\049a.jpg,none,s,1.538074800000686,None,,,,,,,,00062,001,2026-01-19_19h46.43.275,MST_test,2024.2.0,59.99656819614141,2026-01-19 19h46.50.915533 +0530,
74,0,75,n,1.923058400001537,None,75,0,74,297.1544823999993,,,,,,,,,,,,,,,,,,,,,,,,,,,,,,,,,,,,,,,,,,,,,,,,,,297.13852009999937,297.1544823999993,297.6620819999989,297.6380874000006,297.66025119999904,297.6620819999989,297.6620819999989,297.6620819999989,299.58830769999986,Foils\058a.jpg,none,n,1.923058400001537,None,,,,,,,,00062,001,2026-01-19_19h46.43.275,MST_test,2024.2.0,59.99656819614141,2026-01-19 19h46.50.915533 +0530,
75,0,76,o,1.1380645999997796,None,76,0,75,299.6040954,,,,,,,,,,,,,,,,,,,,,,,,,,,,,,,,,,,,,,,,,,,,,,,,,,299.5886596,299.6040954,300.1193480999991,300.08860789999926,300.11694460000035,300.1193480999991,300.1193480999991,300.1193480999991,301.27181179999934,Objects\360b.jpg,pre,o,1.1380645999997796,None,,,,,,,,00062,001,2026-01-19_19h46.43.275,MST_test,2024.2.0,59.99656819614141,2026-01-19 19h46.50.915533 +0530,
76,0,77,s,2.1159092000016244,None,77,0,76,301.288617799999,,,,,,,,,,,,,,,,,,,,,,,,,,,,,,,,,,,,,,,,,,,,,,,,,,301.2721545000004,301.288617799999,301.81285109999953,301.77156319999995,301.81060609999986,301.81285109999953,301.81285109999953,301.81285109999953,303.9384279999995,Foils\050a.jpg,none,s,2.1159092000016244,None,,,,,,,,00062,001,2026-01-19_19h46.43.275,MST_test,2024.2.0,59.99656819614141,2026-01-19 19h46.50.915533 +0530,
77,0,78,s,5.163420400000177,None,78,0,77,303.9541291000005,,,,,,,,,,,,,,,,,,,,,,,,,,,,,,,,,,,,,,,,,,,,,,,,,,303.93878120000045,303.9541291000005,,304.4388323000003,304.49065990000054,304.4931467000006,304.4931467000006,304.4931467000006,309.6717408000004,Objects\370b.jpg,pre,s,5.163420400000177,None,,,,,,,,00062,001,2026-01-19_19h46.43.275,MST_test,2024.2.0,59.99656819614141,2026-01-19 19h46.50.915533 +0530,
78,0,79,o,1.661112099998718,None,79,0,78,309.6885784999995,,,,,,,,,,,,,,,,,,,,,,,,,,,,,,,,,,,,,,,,,,,,,,,,,,309.67209770000045,309.6885784999995,310.1880954999997,310.1713548000007,310.1800793000002,310.1880954999997,310.1880954999997,310.1880954999997,311.85515850000047,Objects\190a.jpg,mid,o,1.661112099998718,None,,,,,,,,00062,001,2026-01-19_19h46.43.275,MST_test,2024.2.0,59.99656819614141,2026-01-19 19h46.50.915533 +0530,
79,0,80,s,2.093718000000081,None,80,0,79,311.87091800000053,,,,,,,,,,,,,,,,,,,,,,,,,,,,,,,,,,,,,,,,,,,,,,,,,,311.8555149999993,311.87091800000053,312.3708879000005,312.355408899999,312.3642302999997,312.3708879000005,312.3708879000005,312.3708879000005,314.4718097999994,Objects\064a.jpg,pre,s,2.093718000000081,None,,,,,,,,00062,001,2026-01-19_19h46.43.275,MST_test,2024.2.0,59.99656819614141,2026-01-19 19h46.50.915533 +0530,
80,0,81,n,8.654543999999078,None,81,0,80,314.48785230000067,,,,,,,,,,,,,,,,,,,,,,,,,,,,,,,,,,,,,,,,,,,,,,,,,,314.4721640000007,314.48785230000067,315.01016549999986,314.9712034000004,315.0080306999989,315.01016549999986,315.01016549999986,315.01016549999986,323.6721223000004,Foils\f5.jpg,none,n,8.654543999999078,None,,,,,,,,00062,001,2026-01-19_19h46.43.275,MST_test,2024.2.0,59.99656819614141,2026-01-19 19h46.50.915533 +0530,
81,0,82,s,1.7651927000006253,None,82,0,81,323.68773669999973,,,,,,,,,,,,,,,,,,,,,,,,,,,,,,,,,,,,,,,,,,,,,,,,,,323.6725126000001,323.68773669999973,324.18801729999905,324.17138729999897,324.18020009999964,324.18801729999905,324.18801729999905,324.18801729999905,325.954848899999,Objects\305a.jpg,pre,s,1.7651927000006253,None,,,,,,,,00062,001,2026-01-19_19h46.43.275,MST_test,2024.2.0,59.99656819614141,2026-01-19 19h46.50.915533 +0530,
82,0,83,o,0.9628164000005199,None,83,0,82,325.9709751999999,,,,,,,,,,,,,,,,,,,,,,,,,,,,,,,,,,,,,,,,,,,,,,,,,,325.9551897000001,325.9709751999999,326.51776719999907,326.4546852000003,326.51572269999997,326.51776719999907,326.51776719999907,326.51776719999907,327.48841530000027,Objects\050b.jpg,mid,o,0.9628164000005199,None,,,,,,,,00062,001,2026-01-19_19h46.43.275,MST_test,2024.2.0,59.99656819614141,2026-01-19 19h46.50.915533 +0530,
83,0,84,n,3.0208234999990964,None,84,0,83,327.5044347000003,,,,,,,,,,,,,,,,,,,,,,,,,,,,,,,,,,,,,,,,,,,,,,,,,,327.48875729999963,327.5044347000003,328.0357275000006,327.9885646999992,328.0335393000005,328.0357275000006,328.0357275000006,328.0357275000006,331.0718565999996,Foils\017a.jpg,none,n,3.0208234999990964,None,,,,,,,,00062,001,2026-01-19_19h46.43.275,MST_test,2024.2.0,59.99656819614141,2026-01-19 19h46.50.915533 +0530,
84,0,85,o,1.228922500000408,None,85,0,84,331.0881466999999,,,,,,,,,,,,,,,,,,,,,,,,,,,,,,,,,,,,,,,,,,,,,,,,,,331.07219970000006,331.0881466999999,331.58777159999954,331.57170059999953,331.5798544999998,331.58777159999954,331.58777159999954,331.58777159999954,332.82152940000014,Objects\191a.jpg,mid,o,1.228922500000408,None,,,,,,,,00062,001,2026-01-19_19h46.43.275,MST_test,2024.2.0,59.99656819614141,2026-01-19 19h46.50.915533 +0530,
85,0,86,o,0.81928489999882,None,86,0,85,332.8375949000001,,,,,,,,,,,,,,,,,,,,,,,,,,,,,,,,,,,,,,,,,,,,,,,,,,332.82187239999985,332.8375949000001,333.3584867999998,333.3215540000001,333.3563252999993,333.3584867999998,333.3584867999998,333.3584867999998,334.18843969999944,Objects\253b.jpg,mid,o,0.81928489999882,None,,,,,,,,00062,001,2026-01-19_19h46.43.275,MST_test,2024.2.0,59.99656819614141,2026-01-19 19h46.50.915533 +0530,
86,0,87,s,2.0878595000012865,None,87,0,86,334.2042848000001,,,,,,,,,,,,,,,,,,,,,,,,,,,,,,,,,,,,,,,,,,,,,,,,,,334.1887877999998,334.2042848000001,334.7046795999995,334.68816479999987,334.6964515999989,334.7046795999995,334.7046795999995,334.7046795999995,336.80514419999963,Objects\047a.jpg,pre,s,2.0878595000012865,None,,,,,,,,00062,001,2026-01-19_19h46.43.275,MST_test,2024.2.0,59.99656819614141,2026-01-19 19h46.50.915533 +0530,
87,0,88,s,2.119011799999498,None,88,0,87,336.82159499999943,,,,,,,,,,,,,,,,,,,,,,,,,,,,,,,,,,,,,,,,,,,,,,,,,,336.8054892,336.82159499999943,337.32149019999997,337.3049047000004,337.31336419999934,337.32149019999997,337.32149019999997,337.32149019999997,339.45538579999993,Objects\192a.jpg,mid,s,2.119011799999498,None,,,,,,,,00062,001,2026-01-19_19h46.43.275,MST_test,2024.2.0,59.99656819614141,2026-01-19 19h46.50.915533 +0530,
88,0,89,s,4.604144999999335,None,89,0,88,339.47117719999915,,,,,,,,,,,,,,,,,,,,,,,,,,,,,,,,,,,,,,,,,,,,,,,,,,339.4557320999993,339.47117719999915,340.0205449999994,339.9549103999998,340.0180591999997,340.0205449999994,340.0205449999994,340.0205449999994,344.6389230999994,Objects\041b.jpg,post,s,4.604144999999335,None,,,,,,,,00062,001,2026-01-19_19h46.43.275,MST_test,2024.2.0,59.99656819614141,2026-01-19 19h46.50.915533 +0530,
89,0,90,o,0.8776460000008228,None,90,0,89,344.6542059000003,,,,,,,,,,,,,,,,,,,,,,,,,,,,,,,,,,,,,,,,,,,,,,,,,,344.63926379999975,344.6542059000003,345.15551199999936,345.1385298999994,345.14764710000054,345.15551199999936,345.15551199999936,345.15551199999936,346.0384780000004,Objects\145a.jpg,mid,o,0.8776460000008228,None,,,,,,,,00062,001,2026-01-19_19h46.43.275,MST_test,2024.2.0,59.99656819614141,2026-01-19 19h46.50.915533 +0530,
90,0,91,o,3.6073732000004384,None,91,0,90,346.0552439999992,,,,,,,,,,,,,,,,,,,,,,,,,,,,,,,,,,,,,,,,,,,,,,,,,,346.0388160000002,346.0552439999992,346.57743200000004,346.53824059999897,346.5752924999997,346.57743200000004,346.57743200000004,346.57743200000004,350.1882790999989,Objects\373b.jpg,pre,o,3.6073732000004384,None,,,,,,,,00062,001,2026-01-19_19h46.43.275,MST_test,2024.2.0,59.99656819614141,2026-01-19 19h46.50.915533 +0530,
91,0,92,s,4.3220679000005475,None,92,0,91,350.20436560000053,,,,,,,,,,,,,,,,,,,,,,,,,,,,,,,,,,,,,,,,,,,,,,,,,,350.1886752999999,350.20436560000053,350.73443360000056,350.6879269000001,350.73221569999987,350.73443360000056,350.73443360000056,350.73443360000056,355.0717368000005,Objects\102b.jpg,post,s,4.3220679000005475,None,,,,,,,,00062,001,2026-01-19_19h46.43.275,MST_test,2024.2.0,59.99656819614141,2026-01-19 19h46.50.915533 +0530,
92,0,93,s,0.9204417000000831,None,93,0,92,355.0876425000006,,,,,,,,,,,,,,,,,,,,,,,,,,,,,,,,,,,,,,,,,,,,,,,,,,355.0720787999999,355.0876425000006,355.6247251999994,355.5715063000007,355.6226236000002,355.6247251999994,355.6247251999994,355.6247251999994,356.55513599999904,Objects\052b.jpg,mid,s,0.9204417000000831,None,,,,,,,,00062,001,2026-01-19_19h46.43.275,MST_test,2024.2.0,59.99656819614141,2026-01-19 19h46.50.915533 +0530,
93,0,94,n,1.5078530999999202,None,94,0,93,356.571313299999,,,,,,,,,,,,,,,,,,,,,,,,,,,,,,,,,,,,,,,,,,,,,,,,,,356.55549599999904,356.571313299999,357.10931659999915,357.0547697999991,357.1069279000003,357.10931659999915,357.10931659999915,357.10931659999915,358.62199279999913,Foils\033a.jpg,none,n,1.5078530999999202,None,,,,,,,,00062,001,2026-01-19_19h46.43.275,MST_test,2024.2.0,59.99656819614141,2026-01-19 19h46.50.915533 +0530,
94,0,95,s,1.5676872999993066,None,95,0,94,358.63796419999926,,,,,,,,,,,,,,,,,,,,,,,,,,,,,,,,,,,,,,,,,,,,,,,,,,358.62233259999994,358.63796419999926,359.1691202000002,359.12145190000047,359.16685739999957,359.1691202000002,359.1691202000002,359.1691202000002,360.73838199999955,Objects\361b.jpg,pre,s,1.5676872999993066,None,,,,,,,,00062,001,2026-01-19_19h46.43.275,MST_test,2024.2.0,59.99656819614141,2026-01-19 19h46.50.915533 +0530,
95,0,96,o,4.594643299999007,None,96,0,95,360.75410139999985,,,,,,,,,,,,,,,,,,,,,,,,,,,,,,,,,,,,,,,,,,,,,,,,,,360.7387208,360.75410139999985,361.2544945999998,361.2382777999992,361.24749729999894,361.2544945999998,361.2544945999998,361.2544945999998,365.85492220000015,Objects\175a.jpg,post,o,4.594643299999007,None,,,,,,,,00062,001,2026-01-19_19h46.43.275,MST_test,2024.2.0,59.99656819614141,2026-01-19 19h46.50.915533 +0530,
96,0,97,o,0.766068400000222,None,97,0,96,365.87090030000036,,,,,,,,,,,,,,,,,,,,,,,,,,,,,,,,,,,,,,,,,,,,,,,,,,365.8552617000005,365.87090030000036,366.3714046999994,366.3545204000002,366.3642662000002,366.3714046999994,366.3714046999994,366.3714046999994,367.1389371000005,Objects\070a.jpg,pre,o,0.766068400000222,None,,,,,,,,00062,001,2026-01-19_19h46.43.275,MST_test,2024.2.0,59.99656819614141,2026-01-19 19h46.50.915533 +0530,
97,0,98,o,1.002144699999917,None,98,0,97,367.15442950000033,,,,,,,,,,,,,,,,,,,,,,,,,,,,,,,,,,,,,,,,,,,,,,,,,,367.13927969999895,367.15442950000033,367.6543598999997,367.63780829999996,367.64628040000025,367.6543598999997,367.6543598999997,367.6543598999997,368.67166480000014,Objects\059a.jpg,pre,o,1.002144699999917,None,,,,,,,,00062,001,2026-01-19_19h46.43.275,MST_test,2024.2.0,59.99656819614141,2026-01-19 19h46.50.915533 +0530,
98,0,99,o,0.8527677000001859,None,99,0,98,368.68839209999896,,,,,,,,,,,,,,,,,,,,,,,,,,,,,,,,,,,,,,,,,,,,,,,,,,368.6720117999994,368.68839209999896,,369.17217189999974,369.1797743999996,369.1880887999996,369.1880887999996,369.1880887999996,370.0552965000006,Objects\214a.jpg,post,o,0.8527677000001859,None,,,,,,,,00062,001,2026-01-19_19h46.43.275,MST_test,2024.2.0,59.99656819614141,2026-01-19 19h46.50.915533 +0530,
99,0,100,n,1.7554118000007293,None,100,0,99,370.07100829999945,,,,,,,,,,,,,,,,,,,,,,,,,,,,,,,,,,,,,,,,,,,,,,,,,,370.05563559999973,370.07100829999945,370.5894234999996,370.55427260000033,370.58714409999993,370.5894234999996,370.5894234999996,370.5894234999996,372.3548568999995,Foils\f6.jpg,none,n,1.7554118000007293,None,,,,,,,,00062,001,2026-01-19_19h46.43.275,MST_test,2024.2.0,59.99656819614141,2026-01-19 19h46.50.915533 +0530,
100,0,101,o,3.362956299999496,None,101,0,100,372.37117860000035,,,,,,,,,,,,,,,,,,,,,,,,,,,,,,,,,,,,,,,,,,,,,,,,,,372.35520539999925,372.37117860000035,372.89388189999954,372.85483120000026,372.89169930000025,372.89388189999954,372.89388189999954,372.89388189999954,376.27184750000015,Objects\328b.jpg,pre,o,3.362956299999496,None,,,,,,,,00062,001,2026-01-19_19h46.43.275,MST_test,2024.2.0,59.99656819614141,2026-01-19 19h46.50.915533 +0530,
101,0,102,o,1.0131949999995413,None,102,0,101,376.2877733000005,,,,,,,,,,,,,,,,,,,,,,,,,,,,,,,,,,,,,,,,,,,,,,,,,,376.2721908000003,376.2877733000005,376.7879238000005,376.7714541999994,376.7799555999991,376.7879238000005,376.7879238000005,376.7879238000005,377.8050930999998,Objects\308a.jpg,post,o,1.0131949999995413,None,,,,,,,,00062,001,2026-01-19_19h46.43.275,MST_test,2024.2.0,59.99656819614141,2026-01-19 19h46.50.915533 +0530,
102,0,103,o,0.9432142000005115,None,103,0,102,377.82196769999973,,,,,,,,,,,,,,,,,,,,,,,,,,,,,,,,,,,,,,,,,,,,,,,,,,377.8054393000002,377.82196769999973,378.3216407,378.30536949999987,378.3129202,378.3216407,378.3216407,378.3216407,379.2722389999999,Objects\340a.jpg,pre,o,0.9432142000005115,None,,,,,,,,00062,001,2026-01-19_19h46.43.275,MST_test,2024.2.0,59.99656819614141,2026-01-19 19h46.50.915533 +0530,
103,0,104,o,1.004356800000096,None,104,0,103,379.2878361000003,,,,,,,,,,,,,,,,,,,,,,,,,,,,,,,,,,,,,,,,,,,,,,,,,,379.27258230000007,379.2878361000003,379.7882002999995,379.7722723000006,379.7811206000006,379.7882002999995,379.7882002999995,379.7882002999995,380.80473229999916,Objects\029a.jpg,mid,o,1.004356800000096,None,,,,,,,,00062,001,2026-01-19_19h46.43.275,MST_test,2024.2.0,59.99656819614141,2026-01-19 19h46.50.915533 +0530,
104,0,105,o,0.7909711000011157,None,105,0,104,380.8210419999996,,,,,,,,,,,,,,,,,,,,,,,,,,,,,,,,,,,,,,,,,,,,,,,,,,380.8050949999997,380.8210419999996,381.34579099999974,381.30504889999975,381.3436294999992,381.34579099999974,381.34579099999974,381.34579099999974,382.1382398000005,Objects\380b.jpg,mid,o,0.7909711000011157,None,,,,,,,,00062,001,2026-01-19_19h46.43.275,MST_test,2024.2.0,59.99656819614141,2026-01-19 19h46.50.915533 +0530,
105,0,106,n,5.595431900001131,None,106,0,105,382.15423120000014,,,,,,,,,,,,,,,,,,,,,,,,,,,,,,,,,,,,,,,,,,,,,,,,,,382.1385814999994,382.15423120000014,382.6772394999989,382.63822509999954,382.6746258000003,382.6772394999989,382.6772394999989,382.6772394999989,388.2886022999992,Foils\020b.jpg,none,n,5.595431900001131,None,,,,,,,,00062,001,2026-01-19_19h46.43.275,MST_test,2024.2.0,59.99656819614141,2026-01-19 19h46.50.915533 +0530,
106,0,107,o,0.8834114999990561,None,107,0,106,388.3042661999989,,,,,,,,,,,,,,,,,,,,,,,,,,,,,,,,,,,,,,,,,,,,,,,,,,388.2889632999995,388.3042661999989,388.8050399999993,388.7884419000002,388.79738559999896,388.8050399999993,388.8050399999993,388.8050399999993,389.70490789999894,Objects\167a.jpg,pre,o,0.8834114999990561,None,,,,,,,,00062,001,2026-01-19_19h46.43.275,MST_test,2024.2.0,59.99656819614141,2026-01-19 19h46.50.915533 +0530,
107,0,108,o,1.0033588999995118,None,108,0,107,389.72111849999965,,,,,,,,,,,,,,,,,,,,,,,,,,,,,,,,,,,,,,,,,,,,,,,,,,389.70524809999915,389.72111849999965,390.2212538999993,390.2046485999999,390.2127892999997,390.2212538999993,390.2212538999993,390.2212538999993,391.2385202000005,Objects\044a.jpg,mid,o,1.0033588999995118,None,,,,,,,,00062,001,2026-01-19_19h46.43.275,MST_test,2024.2.0,59.99656819614141,2026-01-19 19h46.50.915533 +0530,
108,0,109,o,0.9700017999984993,None,109,0,108,391.25443749999977,,,,,,,,,,,,,,,,,,,,,,,,,,,,,,,,,,,,,,,,,,,,,,,,,,391.23887789999935,391.25443749999977,391.79190890000064,391.73823509999966,391.7894660999991,391.79190890000064,391.79190890000064,391.79190890000064,392.77176019999933,Objects\096b.jpg,pre,o,0.9700017999984993,None,,,,,,,,00062,001,2026-01-19_19h46.43.275,MST_test,2024.2.0,59.99656819614141,2026-01-19 19h46.50.915533 +0530,
109,0,110,n,3.02954630000022,None,110,0,109,392.787877499999,,,,,,,,,,,,,,,,,,,,,,,,,,,,,,,,,,,,,,,,,,,,,,,,,,392.7721065000005,392.787877499999,393.3230198000001,393.27131240000017,393.3204031999994,393.3230198000001,393.3230198000001,393.3230198000001,396.35485320000043,Objects\260b.jpg,post,n,3.02954630000022,None,,,,,,,,00062,001,2026-01-19_19h46.43.275,MST_test,2024.2.0,59.99656819614141,2026-01-19 19h46.50.915533 +0530,
110,0,111,o,1.0894076000004134,None,111,0,110,396.37143520000063,,,,,,,,,,,,,,,,,,,,,,,,,,,,,,,,,,,,,,,,,,,,,,,,,,396.355254099999,396.37143520000063,396.8714593000004,396.8548245999991,396.8609467999995,396.8714593000004,396.8714593000004,396.8714593000004,397.9718508999995,Objects\210a.jpg,pre,o,1.0894076000004134,None,,,,,,,,00062,001,2026-01-19_19h46.43.275,MST_test,2024.2.0,59.99656819614141,2026-01-19 19h46.50.915533 +0530,
111,0,112,n,2.3494387000009738,None,112,0,111,397.98783790000016,,,,,,,,,,,,,,,,,,,,,,,,,,,,,,,,,,,,,,,,,,,,,,,,,,397.9721489000003,397.98783790000016,398.51547329999994,398.4715837999993,398.51318189999984,398.51547329999994,398.51547329999994,398.51547329999994,400.8718296999996,Objects\364b.jpg,mid,n,2.3494387000009738,None,,,,,,,,00062,001,2026-01-19_19h46.43.275,MST_test,2024.2.0,59.99656819614141,2026-01-19 19h46.50.915533 +0530,
112,0,113,n,1.5644184000011592,None,113,0,112,400.8877730000004,,,,,,,,,,,,,,,,,,,,,,,,,,,,,,,,,,,,,,,,,,,,,,,,,,400.8721870999998,400.8877730000004,401.3887271000003,401.3712813000002,401.38046120000035,401.3887271000003,401.3887271000003,401.3887271000003,402.9550737999998,Objects\058a.jpg,post,n,1.5644184000011592,None,,,,,,,,00062,001,2026-01-19_19h46.43.275,MST_test,2024.2.0,59.99656819614141,2026-01-19 19h46.50.915533 +0530,
113,0,114,n,0.7431892999993579,None,114,0,113,402.97100970000065,,,,,,,,,,,,,,,,,,,,,,,,,,,,,,,,,,,,,,,,,,,,,,,,,,402.9554121000001,402.97100970000065,403.5056074999993,403.45492790000026,403.5030896999997,403.5056074999993,403.5056074999993,403.5056074999993,404.2556502000007,Objects\229b.jpg,pre,n,0.7431892999993579,None,,,,,,,,00062,001,2026-01-19_19h46.43.275,MST_test,2024.2.0,59.99656819614141,2026-01-19 19h46.50.915533 +0530,
114,0,115,n,1.464948299999378,None,115,0,114,404.27091219999966,,,,,,,,,,,,,,,,,,,,,,,,,,,,,,,,,,,,,,,,,,,,,,,,,,404.2560145999996,404.27091219999966,404.79952179999964,404.7555343999993,404.79694779999954,404.79952179999964,404.79952179999964,404.79952179999964,406.2718353,Foils\106a.jpg,none,n,1.464948299999378,None,,,,,,,,00062,001,2026-01-19_19h46.43.275,MST_test,2024.2.0,59.99656819614141,2026-01-19 19h46.50.915533 +0530,
115,0,116,n,1.0518021000007138,None,116,0,115,406.2883493999998,,,,,,,,,,,,,,,,,,,,,,,,,,,,,,,,,,,,,,,,,,,,,,,,,,406.272170799999,406.2883493999998,,406.7721832999996,406.81857429999945,406.8206485999999,406.8206485999999,406.8206485999999,407.8890689999989,Foils\042a.jpg,none,n,1.0518021000007138,None,,,,,,,,00062,001,2026-01-19_19h46.43.275,MST_test,2024.2.0,59.99656819614141,2026-01-19 19h46.50.915533 +0530,
116,0,117,o,0.996128900000258,None,117,0,116,407.90451829999984,,,,,,,,,,,,,,,,,,,,,,,,,,,,,,,,,,,,,,,,,,,,,,,,,,407.8894287999992,407.90451829999984,408.40449179999996,408.38801369999965,408.3961746999994,408.40449179999996,408.40449179999996,408.40449179999996,409.4051331999999,Objects\123a.jpg,mid,o,0.996128900000258,None,,,,,,,,00062,001,2026-01-19_19h46.43.275,MST_test,2024.2.0,59.99656819614141,2026-01-19 19h46.50.915533 +0530,
117,0,118,s,1.7118301999998948,None,118,0,117,409.421113299999,,,,,,,,,,,,,,,,,,,,,,,,,,,,,,,,,,,,,,,,,,,,,,,,,,409.4054708999993,409.421113299999,409.96065420000014,409.9048516999992,409.9583872000003,409.96065420000014,409.96065420000014,409.96065420000014,411.6885517999999,Objects\342b.jpg,mid,s,1.7118301999998948,None,,,,,,,,00062,001,2026-01-19_19h46.43.275,MST_test,2024.2.0,59.99656819614141,2026-01-19 19h46.50.915533 +0530,
118,0,119,o,0.8835414000004675,None,119,0,118,411.704511599999,,,,,,,,,,,,,,,,,,,,,,,,,,,,,,,,,,,,,,,,,,,,,,,,,,411.688897,411.704511599999,412.20491050000055,412.18854009999995,412.19798959999935,412.20491050000055,412.20491050000055,412.20491050000055,413.1051626999997,Objects\366a.jpg,mid,o,0.8835414000004675,None,,,,,,,,00062,001,2026-01-19_19h46.43.275,MST_test,2024.2.0,59.99656819614141,2026-01-19 19h46.50.915533 +0530,
119,0,120,o,1.050473299999794,None,120,0,119,413.12106909999966,,,,,,,,,,,,,,,,,,,,,,,,,,,,,,,,,,,,,,,,,,,,,,,,,,413.10550049999983,413.12106909999966,413.6220530999999,413.60501099999965,413.6137309000005,413.6220530999999,413.6220530999999,413.6220530999999,414.68811579999965,Objects\105a.jpg,pre,o,1.050473299999794,None,,,,,,,,00062,001,2026-01-19_19h46.43.275,MST_test,2024.2.0,59.99656819614141,2026-01-19 19h46.50.915533 +0530,
120,0,121,o,1.6181180999992648,None,121,0,120,414.7045165999989,,,,,,,,,,,,,,,,,,,,,,,,,,,,,,,,,,,,,,,,,,,,,,,,,,414.6885946000002,414.7045165999989,415.23835229999895,415.18843039999956,415.2357104999992,415.23835229999895,415.23835229999895,415.23835229999895,416.87258309999925,Objects\159b.jpg,post,o,1.6181180999992648,None,,,,,,,,00062,001,2026-01-19_19h46.43.275,MST_test,2024.2.0,59.99656819614141,2026-01-19 19h46.50.915533 +0530,
121,0,122,o,1.125014100000044,None,122,0,121,416.8878482,,,,,,,,,,,,,,,,,,,,,,,,,,,,,,,,,,,,,,,,,,,,,,,,,,416.87294219999967,416.8878482,417.388085999999,417.3715826000007,417.38072680000005,417.388085999999,417.388085999999,417.388085999999,418.5218485000005,Objects\037a.jpg,mid,o,1.125014100000044,None,,,,,,,,00062,001,2026-01-19_19h46.43.275,MST_test,2024.2.0,59.99656819614141,2026-01-19 19h46.50.915533 +0530,
122,0,123,o,0.8343396000000212,None,123,0,122,418.53776350000044,,,,,,,,,,,,,,,,,,,,,,,,,,,,,,,,,,,,,,,,,,,,,,,,,,418.52218170000015,418.53776350000044,419.03823249999914,419.0216521000002,419.0310792,419.03823249999914,419.03823249999914,419.03823249999914,419.88849029999983,Objects\281a.jpg,pre,o,0.8343396000000212,None,,,,,,,,00062,001,2026-01-19_19h46.43.275,MST_test,2024.2.0,59.99656819614141,2026-01-19 19h46.50.915533 +0530,
123,0,124,o,0.8838282999986404,None,124,0,123,419.9044018000004,,,,,,,,,,,,,,,,,,,,,,,,,,,,,,,,,,,,,,,,,,,,,,,,,,419.8888372000001,419.9044018000004,420.4047107000006,420.3882823999993,420.3966201000003,420.4047107000006,420.4047107000006,420.4047107000006,421.2892247999989,Objects\017a.jpg,mid,o,0.8838282999986404,None,,,,,,,,00062,001,2026-01-19_19h46.43.275,MST_test,2024.2.0,59.99656819614141,2026-01-19 19h46.50.915533 +0530,
124,0,125,o,0.7558307999988756,None,125,0,124,421.30444200000056,,,,,,,,,,,,,,,,,,,,,,,,,,,,,,,,,,,,,,,,,,,,,,,,,,421.2895874000005,421.30444200000056,421.80487340000036,421.7880600999997,421.7966397,421.80487340000036,421.80487340000036,421.80487340000036,422.5716006999992,Objects\235a.jpg,post,o,0.7558307999988756,None,,,,,,,,00062,001,2026-01-19_19h46.43.275,MST_test,2024.2.0,59.99656819614141,2026-01-19 19h46.50.915533 +0530,
125,0,126,o,0.7047729000005347,None,126,0,125,422.58819070000027,,,,,,,,,,,,,,,,,,,,,,,,,,,,,,,,,,,,,,,,,,,,,,,,,,422.5719403999992,422.58819070000027,,423.0718364000004,423.08059929999945,423.0883303999999,423.0883303999999,423.0883303999999,423.80508480000026,Objects\140a.jpg,pre,o,0.7047729000005347,None,,,,,,,,00062,001,2026-01-19_19h46.43.275,MST_test,2024.2.0,59.99656819614141,2026-01-19 19h46.50.915533 +0530,
126,0,127,n,1.6593916000001627,None,127,0,126,423.82089950000045,,,,,,,,,,,,,,,,,,,,,,,,,,,,,,,,,,,,,,,,,,,,,,,,,,423.80544720000034,423.82089950000045,424.3502102000002,424.3049869000006,424.3481766999994,424.3502102000002,424.3502102000002,424.3502102000002,426.02182039999934,Objects\223b.jpg,post,n,1.6593916000001627,None,,,,,,,,00062,001,2026-01-19_19h46.43.275,MST_test,2024.2.0,59.99656819614141,2026-01-19 19h46.50.915533 +0530,
127,0,128,n,1.0202048000010109,None,128,0,127,426.03771289999895,,,,,,,,,,,,,,,,,,,,,,,,,,,,,,,,,,,,,,,,,,,,,,,,,,426.0221605000006,426.03771289999895,426.5641993999998,426.52170859999933,426.5615818999995,426.5641993999998,426.5641993999998,426.5641993999998,427.5881198999996,Objects\338b.jpg,post,n,1.0202048000010109,None,,,,,,,,00062,001,2026-01-19_19h46.43.275,MST_test,2024.2.0,59.99656819614141,2026-01-19 19h46.50.915533 +0530,
128,0,129,n,0.726244499999666,None,129,0,128,427.6041662000007,,,,,,,,,,,,,,,,,,,,,,,,,,,,,,,,,,,,,,,,,,,,,,,,,,427.5884595999996,427.6041662000007,428.13886920000004,428.0880758000003,428.1356959000004,428.13886920000004,428.13886920000004,428.13886920000004,428.8721760999997,Foils\101b.jpg,none,n,0.726244499999666,None,,,,,,,,00062,001,2026-01-19_19h46.43.275,MST_test,2024.2.0,59.99656819614141,2026-01-19 19h46.50.915533 +0530,
129,0,130,n,0.7734854000009364,None,130,0,129,428.8875587000002,,,,,,,,,,,,,,,,,,,,,,,,,,,,,,,,,,,,,,,,,,,,,,,,,,428.8725252999993,428.8875587000002,429.4032119000003,429.37128200000006,429.40114189999986,429.4032119000003,429.4032119000003,429.4032119000003,430.1882903000005,Foils\074a.jpg,none,n,0.7734854000009364,None,,,,,,,,00062,001,2026-01-19_19h46.43.275,MST_test,2024.2.0,59.99656819614141,2026-01-19 19h46.50.915533 +0530,
130,0,131,s,1.454420799998843,None,131,0,130,430.2052397999996,,,,,,,,,,,,,,,,,,,,,,,,,,,,,,,,,,,,,,,,,,,,,,,,,,430.1886551000007,430.2052397999996,430.76252999999997,430.68829449999976,430.7604981000004,430.76252999999997,430.76252999999997,430.76252999999997,432.2222301999991,Objects\024b.jpg,pre,s,1.454420799998843,None,,,,,,,,00062,001,2026-01-19_19h46.43.275,MST_test,2024.2.0,59.99656819614141,2026-01-19 19h46.50.915533 +0530,
131,0,132,o,2.4908178000005137,None,132,0,131,432.237719499999,,,,,,,,,,,,,,,,,,,,,,,,,,,,,,,,,,,,,,,,,,,,,,,,,,432.22257809999974,432.237719499999,432.7817498000004,432.7215802999999,432.7797389999996,432.7817498000004,432.7817498000004,432.7817498000004,435.2892838000007,Objects\133b.jpg,pre,o,2.4908178000005137,None,,,,,,,,00062,001,2026-01-19_19h46.43.275,MST_test,2024.2.0,59.99656819614141,2026-01-19 19h46.50.915533 +0530,
132,0,133,o,1.859477899999547,None,133,0,132,435.30453750000015,,,,,,,,,,,,,,,,,,,,,,,,,,,,,,,,,,,,,,,,,,,,,,,,,,435.28973170000063,435.30453750000015,435.8049953999998,435.78892579999956,435.79743749999943,435.8049953999998,435.8049953999998,435.8049953999998,437.67178930000046,Objects\203a.jpg,pre,o,1.859477899999547,None,,,,,,,,00062,001,2026-01-19_19h46.43.275,MST_test,2024.2.0,59.99656819614141,2026-01-19 19h46.50.915533 +0530,
133,0,134,n,1.7376215999993292,None,134,0,133,437.6878787000005,,,,,,,,,,,,,,,,,,,,,,,,,,,,,,,,,,,,,,,,,,,,,,,,,,437.67214559999957,437.6878787000005,438.21600020000005,438.1712955999992,438.2135897999997,438.21600020000005,438.21600020000005,438.21600020000005,439.9551840999993,Foils\065a.jpg,none,n,1.7376215999993292,None,,,,,,,,00062,001,2026-01-19_19h46.43.275,MST_test,2024.2.0,59.99656819614141,2026-01-19 19h46.50.915533 +0530,
134,0,135,o,1.4733558999996603,None,135,0,134,439.9708860999999,,,,,,,,,,,,,,,,,,,,,,,,,,,,,,,,,,,,,,,,,,,,,,,,,,439.95554300000003,439.9708860999999,440.4713291999997,440.4547514999995,440.46188260000054,440.4713291999997,440.4713291999997,440.4713291999997,441.9548257000006,Objects\013a.jpg,pre,o,1.4733558999996603,None,,,,,,,,00062,001,2026-01-19_19h46.43.275,MST_test,2024.2.0,59.99656819614141,2026-01-19 19h46.50.915533 +0530,
135,0,136,o,0.7932837000007567,None,136,0,135,441.9709794999999,,,,,,,,,,,,,,,,,,,,,,,,,,,,,,,,,,,,,,,,,,,,,,,,,,441.9551670000001,441.9709794999999,442.4713410000004,442.4548541000004,442.4631831000006,442.4713410000004,442.4713410000004,442.4713410000004,443.27202299999954,Objects\177a.jpg,post,o,0.7932837000007567,None,,,,,,,,00062,001,2026-01-19_19h46.43.275,MST_test,2024.2.0,59.99656819614141,2026-01-19 19h46.50.915533 +0530,
136,0,137,s,1.4450461000014911,None,137,0,136,443.2877563000002,,,,,,,,,,,,,,,,,,,,,,,,,,,,,,,,,,,,,,,,,,,,,,,,,,443.27235800000017,443.2877563000002,443.7880542999992,443.7715098999997,443.77808129999903,443.7880542999992,443.7880542999992,443.7880542999992,445.23890199999914,Objects\103a.jpg,pre,s,1.4450461000014911,None,,,,,,,,00062,001,2026-01-19_19h46.43.275,MST_test,2024.2.0,59.99656819614141,2026-01-19 19h46.50.915533 +0530,
137,0,138,s,4.379770100000314,None,138,0,137,445.2545176000003,,,,,,,,,,,,,,,,,,,,,,,,,,,,,,,,,,,,,,,,,,,,,,,,,,445.23924009999973,445.2545176000003,445.82127690000016,445.7385252999993,445.8185873000002,445.82127690000016,445.82127690000016,445.82127690000016,450.20484880000004,Objects\238b.jpg,mid,s,4.379770100000314,None,,,,,,,,00062,001,2026-01-19_19h46.43.275,MST_test,2024.2.0,59.99656819614141,2026-01-19 19h46.50.915533 +0530,
138,0,139,s,0.9768254999999044,None,139,0,138,450.2212727999995,,,,,,,,,,,,,,,,,,,,,,,,,,,,,,,,,,,,,,,,,,,,,,,,,,450.2051914999993,450.2212727999995,450.7438710000006,450.70493739999984,450.7416632000004,450.7438710000006,450.7438710000006,450.7438710000006,451.7220065999991,Objects\262b.jpg,post,s,0.9768254999999044,None,,,,,,,,00062,001,2026-01-19_19h46.43.275,MST_test,2024.2.0,59.99656819614141,2026-01-19 19h46.50.915533 +0530,
139,0,140,s,1.3920415000011417,None,140,0,139,451.73767860000044,,,,,,,,,,,,,,,,,,,,,,,,,,,,,,,,,,,,,,,,,,,,,,,,,,451.7223493999991,451.73767860000044,452.2730962000005,452.22152950000054,452.2708469999998,452.2730962000005,452.2730962000005,452.2730962000005,453.6725342999998,Objects\094b.jpg,post,s,1.3920415000011417,None,,,,,,,,00062,001,2026-01-19_19h46.43.275,MST_test,2024.2.0,59.99656819614141,2026-01-19 19h46.50.915533 +0530,
140,0,141,o,1.820699500000046,None,141,0,140,453.68743969999923,,,,,,,,,,,,,,,,,,,,,,,,,,,,,,,,,,,,,,,,,,,,,,,,,,453.67287639999995,453.68743969999923,454.18793430000005,454.1707293999989,454.1739801999993,454.18793430000005,454.18793430000005,454.18793430000005,456.0218313999994,Objects\231a.jpg,post,o,1.820699500000046,None,,,,,,,,00062,001,2026-01-19_19h46.43.275,MST_test,2024.2.0,59.99656819614141,2026-01-19 19h46.50.915533 +0530,
141,0,142,s,1.3400072000004002,None,142,0,141,456.03813210000044,,,,,,,,,,,,,,,,,,,,,,,,,,,,,,,,,,,,,,,,,,,,,,,,,,456.0221703999996,456.03813210000044,456.57255429999896,456.5213827000007,456.57016660000045,456.57255429999896,456.57255429999896,456.57255429999896,457.9222522,Objects\196b.jpg,post,s,1.3400072000004002,None,,,,,,,,00062,001,2026-01-19_19h46.43.275,MST_test,2024.2.0,59.99656819614141,2026-01-19 19h46.50.915533 +0530,
142,0,143,s,2.3609904000004462,None,143,0,142,457.9378627999995,,,,,,,,,,,,,,,,,,,,,,,,,,,,,,,,,,,,,,,,,,,,,,,,,,457.92259849999937,457.9378627999995,458.4719401000002,458.42172329999994,458.4696521999995,458.4719401000002,458.4719401000002,458.4719401000002,460.83829739999965,Objects\163b.jpg,mid,s,2.3609904000004462,None,,,,,,,,00062,001,2026-01-19_19h46.43.275,MST_test,2024.2.0,59.99656819614141,2026-01-19 19h46.50.915533 +0530,
143,0,144,s,1.5530353000012838,None,144,0,143,460.8545309000001,,,,,,,,,,,,,,,,,,,,,,,,,,,,,,,,,,,,,,,,,,,,,,,,,,460.8386487000007,460.8545309000001,461.3753839000001,461.33825669999896,461.3734700999994,461.3753839000001,461.3753839000001,461.3753839000001,462.93817689999923,Objects\021b.jpg,pre,s,1.5530353000012838,None,,,,,,,,00062,001,2026-01-19_19h46.43.275,MST_test,2024.2.0,59.99656819614141,2026-01-19 19h46.50.915533 +0530,
144,0,145,o,1.4983363000010286,None,145,0,144,462.9543582999995,,,,,,,,,,,,,,,,,,,,,,,,,,,,,,,,,,,,,,,,,,,,,,,,,,462.938522299999,462.9543582999995,463.45473049999964,463.43795189999946,463.444603599999,463.45473049999964,463.45473049999964,463.45473049999964,464.9556233000003,Objects\376a.jpg,post,o,1.4983363000010286,None,,,,,,,,00062,001,2026-01-19_19h46.43.275,MST_test,2024.2.0,59.99656819614141,2026-01-19 19h46.50.915533 +0530,
145,0,146,n,1.4241414999996778,None,146,0,145,464.9711447999998,,,,,,,,,,,,,,,,,,,,,,,,,,,,,,,,,,,,,,,,,,,,,,,,,,464.9559645999998,464.9711447999998,465.5129546999997,465.4551047999994,465.51008439999896,465.5129546999997,465.5129546999997,465.5129546999997,466.9386863999989,Objects\242b.jpg,post,n,1.4241414999996778,None,,,,,,,,00062,001,2026-01-19_19h46.43.275,MST_test,2024.2.0,59.99656819614141,2026-01-19 19h46.50.915533 +0530,
146,0,147,o,2.0334216999999626,None,147,0,146,466.95433050000065,,,,,,,,,,,,,,,,,,,,,,,,,,,,,,,,,,,,,,,,,,,,,,,,,,466.93905730000006,466.95433050000065,467.45512380000037,467.43777539999974,467.4451270999998,467.45512380000037,467.45512380000037,467.45512380000037,469.50496179999936,Objects\237a.jpg,mid,o,2.0334216999999626,None,,,,,,,,00062,001,2026-01-19_19h46.43.275,MST_test,2024.2.0,59.99656819614141,2026-01-19 19h46.50.915533 +0530,
147,0,148,s,3.7591081999999005,None,148,0,147,469.5218074000004,,,,,,,,,,,,,,,,,,,,,,,,,,,,,,,,,,,,,,,,,,,,,,,,,,469.50531860000046,469.5218074000004,470.0659902999996,470.0047680000007,470.0637387000006,470.0659902999996,470.0659902999996,470.0659902999996,473.83855120000044,Objects\315b.jpg,post,s,3.7591081999999005,None,,,,,,,,00062,001,2026-01-19_19h46.43.275,MST_test,2024.2.0,59.99656819614141,2026-01-19 19h46.50.915533 +0530,
148,0,149,s,2.5651637999999366,None,149,0,148,473.85455550000006,,,,,,,,,,,,,,,,,,,,,,,,,,,,,,,,,,,,,,,,,,,,,,,,,,473.83889629999976,473.85455550000006,474.3873908000005,474.3380904000005,474.3850007000001,474.3873908000005,474.3873908000005,474.3873908000005,476.95522170000004,Objects\346b.jpg,mid,s,2.5651637999999366,None,,,,,,,,00062,001,2026-01-19_19h46.43.275,MST_test,2024.2.0,59.99656819614141,2026-01-19 19h46.50.915533 +0530,
149,0,150,o,1.4012461999991501,None,150,0,149,476.9707906000003,,,,,,,,,,,,,,,,,,,,,,,,,,,,,,,,,,,,,,,,,,,,,,,,,,476.955565799999,476.9707906000003,477.49548200000027,477.4543419999991,477.49268200000006,477.49548200000027,477.49548200000027,477.49548200000027,478.90535330000057,Objects\051b.jpg,mid,o,1.4012461999991501,None,,,,,,,,00062,001,2026-01-19_19h46.43.275,MST_test,2024.2.0,59.99656819614141,2026-01-19 19h46.50.915533 +0530,
,,,,,,,,,,,,,,,,,,,,,,,,,,,,,,,,,,,,,,,,,,,,,,,,,,,,,,,,,,,,,,,,,,,,,,,,,478.90559699999903,478.92118409999966,478.92118409999966,480.9048301999992,space,1.967404400000305,None,00062,001,2026-01-19_19h46.43.275,MST_test,2024.2.0,59.99656819614141,2026-01-19 19h46.50.915533 +0530,
