Sl_no,image_path,thisN,thisTrialN,thisRepN,key_resp_5.keys,key_resp_5.rt,key_resp_5.duration,key_resp_7.keys,key_resp_7.rt,key_resp_7.duration,key_resp_9.keys,key_resp_9.rt,key_resp_9.duration,key_resp_8.keys,practice.thisRepN,practice.thisTrialN,practice.thisN,trials.thisRepN,trials.thisTrialN,trials.thisN,thisRow.t,notes,welcome_page.started,text.started,key_resp.started,welcome_page.stopped,key_resp.keys,key_resp.rt,key_resp.duration,instructions.started,ins.started,key_resp_2.started,instructions.stopped,key_resp_2.keys,key_resp_2.rt,key_resp_2.duration,objects_only_instruction.started,text_3.started,key_resp_3.started,objects_only_instruction.stopped,key_resp_3.keys,key_resp_3.rt,key_resp_3.duration,ISI.started,text_4.started,ISI.stopped,practice_block.started,image.started,key_resp_5.started,text_5.started,practice_block.stopped,practice.key_resp_5.keys,practice.key_resp_5.rt,practice.key_resp_5.duration,indoor_outdoor.started,indoor_outdoor.stopped,practice.key_resp_7.keys,text_7.started,key_resp_7.started,practice.key_resp_7.rt,practice.key_resp_7.duration,practice_to_main.started,text_2.started,key_resp_4.started,practice_to_main.stopped,key_resp_4.keys,key_resp_4.rt,key_resp_4.duration,objects.started,image_2.started,text_9.started,key_resp_9.started,objects.stopped,category,trials.key_resp_9.keys,trials.key_resp_9.rt,trials.key_resp_9.duration,encoding_task.started,encoding_task.stopped,trials.key_resp_8.keys,text_4.stopped,end_experiment.started,text_6.started,key_resp_6.started,end_experiment.stopped,key_resp_6.keys,key_resp_6.rt,key_resp_6.duration,list_of_stimuli,encoding_task_accuracy,participant,session,date,expName,psychopyVersion,frameRate,expStart,
,,,,,,,,,,,,,,,,,,,,,,,0.01182030001655221,0.028484500013291836,0.028484500013291836,696.7706429999962,space,696.7348187000025,None,,,,,,,,,,,,,,,,,,,,,,,,,,,,,,,,,,,,,,,,,,,,,,,,,,,,,,,,,,,,,,00037,001,2026-01-16_22h41.10.264,MST_task,2024.2.0,59.82310308132301,2026-01-16 22h41.24.639802 +0530,
,,,,,,,,,,,,,,,,,,,,,,,,,,,,,,696.7706831000105,696.786055900011,696.786055900011,749.9063815000118,space,53.105159300001105,None,,,,,,,,,,,,,,,,,,,,,,,,,,,,,,,,,,,,,,,,,,,,,,,,,,,,,,,00037,001,2026-01-16_22h41.10.264,MST_task,2024.2.0,59.82310308132301,2026-01-16 22h41.24.639802 +0530,
,,,,,,,,,,,,,,,,,,,,,,,,,,,,,,,,,,,,,749.9064135000226,749.9224649000098,749.9224649000098,760.8118276000023,space,10.888620100013213,None,,,,,,,,,,,,,,,,,,,,,,,,,,,,,,,,,,,,,,,,,,,,,,,,00037,001,2026-01-16_22h41.10.264,MST_task,2024.2.0,59.82310308132301,2026-01-16 22h41.24.639802 +0530,
6,practice_images/158a.jpg,0,0,1,j,2.7935543000057805,0.07266150001669303,None,,,,,,,1,0,0,,,,760.8281750000024,,,,,,,,,,,,,,,,,,,,,,,760.8162135000166,760.8281750000024,761.3128367000027,761.323295500013,761.3294945000089,761.3294945000089,761.3294945000089,764.3236801000021,j,2.7935543000057805,0.07266150001669303,764.3249685000046,764.3249868999992,None,,,,,,,,,,,,,,,,,,,,,,,,,,,,,,,,,,00037,001,2026-01-16_22h41.10.264,MST_task,2024.2.0,59.82310308132301,2026-01-16 22h41.24.639802 +0530,
9,practice_images/180a.jpg,1,1,1,f,1.7626301000127569,0.07106580000254326,None,,,,,,,1,1,1,,,,764.3399597000098,,,,,,,,,,,,,,,,,,,,,,,764.3250544000184,764.3399597000098,764.8251969999983,764.8272322000121,764.8416934999987,764.8416934999987,764.8416934999987,767.8356658999983,f,1.7626301000127569,0.07106580000254326,767.835847600014,767.8358626000118,None,,,,,,,,,,,,,,,,,,,,,,,,,,,,,,,,,,00037,001,2026-01-16_22h41.10.264,MST_task,2024.2.0,59.82310308132301,2026-01-16 22h41.24.639802 +0530,
10,practice_images/182a.jpg,2,2,1,f,1.8973882000136655,0.08046309999190271,None,,,,,,,1,2,2,,,,767.8522436000057,,,,,,,,,,,,,,,,,,,,,,,767.8359378000023,767.8522436000057,768.3374460000196,768.3395378999994,768.3539831000089,768.3539831000089,768.3539831000089,771.3479790000129,f,1.8973882000136655,0.08046309999190271,771.3481557000196,771.3481702000136,None,,,,,,,,,,,,,,,,,,,,,,,,,,,,,,,,,,00037,001,2026-01-16_22h41.10.264,MST_task,2024.2.0,59.82310308132301,2026-01-16 22h41.24.639802 +0530,
1,practice_images/013a.jpg,3,3,1,None,,,j,0.17529800001648255,None,,,,,1,3,3,,,,771.3645611999964,,,,,,,,,,,,,,,,,,,,,,,771.3482431000157,771.3645611999964,771.8497491000162,771.8518892000138,771.8663480000105,771.8663480000105,771.8663480000105,774.8602872000192,None,,,774.8603203000093,775.0615882000129,j,774.8768304999976,774.8768304999976,0.17529800001648255,None,,,,,,,,,,,,,,,,,,,,,,,,,,,,,,00037,001,2026-01-16_22h41.10.264,MST_task,2024.2.0,59.82310308132301,2026-01-16 22h41.24.639802 +0530,
8,practice_images/178a.jpg,4,4,1,j,1.3520702999958303,0.10367859998950735,None,,,,,,,1,4,4,,,,775.0775570000114,,,,,,,,,,,,,,,,,,,,,,,775.0616720000107,775.0775570000114,775.5627772000153,775.5647433999984,775.5792971000192,775.5792971000192,775.5792971000192,778.5730061000213,j,1.3520702999958303,0.10367859998950735,778.5730502000079,778.5730637000233,None,,,,,,,,,,,,,,,,,,,,,,,,,,,,,,,,,,00037,001,2026-01-16_22h41.10.264,MST_task,2024.2.0,59.82310308132301,2026-01-16 22h41.24.639802 +0530,
2,practice_images/031a.jpg,5,5,1,f,1.5280086999991909,0.1437980999762658,None,,,,,,,1,5,5,,,,778.5898227000143,,,,,,,,,,,,,,,,,,,,,,,778.5732970999961,778.5898227000143,779.0747457999969,779.0790001999994,779.0912490000192,779.0912490000192,779.0912490000192,782.085284300003,f,1.5280086999991909,0.1437980999762658,782.0867525000067,782.0867734000203,None,,,,,,,,,,,,,,,,,,,,,,,,,,,,,,,,,,00037,001,2026-01-16_22h41.10.264,MST_task,2024.2.0,59.82310308132301,2026-01-16 22h41.24.639802 +0530,
4,practice_images/002b.jpg,6,6,1,f,1.7588871000043582,0.18399390002014115,None,,,,,,,1,6,6,,,,782.1018458000035,,,,,,,,,,,,,,,,,,,,,,,782.0868428999966,782.1018458000035,782.5872629000223,782.5891525000043,782.6047805999988,782.6047805999988,782.6047805999988,785.5987172000168,f,1.7588871000043582,0.18399390002014115,785.5987553000159,785.5987674000207,None,,,,,,,,,,,,,,,,,,,,,,,,,,,,,,,,,,00037,001,2026-01-16_22h41.10.264,MST_task,2024.2.0,59.82310308132301,2026-01-16 22h41.24.639802 +0530,
3,practice_images/037a.jpg,7,7,1,f,2.1988999000168405,0.13676529997610487,None,,,,,,,1,7,7,,,,785.6144200999988,,,,,,,,,,,,,,,,,,,,,,,785.599350000004,785.6144200999988,786.0995260000054,786.1010498999967,786.1160202000174,786.1160202000174,786.1160202000174,789.1099742000224,f,2.1988999000168405,0.13676529997610487,789.1100662000244,789.1100864000036,None,,,,,,,,,,,,,,,,,,,,,,,,,,,,,,,,,,00037,001,2026-01-16_22h41.10.264,MST_task,2024.2.0,59.82310308132301,2026-01-16 22h41.24.639802 +0530,
5,practice_images/139a.jpg,8,8,1,j,1.6152410000213422,0.14354859999730252,None,,,,,,,1,8,8,,,,789.126445300004,,,,,,,,,,,,,,,,,,,,,,,789.1101589000027,789.126445300004,789.6118435999961,789.614041599998,789.6282883000094,789.6282883000094,789.6282883000094,792.6229975000024,j,1.6152410000213422,0.14354859999730252,792.6230342000199,792.6230455000186,None,,,,,,,,,,,,,,,,,,,,,,,,,,,,,,,,,,00037,001,2026-01-16_22h41.10.264,MST_task,2024.2.0,59.82310308132301,2026-01-16 22h41.24.639802 +0530,
7,practice_images/166a.jpg,9,9,1,f,1.390712699998403,0.1528831000032369,None,,,,,,,1,9,9,,,,792.6389486000116,,,,,,,,,,,,,,,,,,,,,,,792.6231135000126,792.6389486000116,793.1242943000107,793.1257792999968,793.1412206999958,793.1412206999958,793.1412206999958,796.134337800002,f,1.390712699998403,0.1528831000032369,796.134374300018,796.134385900019,None,,,,,,,,,,,,,,,,,,,,,,,,,,,,,,,,,,00037,001,2026-01-16_22h41.10.264,MST_task,2024.2.0,59.82310308132301,2026-01-16 22h41.24.639802 +0530,
,,,,,,,,,,,,,,,,,,,,,,,,,,,,,,,,,,,,,,,,,,,,,,,,,,,,,,,,,,,,,,796.1344299000048,796.1509938000236,796.1509938000236,842.2296760000172,space,46.07703559999936,None,,,,,,,,,,,,,,,,,,,,,,,00037,001,2026-01-16_22h41.10.264,MST_task,2024.2.0,59.82310308132301,2026-01-16 22h41.24.639802 +0530,
,Objects\323a.jpg,0,0,1,,,,,,,f,2.9674070999899413,None,None,,,,1,0,0,842.2457908000215,,,,,,,,,,,,,,,,,,,,,,,842.2303249000106,842.2457908000215,842.731029800023,,,,,,,,,,,,,,,,,,,,,,,842.7400300000154,842.7478329000005,842.7478329000005,842.7478329000005,845.7415027000243,shoe,f,2.9674070999899413,None,845.7432669000118,845.7432866000163,None,,,,,,,,,,,00037,001,2026-01-16_22h41.10.264,MST_task,2024.2.0,59.82310308132301,2026-01-16 22h41.24.639802 +0530,
,Objects\311a.jpg,1,0,2,,,,,,,j,2.782570699986536,0.11916020000353456,None,,,,2,0,1,845.7582033000072,,,,,,,,,,,,,,,,,,,,,,,845.7433575000032,845.7582033000072,846.2433588000131,,,,,,,,,,,,,,,,,,,,,,,846.2593430000124,846.2772952000087,846.2772952000087,846.2772952000087,849.2537849000073,shoe,j,2.782570699986536,0.11916020000353456,849.2538318000152,849.2538436000177,None,,,,,,,,,,,00037,001,2026-01-16_22h41.10.264,MST_task,2024.2.0,59.82310308132301,2026-01-16 22h41.24.639802 +0530,
,Objects\345a.jpg,2,0,3,,,,,,,f,2.0060878999938723,0.12828600002103485,None,,,,3,0,2,849.2703746000188,,,,,,,,,,,,,,,,,,,,,,,849.2539113000093,849.2703746000188,849.7555998000025,,,,,,,,,,,,,,,,,,,,,,,849.7647880000004,849.7889342000126,849.7889342000126,849.7889342000126,852.7660790000227,shoe,f,2.0060878999938723,0.12828600002103485,852.7664119999972,852.7664253000112,None,,,,,,,,,,,00037,001,2026-01-16_22h41.10.264,MST_task,2024.2.0,59.82310308132301,2026-01-16 22h41.24.639802 +0530,
,Objects\077a.jpg,3,0,4,,,,,,,j,2.352162600000156,0.11095229999045841,None,,,,4,0,3,852.7826762000041,,,,,,,,,,,,,,,,,,,,,,,852.7664960999973,852.7826762000041,853.2678884000052,,,,,,,,,,,,,,,,,,,,,,,853.2705711000017,853.2844377000001,853.2844377000001,853.2844377000001,856.278272399999,shoe,j,2.352162600000156,0.11095229999045841,856.2783185000008,856.2783305000048,None,,,,,,,,,,,00037,001,2026-01-16_22h41.10.264,MST_task,2024.2.0,59.82310308132301,2026-01-16 22h41.24.639802 +0530,
,Objects\212a.jpg,4,0,5,,,,,,,j,2.213060600013705,0.13596769998548552,None,,,,5,0,4,856.2950970000238,,,,,,,,,,,,,,,,,,,,,,,856.2784329999995,856.2950970000238,856.7802136999962,,,,,,,,,,,,,,,,,,,,,,,856.7893579000083,856.8146415000083,856.8146415000083,856.8146415000083,859.7908743000007,shoe,j,2.213060600013705,0.13596769998548552,859.7909158999973,859.7909274999984,None,,,,,,,,,,,00037,001,2026-01-16_22h41.10.264,MST_task,2024.2.0,59.82310308132301,2026-01-16 22h41.24.639802 +0530,
,Objects\111a.jpg,5,0,6,,,,,,,j,2.6211521000077482,0.09602429997175932,None,,,,6,0,5,859.8078820000228,,,,,,,,,,,,,,,,,,,,,,,859.7909969000029,859.8078820000228,860.2924981999968,,,,,,,,,,,,,,,,,,,,,,,860.3011170999962,860.32632990001,860.32632990001,860.32632990001,863.3028545000125,shoe,j,2.6211521000077482,0.09602429997175932,863.3028963000106,863.302920600021,None,,,,,,,,,,,00037,001,2026-01-16_22h41.10.264,MST_task,2024.2.0,59.82310308132301,2026-01-16 22h41.24.639802 +0530,
,Objects\032a.jpg,6,0,7,,,,,,,j,1.3580320000182837,0.10356169997248799,None,,,,7,0,6,863.3197032000171,,,,,,,,,,,,,,,,,,,,,,,863.3030273000186,863.3197032000171,863.8046577000059,,,,,,,,,,,,,,,,,,,,,,,863.8077387000085,863.8214101000049,863.8214101000049,863.8214101000049,866.8152967000206,shoe,j,1.3580320000182837,0.10356169997248799,866.8153409000079,866.8153524000081,None,,,,,,,,,,,00037,001,2026-01-16_22h41.10.264,MST_task,2024.2.0,59.82310308132301,2026-01-16 22h41.24.639802 +0530,
,Objects\265a.jpg,7,0,8,,,,,,,j,1.9101630999939516,0.11998730001505464,None,,,,8,0,7,866.8319874000154,,,,,,,,,,,,,,,,,,,,,,,866.8154609000194,866.8319874000154,867.3170846000139,,,,,,,,,,,,,,,,,,,,,,,867.3262179000012,867.3336277000199,867.3336277000199,867.3336277000199,870.3278019000136,indoor,j,1.9101630999939516,0.11998730001505464,870.3291571000009,870.3291780000145,None,,,,,,,,,,,00037,001,2026-01-16_22h41.10.264,MST_task,2024.2.0,59.82310308132301,2026-01-16 22h41.24.639802 +0530,
,Objects\372a.jpg,8,0,9,,,,,,,f,2.284885299974121,0.11920150002697483,None,,,,9,0,8,870.3449070000206,,,,,,,,,,,,,,,,,,,,,,,870.3292489000014,870.3449070000206,870.829570300004,,,,,,,,,,,,,,,,,,,,,,,870.8444412999961,870.8627862000139,870.8627862000139,870.8627862000139,873.8399498000217,indoor,f,2.284885299974121,0.11920150002697483,873.8399984000134,873.8400107000198,None,,,,,,,,,,,00037,001,2026-01-16_22h41.10.264,MST_task,2024.2.0,59.82310308132301,2026-01-16 22h41.24.639802 +0530,
,Objects\220a.jpg,9,0,10,,,,,,,j,2.140480000001844,0.10415009999996983,None,,,,10,0,9,873.8570251000056,,,,,,,,,,,,,,,,,,,,,,,873.8400861000118,873.8570251000056,874.3418938000104,,,,,,,,,,,,,,,,,,,,,,,874.3497749000089,874.3751913000015,874.3751913000015,874.3751913000015,877.3520922000171,indoor,j,2.140480000001844,0.10415009999996983,877.3521469999978,877.3521591000026,None,,,,,,,,,,,00037,001,2026-01-16_22h41.10.264,MST_task,2024.2.0,59.82310308132301,2026-01-16 22h41.24.639802 +0530,
,Objects\225a.jpg,10,0,11,,,,,,,j,2.579694499989273,0.07975040000746958,None,,,,11,0,10,877.3688969000068,,,,,,,,,,,,,,,,,,,,,,,877.3522273999988,877.3688969000068,877.854003800021,,,,,,,,,,,,,,,,,,,,,,,877.8689566999965,877.8878196000005,877.8878196000005,877.8878196000005,880.8644684000174,indoor,j,2.579694499989273,0.07975040000746958,880.8645381000242,880.8645508000045,None,,,,,,,,,,,00037,001,2026-01-16_22h41.10.264,MST_task,2024.2.0,59.82310308132301,2026-01-16 22h41.24.639802 +0530,
,Objects\274a.jpg,11,0,12,,,,,,,j,1.5968398999830242,0.10356449999380857,None,,,,12,0,11,880.8810758000182,,,,,,,,,,,,,,,,,,,,,,,880.8646217000205,880.8810758000182,881.3662737999985,,,,,,,,,,,,,,,,,,,,,,,881.3689400000148,881.382783500012,881.382783500012,881.382783500012,884.3767823000089,indoor,j,1.5968398999830242,0.10356449999380857,884.3768252000154,884.3768364000134,None,,,,,,,,,,,00037,001,2026-01-16_22h41.10.264,MST_task,2024.2.0,59.82310308132301,2026-01-16 22h41.24.639802 +0530,
,Objects\080a.jpg,12,0,13,,,,,,,f,2.716168100014329,0.10422189999371767,None,,,,13,0,12,884.3934946000227,,,,,,,,,,,,,,,,,,,,,,,884.3769057000172,884.3934946000227,884.87860310002,,,,,,,,,,,,,,,,,,,,,,,884.8817203000071,884.8950914000161,884.8950914000161,884.8950914000161,887.8890113000234,indoor,f,2.716168100014329,0.10422189999371767,887.8890565000183,887.8890681000194,None,,,,,,,,,,,00037,001,2026-01-16_22h41.10.264,MST_task,2024.2.0,59.82310308132301,2026-01-16 22h41.24.639802 +0530,
,Objects\090a.jpg,13,0,14,,,,,,,j,1.963954000006197,0.1274619000032544,None,,,,14,0,13,887.9056759000232,,,,,,,,,,,,,,,,,,,,,,,887.8891377999971,887.9056759000232,888.3911851000157,,,,,,,,,,,,,,,,,,,,,,,888.3947569000011,888.4075411000231,888.4075411000231,888.4075411000231,891.401268400019,indoor,j,1.963954000006197,0.1274619000032544,891.4013109000225,891.401322699996,None,,,,,,,,,,,00037,001,2026-01-16_22h41.10.264,MST_task,2024.2.0,59.82310308132301,2026-01-16 22h41.24.639802 +0530,
,Objects\305a.jpg,14,0,15,,,,,,,f,2.155638700001873,0.11235899999155663,None,,,,15,0,14,891.41808090001,,,,,,,,,,,,,,,,,,,,,,,891.4014303000004,891.41808090001,891.9030595000077,,,,,,,,,,,,,,,,,,,,,,,891.9077787999995,891.9198038000031,891.9198038000031,891.9198038000031,894.9136814000085,shoe,f,2.155638700001873,0.11235899999155663,894.9155432000116,894.9155634000199,None,,,,,,,,,,,00037,001,2026-01-16_22h41.10.264,MST_task,2024.2.0,59.82310308132301,2026-01-16 22h41.24.639802 +0530,
,Objects\014a.jpg,15,0,16,,,,,,,f,2.194599200010998,0.14445870000054128,None,,,,16,0,15,894.9303777000168,,,,,,,,,,,,,,,,,,,,,,,894.9156352000136,894.9303777000168,895.4162629000202,,,,,,,,,,,,,,,,,,,,,,,895.426220000023,895.4488481000008,895.4488481000008,895.4488481000008,898.4261029000045,shoe,f,2.194599200010998,0.14445870000054128,898.4261577000143,898.4261844000139,None,895.4488481000008,,,,,,,,,,00037,001,2026-01-16_22h41.10.264,MST_task,2024.2.0,59.82310308132301,2026-01-16 22h41.24.639802 +0530,
,Objects\267a.jpg,16,0,17,,,,,,,j,1.6099271000130102,0.11191770000732504,None,,,,17,0,16,898.4425752000243,,,,,,,,,,,,,,,,,,,,,,,898.4262872000108,898.4425752000243,898.9277857000125,,,,,,,,,,,,,,,,,,,,,,,898.9375829000201,898.9611512999982,898.9611512999982,898.9611512999982,901.9382220999978,shoe,j,1.6099271000130102,0.11191770000732504,901.9382663000142,901.938279199996,None,,,,,,,,,,,00037,001,2026-01-16_22h41.10.264,MST_task,2024.2.0,59.82310308132301,2026-01-16 22h41.24.639802 +0530,
,Objects\103a.jpg,17,0,18,,,,,,,j,2.385976599995047,0.09599200001684949,None,,,,18,0,17,901.9549999000155,,,,,,,,,,,,,,,,,,,,,,,901.9383894000202,901.9549999000155,902.4399627000093,,,,,,,,,,,,,,,,,,,,,,,902.4573273000133,902.4735540999973,902.4735540999973,902.4735540999973,905.4505612000066,shoe,j,2.385976599995047,0.09599200001684949,905.4508708000067,905.4508842000214,None,,,,,,,,,,,00037,001,2026-01-16_22h41.10.264,MST_task,2024.2.0,59.82310308132301,2026-01-16 22h41.24.639802 +0530,
,Objects\056a.jpg,18,0,19,,,,,,,f,1.7068025000044145,0.15208209998672828,None,,,,19,0,18,905.4671747999964,,,,,,,,,,,,,,,,,,,,,,,905.4510117000027,905.4671747999964,905.9524133000232,,,,,,,,,,,,,,,,,,,,,,,905.9552013000066,905.9688873999985,905.9688873999985,905.9688873999985,908.9628616000118,shoe,f,1.7068025000044145,0.15208209998672828,908.9629158000171,908.9629281000234,None,,,,,,,,,,,00037,001,2026-01-16_22h41.10.264,MST_task,2024.2.0,59.82310308132301,2026-01-16 22h41.24.639802 +0530,
,Objects\233a.jpg,19,0,20,,,,,,,f,1.8890443000127561,0.14440589997684583,None,,,,20,0,19,908.9795959000185,,,,,,,,,,,,,,,,,,,,,,,908.9629965000204,908.9795959000185,909.4647360000235,,,,,,,,,,,,,,,,,,,,,,,909.4791300000215,909.4980281000026,909.4980281000026,909.4980281000026,912.4753045999969,shoe,f,1.8890443000127561,0.14440589997684583,912.475348100008,912.4753598000098,None,,,,,,,,,,,00037,001,2026-01-16_22h41.10.264,MST_task,2024.2.0,59.82310308132301,2026-01-16 22h41.24.639802 +0530,
,Objects\147a.jpg,20,0,21,,,,,,,f,2.5300579000031576,0.12809690000722185,None,,,,21,0,20,912.4917629999982,,,,,,,,,,,,,,,,,,,,,,,912.4754291000136,912.4917629999982,912.9769664000196,,,,,,,,,,,,,,,,,,,,,,,912.9847278000088,912.9930226000142,912.9930226000142,912.9930226000142,915.9876348999969,shoe,f,2.5300579000031576,0.12809690000722185,915.9876962999988,915.9877085000044,None,,,,,,,,,,,00037,001,2026-01-16_22h41.10.264,MST_task,2024.2.0,59.82310308132301,2026-01-16 22h41.24.639802 +0530,
,Objects\363a.jpg,21,0,22,,,,,,,j,1.9690508999919984,0.13761000000522472,None,,,,22,0,21,916.0040607000119,,,,,,,,,,,,,,,,,,,,,,,915.9877804999996,916.0040607000119,916.4892608000082,,,,,,,,,,,,,,,,,,,,,,,916.4943981000106,916.5057742000208,916.5057742000208,916.5057742000208,919.4997810000204,indoor,j,1.9690508999919984,0.13761000000522472,919.5011121999996,919.5011294000142,None,,,,,,,,,,,00037,001,2026-01-16_22h41.10.264,MST_task,2024.2.0,59.82310308132301,2026-01-16 22h41.24.639802 +0530,
,Objects\041a.jpg,22,0,23,,,,,,,f,2.769678800017573,0.1351555000001099,None,,,,23,0,22,919.516368200013,,,,,,,,,,,,,,,,,,,,,,,919.5011993000226,919.516368200013,920.001754500001,,,,,,,,,,,,,,,,,,,,,,,920.0048313000007,920.0180921000137,920.0180921000137,920.0180921000137,923.0120921000198,indoor,f,2.769678800017573,0.1351555000001099,923.0121577000245,923.0121711000102,None,,,,,,,,,,,00037,001,2026-01-16_22h41.10.264,MST_task,2024.2.0,59.82310308132301,2026-01-16 22h41.24.639802 +0530,
,Objects\064a.jpg,23,0,24,,,,,,,j,1.8648475999943912,0.11959509999724105,None,,,,24,0,23,923.0286669000052,,,,,,,,,,,,,,,,,,,,,,,923.012249100022,923.0286669000052,923.5140310999996,,,,,,,,,,,,,,,,,,,,,,,923.517473600019,923.5303867000039,923.5303867000039,923.5303867000039,926.525045700022,indoor,j,1.8648475999943912,0.11959509999724105,926.5251144000213,926.5255187000148,None,,,,,,,,,,,00037,001,2026-01-16_22h41.10.264,MST_task,2024.2.0,59.82310308132301,2026-01-16 22h41.24.639802 +0530,
,Objects\018a.jpg,24,0,25,,,,,,,j,2.5122303000243846,0.13599139999132603,None,,,,25,0,24,926.5417843000032,,,,,,,,,,,,,,,,,,,,,,,926.5256074000208,926.5417843000032,927.0270653000043,,,,,,,,,,,,,,,,,,,,,,,927.0303885000176,927.0429528999957,927.0429528999957,927.0429528999957,930.0372688000207,indoor,j,2.5122303000243846,0.13599139999132603,930.03732090001,930.0373335000186,None,,,,,,,,,,,00037,001,2026-01-16_22h41.10.264,MST_task,2024.2.0,59.82310308132301,2026-01-16 22h41.24.639802 +0530,
,Objects\336a.jpg,25,0,26,,,,,,,f,2.800842399999965,0.12695750000420958,None,,,,26,0,25,930.0535534000082,,,,,,,,,,,,,,,,,,,,,,,930.0374097000167,930.0535534000082,930.5383767000167,,,,,,,,,,,,,,,,,,,,,,,930.5453853000072,930.5550809999986,930.5550809999986,930.5550809999986,933.5488581999962,indoor,f,2.800842399999965,0.12695750000420958,933.5489022000111,933.5489139000128,None,,,,,,,,,,,00037,001,2026-01-16_22h41.10.264,MST_task,2024.2.0,59.82310308132301,2026-01-16 22h41.24.639802 +0530,
,Objects\337a.jpg,26,0,27,,,,,,,f,2.8793882000027224,None,None,,,,27,0,26,933.5656864000193,,,,,,,,,,,,,,,,,,,,,,,933.5489894000057,933.5656864000193,934.0508257000183,,,,,,,,,,,,,,,,,,,,,,,934.0596178999986,934.0842411000049,934.0842411000049,934.0842411000049,937.0612662000058,indoor,f,2.8793882000027224,None,937.0613091000123,937.061320400011,None,,,,,,,,,,,00037,001,2026-01-16_22h41.10.264,MST_task,2024.2.0,59.82310308132301,2026-01-16 22h41.24.639802 +0530,
,Objects\006a.jpg,27,0,28,,,,,,,f,2.038860799977556,0.14413729999796487,None,,,,28,0,27,937.0779851000116,,,,,,,,,,,,,,,,,,,,,,,937.0613890000095,937.0779851000116,937.5631689000002,,,,,,,,,,,,,,,,,,,,,,,937.5784513000108,937.5963154000056,937.5963154000056,937.5963154000056,940.5734690999961,indoor,f,2.038860799977556,0.14413729999796487,940.573512300005,940.5735246000113,None,,,,,,,,,,,00037,001,2026-01-16_22h41.10.264,MST_task,2024.2.0,59.82310308132301,2026-01-16 22h41.24.639802 +0530,
,Objects\209a.jpg,28,0,29,,,,,,,f,1.9830322999914642,0.15225010001449846,None,,,,29,0,28,940.5902753999981,,,,,,,,,,,,,,,,,,,,,,,940.5737516000227,940.5902753999981,941.0752943000116,,,,,,,,,,,,,,,,,,,,,,,941.0839276000042,941.1087333000032,941.1087333000032,941.1087333000032,944.0857558000134,shoe,f,1.9830322999914642,0.15225010001449846,944.0879565000068,944.0879761000106,None,,,,,,,,,,,00037,001,2026-01-16_22h41.10.264,MST_task,2024.2.0,59.82310308132301,2026-01-16 22h41.24.639802 +0530,
,Objects\169a.jpg,29,0,30,,,,,,,f,1.5997078999935184,0.1352348000218626,None,,,,30,0,29,944.1025917000079,,,,,,,,,,,,,,,,,,,,,,,944.088047600002,944.1025917000079,944.5879929000221,,,,,,,,,,,,,,,,,,,,,,,944.5960066000116,944.604159200011,944.604159200011,944.604159200011,947.5981170000159,shoe,f,1.5997078999935184,0.1352348000218626,947.5981625000131,947.5981769000064,None,944.604159200011,,,,,,,,,,00037,001,2026-01-16_22h41.10.264,MST_task,2024.2.0,59.82310308132301,2026-01-16 22h41.24.639802 +0530,
,Objects\113a.jpg,30,0,31,,,,,,,f,2.821987499977695,0.12951940001221374,None,,,,31,0,30,947.6148760000069,,,,,,,,,,,,,,,,,,,,,,,947.5982466000132,947.6148760000069,948.0998806999996,,,,,,,,,,,,,,,,,,,,,,,948.1101765000203,948.133310300007,948.133310300007,948.133310300007,951.1104544000118,shoe,f,2.821987499977695,0.12951940001221374,951.110663200001,951.110676500015,None,,,,,,,,,,,00037,001,2026-01-16_22h41.10.264,MST_task,2024.2.0,59.82310308132301,2026-01-16 22h41.24.639802 +0530,
,Objects\061a.jpg,31,0,32,,,,,,,j,1.9430352000053972,0.11219049998908304,None,,,,32,0,31,951.1270592000219,,,,,,,,,,,,,,,,,,,,,,,951.1107465999958,951.1270592000219,951.6124449000054,,,,,,,,,,,,,,,,,,,,,,,951.6155624000239,951.6287670000165,951.6287670000165,951.6287670000165,954.6228893000225,shoe,j,1.9430352000053972,0.11219049998908304,954.6229327000037,954.6229449000093,None,,,,,,,,,,,00037,001,2026-01-16_22h41.10.264,MST_task,2024.2.0,59.82310308132301,2026-01-16 22h41.24.639802 +0530,
,Objects\190a.jpg,32,0,33,,,,,,,f,1.877692100009881,0.15182069997536018,None,,,,33,0,32,954.6393638000009,,,,,,,,,,,,,,,,,,,,,,,954.6230858000054,954.6393638000009,955.1245569000021,,,,,,,,,,,,,,,,,,,,,,,955.1350803000096,955.158030999999,955.158030999999,955.158030999999,958.1350447000004,shoe,f,1.877692100009881,0.15182069997536018,958.1350865999993,958.1350991000072,None,,,,,,,,,,,00037,001,2026-01-16_22h41.10.264,MST_task,2024.2.0,59.82310308132301,2026-01-16 22h41.24.639802 +0530,
,Objects\277a.jpg,33,0,34,,,,,,,f,1.6939851000206545,0.14408639998873696,None,,,,34,0,33,958.1517798000132,,,,,,,,,,,,,,,,,,,,,,,958.1351692000171,958.1517798000132,958.6368826999969,,,,,,,,,,,,,,,,,,,,,,,958.6445589000068,958.6529510999972,958.6529510999972,958.6529510999972,961.6473775000195,shoe,f,1.6939851000206545,0.14408639998873696,961.6474503000209,961.6474621000234,None,,,,,,,,,,,00037,001,2026-01-16_22h41.10.264,MST_task,2024.2.0,59.82310308132301,2026-01-16 22h41.24.639802 +0530,
,Objects\331a.jpg,34,0,35,,,,,,,j,2.613721900008386,0.11276139999972656,None,,,,35,0,34,961.6639716000063,,,,,,,,,,,,,,,,,,,,,,,961.6475340000179,961.6639716000063,962.1491665000212,,,,,,,,,,,,,,,,,,,,,,,962.156533100002,962.1651733000181,962.1651733000181,962.1651733000181,965.1596901000012,shoe,j,2.613721900008386,0.11276139999972656,965.1597349000222,965.1597469999979,None,,,,,,,,,,,00037,001,2026-01-16_22h41.10.264,MST_task,2024.2.0,59.82310308132301,2026-01-16 22h41.24.639802 +0530,
,Objects\121a.jpg,35,0,36,,,,,,,f,2.301238399988506,0.13473799999337643,None,,,,36,0,35,965.1764628000092,,,,,,,,,,,,,,,,,,,,,,,965.1598478000087,965.1764628000092,965.6614593999984,,,,,,,,,,,,,,,,,,,,,,,965.6708046999993,965.6948175000143,965.6948175000143,965.6948175000143,968.6720891000004,indoor,f,2.301238399988506,0.13473799999337643,968.673873599997,968.6738925000245,None,,,,,,,,,,,00037,001,2026-01-16_22h41.10.264,MST_task,2024.2.0,59.82310308132301,2026-01-16 22h41.24.639802 +0530,
,Objects\270a.jpg,36,0,37,,,,,,,j,1.541605200007325,0.10367969999788329,None,,,,37,0,36,968.6885530000145,,,,,,,,,,,,,,,,,,,,,,,968.673972700024,968.6885530000145,969.1741614000057,,,,,,,,,,,,,,,,,,,,,,,969.1791100999981,969.190264600009,969.190264600009,969.190264600009,972.1845893000136,indoor,j,1.541605200007325,0.10367969999788329,972.1846385000099,972.1846516000223,None,,,,,,,,,,,00037,001,2026-01-16_22h41.10.264,MST_task,2024.2.0,59.82310308132301,2026-01-16 22h41.24.639802 +0530,
,Objects\040a.jpg,37,0,38,,,,,,,f,2.2053296000231057,0.12768969999160618,None,,,,38,0,37,972.2008578000241,,,,,,,,,,,,,,,,,,,,,,,972.1847220000054,972.2008578000241,972.6863774000085,,,,,,,,,,,,,,,,,,,,,,,972.6943888000096,972.7023989000008,972.7023989000008,972.7023989000008,975.6965740000014,indoor,f,2.2053296000231057,0.12768969999160618,975.696878000017,975.6968929000141,None,,,,,,,,,,,00037,001,2026-01-16_22h41.10.264,MST_task,2024.2.0,59.82310308132301,2026-01-16 22h41.24.639802 +0530,
,Objects\081a.jpg,38,0,39,,,,,,,j,1.5084454000170808,0.12778889999026433,None,,,,39,0,38,975.7132770000026,,,,,,,,,,,,,,,,,,,,,,,975.6969660000177,975.7132770000026,976.1983543000242,,,,,,,,,,,,,,,,,,,,,,,976.2014492000162,976.2148705,976.2148705,976.2148705,979.2087545999966,indoor,j,1.5084454000170808,0.12778889999026433,979.2087978000054,979.2088099000102,None,,,,,,,,,,,00037,001,2026-01-16_22h41.10.264,MST_task,2024.2.0,59.82310308132301,2026-01-16 22h41.24.639802 +0530,
,Objects\367a.jpg,39,0,40,,,,,,,f,1.8513220000022557,0.1772305999766104,None,,,,40,0,39,979.2255663000105,,,,,,,,,,,,,,,,,,,,,,,979.2090306000027,979.2255663000105,979.7106235000247,,,,,,,,,,,,,,,,,,,,,,,979.7193487000186,979.7441890000191,979.7441890000191,979.7441890000191,982.7211465,indoor,f,1.8513220000022557,0.1772305999766104,982.7213661000133,982.7213786000211,None,,,,,,,,,,,00037,001,2026-01-16_22h41.10.264,MST_task,2024.2.0,59.82310308132301,2026-01-16 22h41.24.639802 +0530,
,Objects\340a.jpg,40,0,41,,,,,,,f,2.3232442000007723,0.1443923999904655,None,,,,41,0,40,982.7376752000127,,,,,,,,,,,,,,,,,,,,,,,982.7214520999987,982.7376752000127,983.2229459000228,,,,,,,,,,,,,,,,,,,,,,,983.2379112000053,983.2564176000014,983.2564176000014,983.2564176000014,986.2338593000022,indoor,f,2.3232442000007723,0.1443923999904655,986.2339263000176,986.2339386999956,None,,,,,,,,,,,00037,001,2026-01-16_22h41.10.264,MST_task,2024.2.0,59.82310308132301,2026-01-16 22h41.24.639802 +0530,
,Objects\007a.jpg,41,0,42,,,,,,,f,1.5303200999915134,0.2091333999997005,None,,,,42,0,41,986.2503259000077,,,,,,,,,,,,,,,,,,,,,,,986.2340334000182,986.2503259000077,986.7352788000135,,,,,,,,,,,,,,,,,,,,,,,986.7437930000015,986.7688604000141,986.7688604000141,986.7688604000141,989.745920300018,indoor,f,1.5303200999915134,0.2091333999997005,989.7459665000206,989.7459785000246,None,,,,,,,,,,,00037,001,2026-01-16_22h41.10.264,MST_task,2024.2.0,59.82310308132301,2026-01-16 22h41.24.639802 +0530,
,Objects\304a.jpg,42,0,43,,,,,,,f,2.3386291000060737,0.12735049999901094,None,,,,43,0,42,989.7626165999973,,,,,,,,,,,,,,,,,,,,,,,989.7460495000123,989.7626165999973,990.2483626000176,,,,,,,,,,,,,,,,,,,,,,,990.258745500003,990.2809662000218,990.2809662000218,990.2809662000218,993.2581127000158,shoe,f,2.3386291000060737,0.12735049999901094,993.259618000011,993.2596338000149,None,,,,,,,,,,,00037,001,2026-01-16_22h41.10.264,MST_task,2024.2.0,59.82310308132301,2026-01-16 22h41.24.639802 +0530,
,Objects\034a.jpg,43,0,44,,,,,,,f,1.5299148999911267,0.15178720001131296,None,,,,44,0,43,993.275094200013,,,,,,,,,,,,,,,,,,,,,,,993.2597558000125,993.275094200013,993.7598954999994,,,,,,,,,,,,,,,,,,,,,,,993.7759178999986,993.7932166999963,993.7932166999963,993.7932166999963,996.7704140999995,shoe,f,1.5299148999911267,0.15178720001131296,996.7704803000088,996.7704924000136,None,,,,,,,,,,,00037,001,2026-01-16_22h41.10.264,MST_task,2024.2.0,59.82310308132301,2026-01-16 22h41.24.639802 +0530,
,Objects\188a.jpg,44,0,45,,,,,,,f,1.4095291999983601,0.14396790001774207,None,,,,45,0,44,996.787241300015,,,,,,,,,,,,,,,,,,,,,,,996.7706012999988,996.787241300015,997.2728288000217,,,,,,,,,,,,,,,,,,,,,,,997.2829417000175,997.3055001000175,997.3055001000175,997.3055001000175,1000.2828125000233,shoe,f,1.4095291999983601,0.14396790001774207,1000.2828537000169,1000.2828658000217,None,,,,,,,,,,,00037,001,2026-01-16_22h41.10.264,MST_task,2024.2.0,59.82310308132301,2026-01-16 22h41.24.639802 +0530,
,Objects\176a.jpg,45,0,46,,,,,,,j,1.0418932999891695,0.12894300001789816,None,,,,46,0,45,1000.2994114000176,,,,,,,,,,,,,,,,,,,,,,,1000.282986700011,1000.2994114000176,1000.7846468000207,,,,,,,,,,,,,,,,,,,,,,,1000.7878834000148,1000.8012463000196,1000.8012463000196,1000.8012463000196,1003.7951422000187,shoe,j,1.0418932999891695,0.12894300001789816,1003.7951869000099,1003.7951985000109,None,,,,,,,,,,,00037,001,2026-01-16_22h41.10.264,MST_task,2024.2.0,59.82310308132301,2026-01-16 22h41.24.639802 +0530,
,Objects\338a.jpg,46,0,47,,,,,,,j,1.6488583000027575,0.14409940000041388,None,,,,47,0,46,1003.8123009999981,,,,,,,,,,,,,,,,,,,,,,,1003.7953001999995,1003.8123009999981,1004.2969551999995,,,,,,,,,,,,,,,,,,,,,,,1004.3107178000209,1004.3301223000162,1004.3301223000162,1004.3301223000162,1007.3071325000201,shoe,j,1.6488583000027575,0.14409940000041388,1007.3071766000066,1007.3072134999966,None,,,,,,,,,,,00037,001,2026-01-16_22h41.10.264,MST_task,2024.2.0,59.82310308132301,2026-01-16 22h41.24.639802 +0530,
,Objects\288a.jpg,47,0,48,,,,,,,f,1.6495259999937844,0.13697760002105497,None,,,,48,0,47,1007.3239656000223,,,,,,,,,,,,,,,,,,,,,,,1007.3072940999991,1007.3239656000223,1007.8089674000221,,,,,,,,,,,,,,,,,,,,,,,1007.8164254000003,1007.8252508000005,1007.8252508000005,1007.8252508000005,1010.8194171000214,shoe,f,1.6495259999937844,0.13697760002105497,1010.8194808000117,1010.8194934000203,None,,,,,,,,,,,00037,001,2026-01-16_22h41.10.264,MST_task,2024.2.0,59.82310308132301,2026-01-16 22h41.24.639802 +0530,
,Objects\160a.jpg,48,0,49,,,,,,,f,1.680767600017134,0.13603589998092502,None,,,,49,0,48,1010.8364608999982,,,,,,,,,,,,,,,,,,,,,,,1010.8195640000049,1010.8364608999982,1011.3212582000124,,,,,,,,,,,,,,,,,,,,,,,1011.3300523000071,1011.3547061000136,1011.3547061000136,1011.3547061000136,1014.3318679000076,shoe,f,1.680767600017134,0.13603589998092502,1014.3319109000149,1014.3319227000175,None,,,,,,,,,,,00037,001,2026-01-16_22h41.10.264,MST_task,2024.2.0,59.82310308132301,2026-01-16 22h41.24.639802 +0530,
,Objects\070a.jpg,49,0,50,,,,,,,f,2.088138199993409,0.21658080001361668,None,,,,50,0,49,1014.3486904000165,,,,,,,,,,,,,,,,,,,,,,,1014.331992499996,1014.3486904000165,1014.8336941000016,,,,,,,,,,,,,,,,,,,,,,,1014.844310000015,1014.8671720999992,1014.8671720999992,1014.8671720999992,1017.8441505000228,indoor,f,2.088138199993409,0.21658080001361668,1017.8461098000116,1017.8461271999986,None,,,,,,,,,,,00037,001,2026-01-16_22h41.10.264,MST_task,2024.2.0,59.82310308132301,2026-01-16 22h41.24.639802 +0530,
,Objects\030a.jpg,50,0,51,,,,,,,f,2.1053240000037476,0.12016500000027008,None,,,,51,0,50,1017.8607584999991,,,,,,,,,,,,,,,,,,,,,,,1017.8461953000224,1017.8607584999991,1018.3463591000182,,,,,,,,,,,,,,,,,,,,,,,1018.349263400014,1018.362452500005,1018.362452500005,1018.362452500005,1021.3566056000127,indoor,f,2.1053240000037476,0.12016500000027008,1021.3566502000031,1021.3566630000132,None,1018.362452500005,,,,,,,,,,00037,001,2026-01-16_22h41.10.264,MST_task,2024.2.0,59.82310308132301,2026-01-16 22h41.24.639802 +0530,
,Objects\264a.jpg,51,0,52,,,,,,,j,1.4093857999832835,0.15105559999938123,None,,,,52,0,51,1021.373055300006,,,,,,,,,,,,,,,,,,,,,,,1021.3567351000092,1021.373055300006,1021.8583195999963,,,,,,,,,,,,,,,,,,,,,,,1021.865166100004,1021.8744464000047,1021.8744464000047,1021.8744464000047,1024.868741800019,indoor,j,1.4093857999832835,0.15105559999938123,1024.868810200016,1024.8688224000216,None,,,,,,,,,,,00037,001,2026-01-16_22h41.10.264,MST_task,2024.2.0,59.82310308132301,2026-01-16 22h41.24.639802 +0530,
,Objects\095a.jpg,52,0,53,,,,,,,f,1.7993750000023283,0.1516033000079915,None,,,,53,0,52,1024.8861222999985,,,,,,,,,,,,,,,,,,,,,,,1024.8688933000085,1024.8861222999985,1025.3705493000161,,,,,,,,,,,,,,,,,,,,,,,1025.3793128000107,1025.4039881000062,1025.4039881000062,1025.4039881000062,1028.38096390001,indoor,f,1.7993750000023283,0.1516033000079915,1028.3810126000026,1028.3810499999963,None,,,,,,,,,,,00037,001,2026-01-16_22h41.10.264,MST_task,2024.2.0,59.82310308132301,2026-01-16 22h41.24.639802 +0530,
,Objects\142a.jpg,53,0,54,,,,,,,f,1.7037541999889072,0.15191899999626912,None,,,,54,0,53,1028.397763200017,,,,,,,,,,,,,,,,,,,,,,,1028.3811236000038,1028.397763200017,1028.8829172000114,,,,,,,,,,,,,,,,,,,,,,,1028.8859097000095,1028.8994814000034,1028.8994814000034,1028.8994814000034,1031.8937149000121,indoor,f,1.7037541999889072,0.15191899999626912,1031.8937596000032,1031.8937718000088,None,,,,,,,,,,,00037,001,2026-01-16_22h41.10.264,MST_task,2024.2.0,59.82310308132301,2026-01-16 22h41.24.639802 +0530,
,Objects\262a.jpg,54,0,55,,,,,,,j,2.886841200001072,None,None,,,,55,0,54,1031.9099411000207,,,,,,,,,,,,,,,,,,,,,,,1031.8938408000104,1031.9099411000207,1032.3953218000242,,,,,,,,,,,,,,,,,,,,,,,1032.4028424000135,1032.4285213999974,1032.4285213999974,1032.4285213999974,1035.4055182000156,indoor,j,2.886841200001072,None,1035.4055598000123,1035.4055716000148,None,,,,,,,,,,,00037,001,2026-01-16_22h41.10.264,MST_task,2024.2.0,59.82310308132301,2026-01-16 22h41.24.639802 +0530,
,Objects\057a.jpg,55,0,56,,,,,,,f,1.7191911999834701,0.14399989999947138,None,,,,56,0,55,1035.422413000022,,,,,,,,,,,,,,,,,,,,,,,1035.4056400000118,1035.422413000022,1035.9073283000034,,,,,,,,,,,,,,,,,,,,,,,1035.9243377000093,1035.9407994000067,1035.9407994000067,1035.9407994000067,1038.918313800008,indoor,f,1.7191911999834701,0.14399989999947138,1038.9184093000076,1038.9184669000097,None,,,,,,,,,,,00037,001,2026-01-16_22h41.10.264,MST_task,2024.2.0,59.82310308132301,2026-01-16 22h41.24.639802 +0530,
,Objects\053a.jpg,56,0,57,,,,,,,f,1.4702271000132896,0.13566709999577142,None,,,,57,0,56,1038.9345418000012,,,,,,,,,,,,,,,,,,,,,,,1038.9186307000055,1038.9345418000012,1039.4198854000133,,,,,,,,,,,,,,,,,,,,,,,1039.430748200015,1039.4529739000136,1039.4529739000136,1039.4529739000136,1042.430262400012,shoe,f,1.4702271000132896,0.13566709999577142,1042.4324220000126,1042.4324397000019,None,,,,,,,,,,,00037,001,2026-01-16_22h41.10.264,MST_task,2024.2.0,59.82310308132301,2026-01-16 22h41.24.639802 +0530,
,Objects\242a.jpg,57,0,58,,,,,,,f,2.7179933000006713,0.13629100000252947,None,,,,58,0,57,1042.4469518999977,,,,,,,,,,,,,,,,,,,,,,,1042.4325490000192,1042.4469518999977,1042.9322545000177,,,,,,,,,,,,,,,,,,,,,,,1042.9434961000225,1042.965499700018,1042.965499700018,1042.965499700018,1045.9425874000008,shoe,f,2.7179933000006713,0.13629100000252947,1045.9426311000134,1045.9426442999975,None,1042.965499700018,,,,,,,,,,00037,001,2026-01-16_22h41.10.264,MST_task,2024.2.0,59.82310308132301,2026-01-16 22h41.24.639802 +0530,
,Objects\300a.jpg,58,0,59,,,,,,,f,1.1754200000141282,0.151997000008123,None,,,,59,0,58,1045.9591306000075,,,,,,,,,,,,,,,,,,,,,,,1045.9427196000179,1045.9591306000075,1046.4443519000197,,,,,,,,,,,,,,,,,,,,,,,1046.4516961000045,1046.460917999997,1046.460917999997,1046.460917999997,1049.454767200019,shoe,f,1.1754200000141282,0.151997000008123,1049.4548228000058,1049.4548344000068,None,,,,,,,,,,,00037,001,2026-01-16_22h41.10.264,MST_task,2024.2.0,59.82310308132301,2026-01-16 22h41.24.639802 +0530,
,Objects\276a.jpg,59,0,60,,,,,,,j,2.247249899985036,0.1428213000181131,None,,,,60,0,59,1049.471772799996,,,,,,,,,,,,,,,,,,,,,,,1049.4550502000202,1049.471772799996,1049.9565355000086,,,,,,,,,,,,,,,,,,,,,,,1049.9648953000142,1049.9727400999982,1049.9727400999982,1049.9727400999982,1052.9670189000026,shoe,j,2.247249899985036,0.1428213000181131,1052.967103700008,1052.967118600005,None,,,,,,,,,,,00037,001,2026-01-16_22h41.10.264,MST_task,2024.2.0,59.82310308132301,2026-01-16 22h41.24.639802 +0530,
,Objects\100a.jpg,60,0,61,,,,,,,f,1.6061222999996971,0.14362200000323355,None,,,,61,0,60,1052.9838530000125,,,,,,,,,,,,,,,,,,,,,,,1052.9671903999988,1052.9838530000125,1053.469000400015,,,,,,,,,,,,,,,,,,,,,,,1053.4723281000042,1053.4857512000017,1053.4857512000017,1053.4857512000017,1056.4793821000203,shoe,f,1.6061222999996971,0.14362200000323355,1056.4794412000047,1056.4794569000078,None,,,,,,,,,,,00037,001,2026-01-16_22h41.10.264,MST_task,2024.2.0,59.82310308132301,2026-01-16 22h41.24.639802 +0530,
,Objects\125a.jpg,61,0,62,,,,,,,j,1.3650855000014417,0.1603029000107199,None,,,,62,0,61,1056.4961177000077,,,,,,,,,,,,,,,,,,,,,,,1056.479546800023,1056.4961177000077,1056.9811240000126,,,,,,,,,,,,,,,,,,,,,,,1056.9844715000072,1056.997871200001,1056.997871200001,1056.997871200001,1059.9916289999965,shoe,j,1.3650855000014417,0.1603029000107199,1059.991670700023,1059.9916825999971,None,,,,,,,,,,,00037,001,2026-01-16_22h41.10.264,MST_task,2024.2.0,59.82310308132301,2026-01-16 22h41.24.639802 +0530,
,Objects\368a.jpg,62,0,63,,,,,,,f,1.6220392000104766,0.15874499999335967,None,,,,63,0,62,1060.008461999998,,,,,,,,,,,,,,,,,,,,,,,1059.9918194000202,1060.008461999998,1060.4934013000166,,,,,,,,,,,,,,,,,,,,,,,1060.5003522000043,1060.50998230002,1060.50998230002,1060.50998230002,1063.5039192000113,shoe,f,1.6220392000104766,0.15874499999335967,1063.5039613000117,1063.5039735000173,None,,,,,,,,,,,00037,001,2026-01-16_22h41.10.264,MST_task,2024.2.0,59.82310308132301,2026-01-16 22h41.24.639802 +0530,
,Objects\380a.jpg,63,0,64,,,,,,,j,2.92518459999701,None,None,,,,64,0,63,1063.520757899998,,,,,,,,,,,,,,,,,,,,,,,1063.5040447000065,1063.520757899998,1064.0057345000096,,,,,,,,,,,,,,,,,,,,,,,1064.0132860000012,1064.0220031000208,1064.0220031000208,1064.0220031000208,1067.0163544000243,indoor,j,2.92518459999701,None,1067.0180452000059,1067.0180652000126,None,,,,,,,,,,,00037,001,2026-01-16_22h41.10.264,MST_task,2024.2.0,59.82310308132301,2026-01-16 22h41.24.639802 +0530,
,Objects\324a.jpg,64,0,65,,,,,,,f,1.6688169999979436,0.3445030000002589,None,,,,65,0,64,1067.0329371000116,,,,,,,,,,,,,,,,,,,,,,,1067.0181349000195,1067.0329371000116,1067.5181382000155,,,,,,,,,,,,,,,,,,,,,,,1067.5262202000013,1067.5343111999973,1067.5343111999973,1067.5343111999973,1070.5289137000218,indoor,f,1.6688169999979436,0.3445030000002589,1070.5289582000114,1070.52897080002,None,,,,,,,,,,,00037,001,2026-01-16_22h41.10.264,MST_task,2024.2.0,59.82310308132301,2026-01-16 22h41.24.639802 +0530,
,Objects\219a.jpg,65,0,66,,,,,,,j,2.8611933999927714,0.09498640001402237,None,,,,66,0,65,1070.5452392000007,,,,,,,,,,,,,,,,,,,,,,,1070.5290399000223,1070.5452392000007,1071.0304454000143,,,,,,,,,,,,,,,,,,,,,,,1071.0388927000167,1071.0466217000212,1071.0466217000212,1071.0466217000212,1074.0409671000089,indoor,j,2.8611933999927714,0.09498640001402237,1074.0410152999975,1074.0410272000008,None,,,,,,,,,,,00037,001,2026-01-16_22h41.10.264,MST_task,2024.2.0,59.82310308132301,2026-01-16 22h41.24.639802 +0530,
,Objects\222a.jpg,66,0,67,,,,,,,j,2.6845508000114933,0.11156819999450818,None,,,,67,0,66,1074.057536600012,,,,,,,,,,,,,,,,,,,,,,,1074.0410992999969,1074.057536600012,1074.5428769999999,,,,,,,,,,,,,,,,,,,,,,,1074.5507082999975,1074.5588935000123,1074.5588935000123,1074.5588935000123,1077.5532310999988,indoor,j,2.6845508000114933,0.11156819999450818,1077.5534438000177,1077.553456499998,None,,,,,,,,,,,00037,001,2026-01-16_22h41.10.264,MST_task,2024.2.0,59.82310308132301,2026-01-16 22h41.24.639802 +0530,
,Objects\325a.jpg,67,0,68,,,,,,,f,1.8503603000135627,0.160641399997985,None,,,,68,0,67,1077.5698274000024,,,,,,,,,,,,,,,,,,,,,,,1077.553524900024,1077.5698274000024,1078.0555597000057,,,,,,,,,,,,,,,,,,,,,,,1078.0701945000037,1078.0884532000055,1078.0884532000055,1078.0884532000055,1081.0658165000204,indoor,f,1.8503603000135627,0.160641399997985,1081.0658591999963,1081.0658708999981,None,,,,,,,,,,,00037,001,2026-01-16_22h41.10.264,MST_task,2024.2.0,59.82310308132301,2026-01-16 22h41.24.639802 +0530,
,Objects\050a.jpg,68,0,69,,,,,,,f,2.4822208000114188,0.1514420000021346,None,,,,69,0,68,1081.0822738000134,,,,,,,,,,,,,,,,,,,,,,,1081.0662007000064,1081.0822738000134,1081.5678438000032,,,,,,,,,,,,,,,,,,,,,,,1081.5762363999966,1081.6013027000008,1081.6013027000008,1081.6013027000008,1084.5778344999999,indoor,f,2.4822208000114188,0.1514420000021346,1084.577887100022,1084.5779021000199,None,,,,,,,,,,,00037,001,2026-01-16_22h41.10.264,MST_task,2024.2.0,59.82310308132301,2026-01-16 22h41.24.639802 +0530,
,Objects\236a.jpg,69,0,70,,,,,,,j,2.001777299999958,0.12863510000170209,None,,,,70,0,69,1084.594551600021,,,,,,,,,,,,,,,,,,,,,,,1084.5779735000106,1084.594551600021,1085.0795441000082,,,,,,,,,,,,,,,,,,,,,,,1085.0890122000128,1085.1129811000137,1085.1129811000137,1085.1129811000137,1088.0901352000074,indoor,j,2.001777299999958,0.12863510000170209,1088.0903091000218,1088.0903257000027,None,,,,,,,,,,,00037,001,2026-01-16_22h41.10.264,MST_task,2024.2.0,59.82310308132301,2026-01-16 22h41.24.639802 +0530,
,Objects\021a.jpg,70,0,71,,,,,,,j,2.113797300000442,0.12038060001214035,None,,,,71,0,70,1088.1067378000007,,,,,,,,,,,,,,,,,,,,,,,1088.0904018,1088.1067378000007,1088.5924858000071,,,,,,,,,,,,,,,,,,,,,,,1088.6012143999978,1088.6253443000023,1088.6253443000023,1088.6253443000023,1091.6023211000138,shoe,j,2.113797300000442,0.12038060001214035,1091.6043463000096,1091.6043636999966,None,,,,,,,,,,,00037,001,2026-01-16_22h41.10.264,MST_task,2024.2.0,59.82310308132301,2026-01-16 22h41.24.639802 +0530,
,Objects\216a.jpg,71,0,72,,,,,,,f,1.8740326999977697,0.20046789999469183,None,,,,72,0,71,1091.6191458000103,,,,,,,,,,,,,,,,,,,,,,,1091.6044351000164,1091.6191458000103,1092.104562100023,,,,,,,,,,,,,,,,,,,,,,,1092.1077020000084,1092.1208493000013,1092.1208493000013,1092.1208493000013,1095.1147253000236,shoe,f,1.8740326999977697,0.20046789999469183,1095.1147679999995,1095.1147812000127,None,1092.1208493000013,,,,,,,,,,00037,001,2026-01-16_22h41.10.264,MST_task,2024.2.0,59.82310308132301,2026-01-16 22h41.24.639802 +0530,
,Objects\244a.jpg,72,0,73,,,,,,,f,1.7146783000207506,0.16767319999053143,None,,,,73,0,72,1095.1313277000154,,,,,,,,,,,,,,,,,,,,,,,1095.1148515999957,1095.1313277000154,1095.6165253000217,,,,,,,,,,,,,,,,,,,,,,,1095.6221924000129,1095.6330412000243,1095.6330412000243,1095.6330412000243,1098.6270366000244,shoe,f,1.7146783000207506,0.16767319999053143,1098.6270790999988,1098.627091000002,None,,,,,,,,,,,00037,001,2026-01-16_22h41.10.264,MST_task,2024.2.0,59.82310308132301,2026-01-16 22h41.24.639802 +0530,
,Objects\017a.jpg,73,0,74,,,,,,,f,1.7777539999806322,0.13573820001329295,None,,,,74,0,73,1098.6436329999997,,,,,,,,,,,,,,,,,,,,,,,1098.627161500015,1098.6436329999997,1099.128715400002,,,,,,,,,,,,,,,,,,,,,,,1099.1450095000037,1099.1621855999983,1099.1621855999983,1099.1621855999983,1102.1395330000087,shoe,f,1.7777539999806322,0.13573820001329295,1102.1395788000082,1102.1395918000198,None,,,,,,,,,,,00037,001,2026-01-16_22h41.10.264,MST_task,2024.2.0,59.82310308132301,2026-01-16 22h41.24.639802 +0530,
,Objects\201a.jpg,74,0,75,,,,,,,f,1.3853079000255093,0.1605544999765698,None,,,,75,0,74,1102.1559256000037,,,,,,,,,,,,,,,,,,,,,,,1102.1396652999974,1102.1559256000037,1102.6411106000014,,,,,,,,,,,,,,,,,,,,,,,1102.6497126000177,1102.6743691000156,1102.6743691000156,1102.6743691000156,1105.6515298000013,shoe,f,1.3853079000255093,0.1605544999765698,1105.6515758000023,1105.651588400011,None,,,,,,,,,,,00037,001,2026-01-16_22h41.10.264,MST_task,2024.2.0,59.82310308132301,2026-01-16 22h41.24.639802 +0530,
,Objects\011a.jpg,75,0,76,,,,,,,f,1.5841374000010546,0.13662390000536107,None,,,,76,0,75,1105.6685358000104,,,,,,,,,,,,,,,,,,,,,,,1105.6520412000245,1105.6685358000104,1106.1540552000224,,,,,,,,,,,,,,,,,,,,,,,1106.1619803000067,1106.1868013000058,1106.1868013000058,1106.1868013000058,1109.1645204000233,shoe,f,1.5841374000010546,0.13662390000536107,1109.1645635000023,1109.1645757000078,None,,,,,,,,,,,00037,001,2026-01-16_22h41.10.264,MST_task,2024.2.0,59.82310308132301,2026-01-16 22h41.24.639802 +0530,
,Objects\024a.jpg,76,0,77,,,,,,,f,2.2721156000043266,0.1529498999880161,None,,,,77,0,76,1109.1805203999975,,,,,,,,,,,,,,,,,,,,,,,1109.1646629000024,1109.1805203999975,1109.665909400006,,,,,,,,,,,,,,,,,,,,,,,1109.675705600006,1109.6989677000092,1109.6989677000092,1109.6989677000092,1112.6761144000047,shoe,f,2.2721156000043266,0.1529498999880161,1112.6761590999959,1112.676171500003,None,,,,,,,,,,,00037,001,2026-01-16_22h41.10.264,MST_task,2024.2.0,59.82310308132301,2026-01-16 22h41.24.639802 +0530,
,Objects\321a.jpg,77,0,78,,,,,,,j,2.7913483000011183,None,None,,,,78,0,77,1112.6929517000099,,,,,,,,,,,,,,,,,,,,,,,1112.6763195999956,1112.6929517000099,1113.178111300018,,,,,,,,,,,,,,,,,,,,,,,1113.1949030999967,1113.2113836000208,1113.2113836000208,1113.2113836000208,1116.1885840000177,indoor,j,2.7913483000011183,None,1116.1901429000136,1116.1901616000105,None,,,,,,,,,,,00037,001,2026-01-16_22h41.10.264,MST_task,2024.2.0,59.82310308132301,2026-01-16 22h41.24.639802 +0530,
,Objects\258a.jpg,78,0,79,,,,,,,f,2.7127189000020735,0.15265269999508746,None,,,,79,0,78,1116.205236800015,,,,,,,,,,,,,,,,,,,,,,,1116.1902317000204,1116.205236800015,1116.6902552999964,,,,,,,,,,,,,,,,,,,,,,,1116.6979126000078,1116.7063424000225,1116.7063424000225,1116.7063424000225,1119.700964800024,indoor,f,2.7127189000020735,0.15265269999508746,1119.7010330000194,1119.701055500016,None,,,,,,,,,,,00037,001,2026-01-16_22h41.10.264,MST_task,2024.2.0,59.82310308132301,2026-01-16 22h41.24.639802 +0530,
,Objects\192a.jpg,79,0,80,,,,,,,j,1.2710764999792445,0.14362919999985024,None,,,,80,0,79,1119.717545100022,,,,,,,,,,,,,,,,,,,,,,,1119.7011713999964,1119.717545100022,1120.2025366000016,,,,,,,,,,,,,,,,,,,,,,,1120.2116464000137,1120.235982400016,1120.235982400016,1120.235982400016,1123.2131327000097,indoor,j,1.2710764999792445,0.14362919999985024,1123.213174900011,1123.2131867000135,None,,,,,,,,,,,00037,001,2026-01-16_22h41.10.264,MST_task,2024.2.0,59.82310308132301,2026-01-16 22h41.24.639802 +0530,
,Objects\083a.jpg,80,0,81,,,,,,,f,2.776456599996891,0.13500870001735166,None,,,,81,0,80,1123.2297245000082,,,,,,,,,,,,,,,,,,,,,,,1123.213258600008,1123.2297245000082,1123.7149263000174,,,,,,,,,,,,,,,,,,,,,,,1123.7180929000024,1123.7314375000133,1123.7314375000133,1123.7314375000133,1126.725600100006,indoor,f,2.776456599996891,0.13500870001735166,1126.7256425000087,1126.725654400012,None,,,,,,,,,,,00037,001,2026-01-16_22h41.10.264,MST_task,2024.2.0,59.82310308132301,2026-01-16 22h41.24.639802 +0530,
,Objects\309a.jpg,81,0,82,,,,,,,j,2.8797207000025082,None,None,,,,82,0,81,1126.7420141000184,,,,,,,,,,,,,,,,,,,,,,,1126.7257238000166,1126.7420141000184,1127.2272276000003,,,,,,,,,,,,,,,,,,,,,,,1127.2339687000203,1127.2435363999975,1127.2435363999975,1127.2435363999975,1130.2377304999973,indoor,j,2.8797207000025082,None,1130.2377735000046,1130.2377856000094,None,,,,,,,,,,,00037,001,2026-01-16_22h41.10.264,MST_task,2024.2.0,59.82310308132301,2026-01-16 22h41.24.639802 +0530,
,Objects\221a.jpg,82,0,83,,,,,,,j,2.2227684000099543,0.13639209998655133,None,,,,83,0,82,1130.2543133000145,,,,,,,,,,,,,,,,,,,,,,,1130.2378576000046,1130.2543133000145,1130.739524100005,,,,,,,,,,,,,,,,,,,,,,,1130.7478238000185,1130.7727552000142,1130.7727552000142,1130.7727552000142,1133.7499080999987,indoor,j,2.2227684000099543,0.13639209998655133,1133.749992500001,1133.7500071999966,None,,,,,,,,,,,00037,001,2026-01-16_22h41.10.264,MST_task,2024.2.0,59.82310308132301,2026-01-16 22h41.24.639802 +0530,
,Objects\202a.jpg,83,0,84,,,,,,,j,1.4786118999763858,0.15266220000921749,None,,,,84,0,83,1133.7668648000108,,,,,,,,,,,,,,,,,,,,,,,1133.7500831000216,1133.7668648000108,1134.251812100003,,,,,,,,,,,,,,,,,,,,,,,1134.2580625000119,1134.2683244000073,1134.2683244000073,1134.2683244000073,1137.2624904999975,indoor,j,1.4786118999763858,0.15266220000921749,1137.262533000001,1137.2625447000028,None,,,,,,,,,,,00037,001,2026-01-16_22h41.10.264,MST_task,2024.2.0,59.82310308132301,2026-01-16 22h41.24.639802 +0530,
,Objects\042a.jpg,84,0,85,,,,,,,j,2.8462948000233155,0.07943719998002052,None,,,,85,0,84,1137.2790481999982,,,,,,,,,,,,,,,,,,,,,,,1137.262615100015,1137.2790481999982,1137.764241099998,,,,,,,,,,,,,,,,,,,,,,,1137.7742232000164,1137.7973692000087,1137.7973692000087,1137.7973692000087,1140.774499000021,shoe,j,2.8462948000233155,0.07943719998002052,1140.777223800018,1140.7772438999964,None,,,,,,,,,,,00037,001,2026-01-16_22h41.10.264,MST_task,2024.2.0,59.82310308132301,2026-01-16 22h41.24.639802 +0530,
,Objects\072a.jpg,85,0,86,,,,,,,f,1.8057689999986906,0.13718789999256842,None,,,,86,0,85,1140.791328100022,,,,,,,,,,,,,,,,,,,,,,,1140.7773114000156,1140.791328100022,1141.2768169000046,,,,,,,,,,,,,,,,,,,,,,,1141.2799116999959,1141.293056800001,1141.293056800001,1141.293056800001,1144.2868581000075,shoe,f,1.8057689999986906,0.13718789999256842,1144.2869107000006,1144.2869245000184,None,1141.293056800001,,,,,,,,,,00037,001,2026-01-16_22h41.10.264,MST_task,2024.2.0,59.82310308132301,2026-01-16 22h41.24.639802 +0530,
,Objects\185a.jpg,86,0,87,,,,,,,f,1.9909740000148304,0.24706549997790717,None,,,,87,0,86,1144.3036261000088,,,,,,,,,,,,,,,,,,,,,,,1144.286995900009,1144.3036261000088,1144.7888841000095,,,,,,,,,,,,,,,,,,,,,,,1144.7923074999999,1144.8054174999997,1144.8054174999997,1144.8054174999997,1147.799106999999,shoe,f,1.9909740000148304,0.24706549997790717,1147.799162500014,1147.7991744000174,None,,,,,,,,,,,00037,001,2026-01-16_22h41.10.264,MST_task,2024.2.0,59.82310308132301,2026-01-16 22h41.24.639802 +0530,
,Objects\196a.jpg,87,0,88,,,,,,,f,1.317939500004286,0.12794790000771172,None,,,,88,0,87,1147.8159258000087,,,,,,,,,,,,,,,,,,,,,,,1147.7994312000228,1147.8159258000087,1148.3009415999986,,,,,,,,,,,,,,,,,,,,,,,1148.305347000016,1148.3176424000121,1148.3176424000121,1148.3176424000121,1151.3123357000004,shoe,f,1.317939500004286,0.12794790000771172,1151.312376900023,1151.3123886999965,None,,,,,,,,,,,00037,001,2026-01-16_22h41.10.264,MST_task,2024.2.0,59.82310308132301,2026-01-16 22h41.24.639802 +0530,
,Objects\016a.jpg,88,0,89,,,,,,,f,1.1258590000215918,0.14266509999288246,None,,,,89,0,88,1151.3283193000243,,,,,,,,,,,,,,,,,,,,,,,1151.3124574999965,1151.3283193000243,1151.8135008999961,,,,,,,,,,,,,,,,,,,,,,,1151.8162566999963,1151.8303460000025,1151.8303460000025,1151.8303460000025,1154.823996400024,shoe,f,1.1258590000215918,0.14266509999288246,1154.8240385000245,1154.8240504999994,None,,,,,,,,,,,00037,001,2026-01-16_22h41.10.264,MST_task,2024.2.0,59.82310308132301,2026-01-16 22h41.24.639802 +0530,
,Objects\088a.jpg,89,0,90,,,,,,,j,1.325306399987312,0.13551779999397695,None,,,,90,0,89,1154.8405850999989,,,,,,,,,,,,,,,,,,,,,,,1154.8241587000084,1154.8405850999989,1155.325801400002,,,,,,,,,,,,,,,,,,,,,,,1155.3287970000238,1155.342295600014,1155.342295600014,1155.342295600014,1158.336310600018,shoe,j,1.325306399987312,0.13551779999397695,1158.3363535000244,1158.336365700001,None,,,,,,,,,,,00037,001,2026-01-16_22h41.10.264,MST_task,2024.2.0,59.82310308132301,2026-01-16 22h41.24.639802 +0530,
,Objects\094a.jpg,90,0,91,,,,,,,f,1.9973202999972273,0.1356730000115931,None,,,,91,0,90,1158.3527147000132,,,,,,,,,,,,,,,,,,,,,,,1158.3364906000206,1158.3527147000132,1158.8379329000018,,,,,,,,,,,,,,,,,,,,,,,1158.841513499996,1158.8544137999997,1158.8544137999997,1158.8544137999997,1161.8484173000033,shoe,f,1.9973202999972273,0.1356730000115931,1161.8486199000035,1161.8486325000122,None,,,,,,,,,,,00037,001,2026-01-16_22h41.10.264,MST_task,2024.2.0,59.82310308132301,2026-01-16 22h41.24.639802 +0530,
,Objects\295a.jpg,91,0,92,,,,,,,j,2.4119727999786846,0.10403070002212189,None,,,,92,0,91,1161.8650100000086,,,,,,,,,,,,,,,,,,,,,,,1161.848754000006,1161.8650100000086,1162.3502055999998,,,,,,,,,,,,,,,,,,,,,,,1162.3594999000197,1162.3833481000038,1162.3833481000038,1162.3833481000038,1165.3610419000033,indoor,j,2.4119727999786846,0.10403070002212189,1165.362884800008,1165.3629071000032,None,,,,,,,,,,,00037,001,2026-01-16_22h41.10.264,MST_task,2024.2.0,59.82310308132301,2026-01-16 22h41.24.639802 +0530,
,Objects\343a.jpg,92,0,93,,,,,,,j,1.9948879999865312,0.11265009999624453,None,,,,93,0,92,1165.377459100011,,,,,,,,,,,,,,,,,,,,,,,1165.3629875000042,1165.377459100011,1165.862973500014,,,,,,,,,,,,,,,,,,,,,,,1165.8741983000073,1165.8960740000184,1165.8960740000184,1165.8960740000184,1168.8728910000063,indoor,j,1.9948879999865312,0.11265009999624453,1168.8729329000053,1168.8729458000162,None,1165.8960740000184,,,,,,,,,,00037,001,2026-01-16_22h41.10.264,MST_task,2024.2.0,59.82310308132301,2026-01-16 22h41.24.639802 +0530,
,Objects\063a.jpg,93,0,94,,,,,,,j,2.922812000004342,None,None,,,,94,0,93,1168.8898402000195,,,,,,,,,,,,,,,,,,,,,,,1168.8730141000124,1168.8898402000195,1169.3748441000062,,,,,,,,,,,,,,,,,,,,,,,1169.3893480999977,1169.4081683999975,1169.4081683999975,1169.4081683999975,1172.3853122,indoor,j,2.922812000004342,None,1172.3855230000045,1172.3855357000139,None,,,,,,,,,,,00037,001,2026-01-16_22h41.10.264,MST_task,2024.2.0,59.82310308132301,2026-01-16 22h41.24.639802 +0530,
,Objects\310a.jpg,94,0,95,,,,,,,j,1.4932698000047822,0.0796486999897752,None,,,,95,0,94,1172.4019044000015,,,,,,,,,,,,,,,,,,,,,,,1172.3856048000162,1172.4019044000015,1172.887096999999,,,,,,,,,,,,,,,,,,,,,,,1172.8945805999974,1172.9031317000045,1172.9031317000045,1172.9031317000045,1175.897770600015,indoor,j,1.4932698000047822,0.0796486999897752,1175.8978248000203,1175.897836899996,None,,,,,,,,,,,00037,001,2026-01-16_22h41.10.264,MST_task,2024.2.0,59.82310308132301,2026-01-16 22h41.24.639802 +0530,
,Objects\235a.jpg,95,0,96,,,,,,,f,2.139836499991361,0.16724959999555722,None,,,,96,0,95,1175.9143843000056,,,,,,,,,,,,,,,,,,,,,,,1175.8979086000181,1175.9143843000056,1176.3995785000152,,,,,,,,,,,,,,,,,,,,,,,1176.4071298000054,1176.432816400018,1176.432816400018,1176.432816400018,1179.4100290000206,indoor,f,2.139836499991361,0.16724959999555722,1179.4100739000132,1179.410086400021,None,,,,,,,,,,,00037,001,2026-01-16_22h41.10.264,MST_task,2024.2.0,59.82310308132301,2026-01-16 22h41.24.639802 +0530,
,Objects\150a.jpg,96,0,97,,,,,,,f,2.258630500000436,0.14312779999454506,None,,,,97,0,96,1179.4266540000099,,,,,,,,,,,,,,,,,,,,,,,1179.410170600022,1179.4266540000099,1179.911656500015,,,,,,,,,,,,,,,,,,,,,,,1179.9202156999963,1179.9450627000188,1179.9450627000188,1179.9450627000188,1182.9223175000225,indoor,f,2.258630500000436,0.14312779999454506,1182.9223606000014,1182.9223727000062,None,,,,,,,,,,,00037,001,2026-01-16_22h41.10.264,MST_task,2024.2.0,59.82310308132301,2026-01-16 22h41.24.639802 +0530,
,Objects\383a.jpg,97,0,98,,,,,,,j,2.5385501999990083,0.1351927999930922,None,,,,98,0,97,1182.9388090000139,,,,,,,,,,,,,,,,,,,,,,,1182.9224441999977,1182.9388090000139,1183.4240003000014,,,,,,,,,,,,,,,,,,,,,,,1183.4380634000117,1183.457262800017,1183.457262800017,1183.457262800017,1186.4345206000144,indoor,j,2.5385501999990083,0.1351927999930922,1186.4347083000175,1186.4347211999993,None,,,,,,,,,,,00037,001,2026-01-16_22h41.10.264,MST_task,2024.2.0,59.82310308132301,2026-01-16 22h41.24.639802 +0530,
,Objects\049a.jpg,98,0,99,,,,,,,j,2.5134317000047304,0.1046024999814108,None,,,,99,0,98,1186.451107300003,,,,,,,,,,,,,,,,,,,,,,,1186.4347942000022,1186.451107300003,1186.9363178000203,,,,,,,,,,,,,,,,,,,,,,,1186.9532018000027,1186.969554900017,1186.969554900017,1186.969554900017,1189.9468464000092,shoe,j,2.5134317000047304,0.1046024999814108,1189.9490385999961,1189.9490585000021,None,,,,,,,,,,,00037,001,2026-01-16_22h41.10.264,MST_task,2024.2.0,59.82310308132301,2026-01-16 22h41.24.639802 +0530,
,Objects\138a.jpg,99,0,100,,,,,,,j,1.5452587999752723,0.12002590001793578,None,,,,100,0,99,1189.9637309999962,,,,,,,,,,,,,,,,,,,,,,,1189.9491287000128,1189.9637309999962,1190.4486670000188,,,,,,,,,,,,,,,,,,,,,,,1190.458531500015,1190.4819596000016,1190.4819596000016,1190.4819596000016,1193.4592896999966,shoe,j,1.5452587999752723,0.12002590001793578,1193.459338900022,1193.459352100006,None,1190.4819596000016,,,,,,,,,,00037,001,2026-01-16_22h41.10.264,MST_task,2024.2.0,59.82310308132301,2026-01-16 22h41.24.639802 +0530,
,Objects\327a.jpg,100,0,101,,,,,,,j,2.049172900005942,0.11224909999873489,None,,,,101,0,100,1193.4756956000056,,,,,,,,,,,,,,,,,,,,,,,1193.459458199999,1193.4756956000056,1193.9608938000165,,,,,,,,,,,,,,,,,,,,,,,1193.9697438000003,1193.9942791000067,1193.9942791000067,1193.9942791000067,1196.971457000007,shoe,j,2.049172900005942,0.11224909999873489,1196.9714977999975,1196.9715090000245,None,,,,,,,,,,,00037,001,2026-01-16_22h41.10.264,MST_task,2024.2.0,59.82310308132301,2026-01-16 22h41.24.639802 +0530,
,Objects\146a.jpg,101,0,102,,,,,,,j,1.9138259000028484,0.16786529999808408,None,,,,102,0,101,1196.9882924999984,,,,,,,,,,,,,,,,,,,,,,,1196.9715766000154,1196.9882924999984,1197.4732479000231,,,,,,,,,,,,,,,,,,,,,,,1197.4807045000198,1197.4894861000066,1197.4894861000066,1197.4894861000066,1200.4839690000226,shoe,j,1.9138259000028484,0.16786529999808408,1200.4840236000018,1200.4840352000028,None,,,,,,,,,,,00037,001,2026-01-16_22h41.10.264,MST_task,2024.2.0,59.82310308132301,2026-01-16 22h41.24.639802 +0530,
,Objects\356a.jpg,102,0,103,,,,,,,f,1.7451163999794517,0.14287490001879632,None,,,,103,0,102,1200.500588099996,,,,,,,,,,,,,,,,,,,,,,,1200.4841049000097,1200.500588099996,1200.9856400999997,,,,,,,,,,,,,,,,,,,,,,,1201.0002422000107,1201.0188685000176,1201.0188685000176,1201.0188685000176,1203.995872200001,shoe,f,1.7451163999794517,0.14287490001879632,1203.9959147000045,1203.99592690001,None,,,,,,,,,,,00037,001,2026-01-16_22h41.10.264,MST_task,2024.2.0,59.82310308132301,2026-01-16 22h41.24.639802 +0530,
,Objects\129a.jpg,103,0,104,,,,,,,f,2.9453066999849398,None,None,,,,104,0,103,1204.0128839999961,,,,,,,,,,,,,,,,,,,,,,,1203.9959985000023,1204.0128839999961,1204.4977156000095,,,,,,,,,,,,,,,,,,,,,,,1204.5149032000045,1204.5312926000042,1204.5312926000042,1204.5312926000042,1207.5083101000055,shoe,f,2.9453066999849398,None,1207.5085009000031,1207.5085137000133,None,,,,,,,,,,,00037,001,2026-01-16_22h41.10.264,MST_task,2024.2.0,59.82310308132301,2026-01-16 22h41.24.639802 +0530,
,Objects\226a.jpg,104,0,105,,,,,,,j,1.353089500014903,0.13626440000371076,None,,,,105,0,104,1207.5249498000194,,,,,,,,,,,,,,,,,,,,,,,1207.5086298999959,1207.5249498000194,1208.0102274000237,,,,,,,,,,,,,,,,,,,,,,,1208.0169394999975,1208.02652460002,1208.02652460002,1208.02652460002,1211.020607500017,shoe,j,1.353089500014903,0.13626440000371076,1211.0206488000113,1211.020660900016,None,,,,,,,,,,,00037,001,2026-01-16_22h41.10.264,MST_task,2024.2.0,59.82310308132301,2026-01-16 22h41.24.639802 +0530,
,Objects\008a.jpg,105,0,106,,,,,,,f,2.0806320999981835,0.17563059998792596,None,,,,106,0,105,1211.0375767000078,,,,,,,,,,,,,,,,,,,,,,,1211.0208476000116,1211.0375767000078,1211.5223938999989,,,,,,,,,,,,,,,,,,,,,,,1211.5302964000148,1211.5556416000181,1211.5556416000181,1211.5556416000181,1214.5327825999993,indoor,f,2.0806320999981835,0.17563059998792596,1214.5343175000162,1214.5343345,None,,,,,,,,,,,00037,001,2026-01-16_22h41.10.264,MST_task,2024.2.0,59.82310308132301,2026-01-16 22h41.24.639802 +0530,
,Objects\234a.jpg,106,0,107,,,,,,,j,1.4400953000003938,0.1523021000029985,None,,,,107,0,106,1214.5496068000211,,,,,,,,,,,,,,,,,,,,,,,1214.5347005000222,1214.5496068000211,1215.0353302000149,,,,,,,,,,,,,,,,,,,,,,,1215.0382552000228,1215.0513225000177,1215.0513225000177,1215.0513225000177,1218.0450872000074,indoor,j,1.4400953000003938,0.1523021000029985,1218.0451286000025,1218.045140800008,None,,,,,,,,,,,00037,001,2026-01-16_22h41.10.264,MST_task,2024.2.0,59.82310308132301,2026-01-16 22h41.24.639802 +0530,
,Objects\110a.jpg,107,0,108,,,,,,,f,2.9444651000085287,None,None,,,,108,0,107,1218.0619185999967,,,,,,,,,,,,,,,,,,,,,,,1218.045210900018,1218.0619185999967,1218.5470198999974,,,,,,,,,,,,,,,,,,,,,,,1218.5502146000217,1218.5637506000057,1218.5637506000057,1218.5637506000057,1221.5575327000115,indoor,f,2.9444651000085287,None,1221.5575747000112,1221.5575866000145,None,,,,,,,,,,,00037,001,2026-01-16_22h41.10.264,MST_task,2024.2.0,59.82310308132301,2026-01-16 22h41.24.639802 +0530,
,Objects\381a.jpg,108,0,109,,,,,,,f,1.8317358999920543,0.12802070000907406,None,,,,109,0,108,1221.574084699998,,,,,,,,,,,,,,,,,,,,,,,1221.5576563000213,1221.574084699998,1222.0592977000051,,,,,,,,,,,,,,,,,,,,,,,1222.0662876999995,1222.075319800002,1222.075319800002,1222.075319800002,1225.069911700004,indoor,f,1.8317358999920543,0.12802070000907406,1225.0699527999968,1225.0699641999963,None,,,,,,,,,,,00037,001,2026-01-16_22h41.10.264,MST_task,2024.2.0,59.82310308132301,2026-01-16 22h41.24.639802 +0530,
,Objects\296a.jpg,109,0,110,,,,,,,j,1.5098390000057407,0.15220430001500063,None,,,,110,0,109,1225.0863968000049,,,,,,,,,,,,,,,,,,,,,,,1225.0700351000123,1225.0863968000049,1225.5714945000072,,,,,,,,,,,,,,,,,,,,,,,1225.5850645000173,1225.6051197000197,1225.6051197000197,1225.6051197000197,1228.5821033999964,indoor,j,1.5098390000057407,0.15220430001500063,1228.5823072000057,1228.5823203000182,None,,,,,,,,,,,00037,001,2026-01-16_22h41.10.264,MST_task,2024.2.0,59.82310308132301,2026-01-16 22h41.24.639802 +0530,
,Objects\023a.jpg,110,0,111,,,,,,,f,1.886563500011107,0.15227319998666644,None,,,,111,0,110,1228.5987094000157,,,,,,,,,,,,,,,,,,,,,,,1228.5823922000127,1228.5987094000157,1229.0838922999974,,,,,,,,,,,,,,,,,,,,,,,1229.0986256000178,1229.117141900002,1229.117141900002,1229.117141900002,1232.0942896000051,indoor,f,1.886563500011107,0.15227319998666644,1232.0943313000025,1232.0943429000035,None,,,,,,,,,,,00037,001,2026-01-16_22h41.10.264,MST_task,2024.2.0,59.82310308132301,2026-01-16 22h41.24.639802 +0530,
,Objects\038a.jpg,111,0,112,,,,,,,f,1.9032939999888185,0.19147580000571907,None,,,,112,0,111,1232.1111883000121,,,,,,,,,,,,,,,,,,,,,,,1232.0944177000201,1232.1111883000121,1232.5960870000126,,,,,,,,,,,,,,,,,,,,,,,1232.5987165000115,1232.6128283000144,1232.6128283000144,1232.6128283000144,1235.6066545000067,indoor,f,1.9032939999888185,0.19147580000571907,1235.6067027000245,1235.606715700007,None,,,,,,,,,,,00037,001,2026-01-16_22h41.10.264,MST_task,2024.2.0,59.82310308132301,2026-01-16 22h41.24.639802 +0530,
,Objects\313a.jpg,112,0,113,,,,,,,j,2.4856629999994766,0.14432369999121875,None,,,,113,0,112,1235.6237020000117,,,,,,,,,,,,,,,,,,,,,,,1235.606791099999,1235.6237020000117,1236.108376100019,,,,,,,,,,,,,,,,,,,,,,,1236.112985500018,1236.125281900022,1236.125281900022,1236.125281900022,1239.118997100013,shoe,j,2.4856629999994766,0.14432369999121875,1239.1210900000005,1239.121109700005,None,,,,,,,,,,,00037,001,2026-01-16_22h41.10.264,MST_task,2024.2.0,59.82310308132301,2026-01-16 22h41.24.639802 +0530,
,Objects\243a.jpg,113,0,114,,,,,,,f,1.854646199994022,0.17634919998818077,None,,,,114,0,113,1239.1355936000182,,,,,,,,,,,,,,,,,,,,,,,1239.1211810999957,1239.1355936000182,1239.6213384000002,,,,,,,,,,,,,,,,,,,,,,,1239.6288954000047,1239.6369235000166,1239.6369235000166,1239.6369235000166,1242.6312952000007,shoe,f,1.854646199994022,0.17634919998818077,1242.6313517000235,1242.631377600017,None,1239.6369235000166,,,,,,,,,,00037,001,2026-01-16_22h41.10.264,MST_task,2024.2.0,59.82310308132301,2026-01-16 22h41.24.639802 +0530,
,Objects\108a.jpg,114,0,115,,,,,,,j,1.3164127000200097,0.128892899985658,None,,,,115,0,114,1242.6478998000093,,,,,,,,,,,,,,,,,,,,,,,1242.6315520000062,1242.6478998000093,1243.1331193000078,,,,,,,,,,,,,,,,,,,,,,,1243.1423022000236,1243.1663456000097,1243.1663456000097,1243.1663456000097,1246.1435456000036,shoe,j,1.3164127000200097,0.128892899985658,1246.1435888000124,1246.143601000018,None,,,,,,,,,,,00037,001,2026-01-16_22h41.10.264,MST_task,2024.2.0,59.82310308132301,2026-01-16 22h41.24.639802 +0530,
,Objects\229a.jpg,115,0,116,,,,,,,f,1.8290828999888618,0.17532070001470856,None,,,,116,0,115,1246.160818400007,,,,,,,,,,,,,,,,,,,,,,,1246.143713700003,1246.160818400007,1246.6454248000227,,,,,,,,,,,,,,,,,,,,,,,1246.6543979000126,1246.6787530000147,1246.6787530000147,1246.6787530000147,1249.6559005000163,shoe,f,1.8290828999888618,0.17532070001470856,1249.6559420000121,1249.6559542000177,None,,,,,,,,,,,00037,001,2026-01-16_22h41.10.264,MST_task,2024.2.0,59.82310308132301,2026-01-16 22h41.24.639802 +0530,
,Objects\187a.jpg,116,0,117,,,,,,,f,1.3094006000028457,0.15918109999620356,None,,,,117,0,116,1249.672498,,,,,,,,,,,,,,,,,,,,,,,1249.6560309000197,1249.672498,1250.157702299999,,,,,,,,,,,,,,,,,,,,,,,1250.1659788000106,1250.1909762000141,1250.1909762000141,1250.1909762000141,1253.168072600005,shoe,f,1.3094006000028457,0.15918109999620356,1253.1681148000062,1253.1681549000205,None,,,,,,,,,,,00037,001,2026-01-16_22h41.10.264,MST_task,2024.2.0,59.82310308132301,2026-01-16 22h41.24.639802 +0530,
,Objects\089a.jpg,117,0,118,,,,,,,j,1.3488684999756515,0.16823500001919456,None,,,,118,0,117,1253.184899600019,,,,,,,,,,,,,,,,,,,,,,,1253.168745300005,1253.184899600019,1253.6698783000174,,,,,,,,,,,,,,,,,,,,,,,1253.6730677000014,1253.6866229000152,1253.6866229000152,1253.6866229000152,1256.6805047000234,shoe,j,1.3488684999756515,0.16823500001919456,1256.6805477000016,1256.6805598000064,None,,,,,,,,,,,00037,001,2026-01-16_22h41.10.264,MST_task,2024.2.0,59.82310308132301,2026-01-16 22h41.24.639802 +0530,
,Objects\087a.jpg,118,0,119,,,,,,,j,1.300260599993635,0.14430529999663122,None,,,,119,0,118,1256.6976927000214,,,,,,,,,,,,,,,,,,,,,,,1256.6806681000162,1256.6976927000214,1257.1825811000017,,,,,,,,,,,,,,,,,,,,,,,1257.1854429000232,1257.1988180000044,1257.1988180000044,1257.1988180000044,1260.1929875000205,shoe,j,1.300260599993635,0.14430529999663122,1260.1930550000106,1260.1930671000155,None,,,,,,,,,,,00037,001,2026-01-16_22h41.10.264,MST_task,2024.2.0,59.82310308132301,2026-01-16 22h41.24.639802 +0530,
,Objects\303a.jpg,119,0,120,,,,,,,j,1.7313717999786604,0.15935800000443123,None,,,,120,0,119,1260.2093873000122,,,,,,,,,,,,,,,,,,,,,,,1260.193175399996,1260.2093873000122,1260.6945730000152,,,,,,,,,,,,,,,,,,,,,,,1260.7145964000083,1260.7283868000086,1260.7283868000086,1260.7283868000086,1263.7049617000157,indoor,j,1.7313717999786604,0.15935800000443123,1263.706220699998,1263.706239400024,None,,,,,,,,,,,00037,001,2026-01-16_22h41.10.264,MST_task,2024.2.0,59.82310308132301,2026-01-16 22h41.24.639802 +0530,
,Objects\076a.jpg,120,0,121,,,,,,,j,1.8771409000037238,0.1430705999955535,None,,,,121,0,120,1263.721843300009,,,,,,,,,,,,,,,,,,,,,,,1263.7063100000087,1263.721843300009,1264.2067681000044,,,,,,,,,,,,,,,,,,,,,,,1264.214954199997,1264.2228736999969,1264.2228736999969,1264.2228736999969,1267.2174541999993,indoor,j,1.8771409000037238,0.1430705999955535,1267.2175193000003,1267.2175368000171,None,,,,,,,,,,,00037,001,2026-01-16_22h41.10.264,MST_task,2024.2.0,59.82310308132301,2026-01-16 22h41.24.639802 +0530,
,Objects\292a.jpg,121,0,122,,,,,,,j,2.307711699977517,0.12676210000063293,None,,,,122,0,121,1267.2342680000002,,,,,,,,,,,,,,,,,,,,,,,1267.2176271000062,1267.2342680000002,1267.7192266000202,,,,,,,,,,,,,,,,,,,,,,,1267.7253938000067,1267.7364000000234,1267.7364000000234,1267.7364000000234,1270.7297360000084,indoor,j,2.307711699977517,0.12676210000063293,1270.7297778000066,1270.7297894000076,None,,,,,,,,,,,00037,001,2026-01-16_22h41.10.264,MST_task,2024.2.0,59.82310308132301,2026-01-16 22h41.24.639802 +0530,
,Objects\162a.jpg,122,0,123,,,,,,,f,2.5221027999941725,0.15283730000373907,None,,,,123,0,122,1270.7465598999988,,,,,,,,,,,,,,,,,,,,,,,1270.7298761999991,1270.7465598999988,1271.2315488000168,,,,,,,,,,,,,,,,,,,,,,,1271.246360899997,1271.2650190000131,1271.2650190000131,1271.2650190000131,1274.2418926999962,indoor,f,2.5221027999941725,0.15283730000373907,1274.2419342000212,1274.2419463999977,None,,,,,,,,,,,00037,001,2026-01-16_22h41.10.264,MST_task,2024.2.0,59.82310308132301,2026-01-16 22h41.24.639802 +0530,
,Objects\099a.jpg,123,0,124,,,,,,,f,2.138860899984138,0.15214650001144037,None,,,,124,0,123,1274.2587163000135,,,,,,,,,,,,,,,,,,,,,,,1274.2420197000029,1274.2587163000135,1274.743703300017,,,,,,,,,,,,,,,,,,,,,,,1274.7472144000058,1274.760877599998,1274.760877599998,1274.760877599998,1277.7542933000077,indoor,f,2.138860899984138,0.15214650001144037,1277.7543817000114,1277.7543969000108,None,,,,,,,,,,,00037,001,2026-01-16_22h41.10.264,MST_task,2024.2.0,59.82310308132301,2026-01-16 22h41.24.639802 +0530,
,Objects\105a.jpg,124,0,125,,,,,,,f,1.8181399999884889,0.112204400007613,None,,,,125,0,124,1277.771000000008,,,,,,,,,,,,,,,,,,,,,,,1277.7547283000022,1277.771000000008,1278.2565980000072,,,,,,,,,,,,,,,,,,,,,,,1278.259489899996,1278.2727309000038,1278.2727309000038,1278.2727309000038,1281.2664759000181,indoor,f,1.8181399999884889,0.112204400007613,1281.2665366000147,1281.2665517000132,None,,,,,,,,,,,00037,001,2026-01-16_22h41.10.264,MST_task,2024.2.0,59.82310308132301,2026-01-16 22h41.24.639802 +0530,
,Objects\256a.jpg,125,0,126,,,,,,,f,1.833838000020478,0.1434337999962736,None,,,,126,0,125,1281.2833005000139,,,,,,,,,,,,,,,,,,,,,,,1281.2666240000108,1281.2833005000139,1281.7683999,,,,,,,,,,,,,,,,,,,,,,,1281.7837910000235,1281.801733900007,1281.801733900007,1281.801733900007,1284.7791812000214,indoor,f,1.833838000020478,0.1434337999962736,1284.7792254000087,1284.779237700015,None,,,,,,,,,,,00037,001,2026-01-16_22h41.10.264,MST_task,2024.2.0,59.82310308132301,2026-01-16 22h41.24.639802 +0530,
,Objects\308a.jpg,126,0,127,,,,,,,f,1.8968606000125874,0.13596630000392906,None,,,,127,0,126,1284.7971398000082,,,,,,,,,,,,,,,,,,,,,,,1284.7793109000195,1284.7971398000082,1285.2818296000187,,,,,,,,,,,,,,,,,,,,,,,1285.2931620000163,1285.314523900015,1285.314523900015,1285.314523900015,1288.2911350000068,shoe,f,1.8968606000125874,0.13596630000392906,1288.2929377999972,1288.2929657000059,None,,,,,,,,,,,00037,001,2026-01-16_22h41.10.264,MST_task,2024.2.0,59.82310308132301,2026-01-16 22h41.24.639802 +0530,
,Objects\152a.jpg,127,0,128,,,,,,,f,1.5769487000070512,0.1437965999939479,None,,,,128,0,127,1288.307902600005,,,,,,,,,,,,,,,,,,,,,,,1288.2930384000065,1288.307902600005,1288.7932221000083,,,,,,,,,,,,,,,,,,,,,,,1288.8029988000053,1288.8263447000063,1288.8263447000063,1288.8263447000063,1291.8033995000005,shoe,f,1.5769487000070512,0.1437965999939479,1291.8034548000142,1291.8034679999982,None,1288.8263447000063,,,,,,,,,,00037,001,2026-01-16_22h41.10.264,MST_task,2024.2.0,59.82310308132301,2026-01-16 22h41.24.639802 +0530,
,Objects\347a.jpg,128,0,129,,,,,,,j,2.0169729000190273,0.10420769997290336,None,,,,129,0,128,1291.8201987000066,,,,,,,,,,,,,,,,,,,,,,,1291.8037286000035,1291.8201987000066,1292.3051734000037,,,,,,,,,,,,,,,,,,,,,,,1292.308034900023,1292.3219059999974,1292.3219059999974,1292.3219059999974,1295.3159242999973,shoe,j,2.0169729000190273,0.10420769997290336,1295.3159759000118,1295.315988700022,None,,,,,,,,,,,00037,001,2026-01-16_22h41.10.264,MST_task,2024.2.0,59.82310308132301,2026-01-16 22h41.24.639802 +0530,
,Objects\035a.jpg,129,0,130,,,,,,,j,1.1615483000059612,0.11111289999098517,None,,,,130,0,129,1295.3325164999987,,,,,,,,,,,,,,,,,,,,,,,1295.3160904000106,1295.3325164999987,1295.8174714000197,,,,,,,,,,,,,,,,,,,,,,,1295.8202717000095,1295.8342043000157,1295.8342043000157,1295.8342043000157,1298.8279754999967,shoe,j,1.1615483000059612,0.11111289999098517,1298.8280564000015,1298.8280709999963,None,,,,,,,,,,,00037,001,2026-01-16_22h41.10.264,MST_task,2024.2.0,59.82310308132301,2026-01-16 22h41.24.639802 +0530,
,Objects\068a.jpg,130,0,131,,,,,,,f,2.5527009000070393,0.13543359999312088,None,,,,131,0,130,1298.8447925000219,,,,,,,,,,,,,,,,,,,,,,,1298.8281443000014,1298.8447925000219,1299.3298445999972,,,,,,,,,,,,,,,,,,,,,,,1299.3391619000176,1299.3632365000085,1299.3632365000085,1299.3632365000085,1302.340704000002,shoe,f,2.5527009000070393,0.13543359999312088,1302.3407474000123,1302.340759100014,None,,,,,,,,,,,00037,001,2026-01-16_22h41.10.264,MST_task,2024.2.0,59.82310308132301,2026-01-16 22h41.24.639802 +0530,
,Objects\163a.jpg,131,0,132,,,,,,,j,1.3045073999965098,0.09602600001380779,None,,,,132,0,131,1302.3569832000067,,,,,,,,,,,,,,,,,,,,,,,1302.3408311000094,1302.3569832000067,1302.8421811000153,,,,,,,,,,,,,,,,,,,,,,,1302.8453753000067,1302.858955600008,1302.858955600008,1302.858955600008,1305.852687000006,shoe,j,1.3045073999965098,0.09602600001380779,1305.8529877999972,1305.8530030999973,None,,,,,,,,,,,00037,001,2026-01-16_22h41.10.264,MST_task,2024.2.0,59.82310308132301,2026-01-16 22h41.24.639802 +0530,
,Objects\378a.jpg,132,0,133,,,,,,,f,2.367718199995579,0.17006270002457313,None,,,,133,0,132,1305.8692788000044,,,,,,,,,,,,,,,,,,,,,,,1305.853076200001,1305.8692788000044,1306.3545706000004,,,,,,,,,,,,,,,,,,,,,,,1306.357826899999,1306.3709806000115,1306.3709806000115,1306.3709806000115,1309.3648495000089,shoe,f,2.367718199995579,0.17006270002457313,1309.364912500023,1309.3649316000228,None,,,,,,,,,,,00037,001,2026-01-16_22h41.10.264,MST_task,2024.2.0,59.82310308132301,2026-01-16 22h41.24.639802 +0530,
,Objects\284a.jpg,133,0,134,,,,,,,j,1.2705893999955151,0.12067350000143051,None,,,,134,0,133,1309.3816928000015,,,,,,,,,,,,,,,,,,,,,,,1309.365018600016,1309.3816928000015,1309.866650800017,,,,,,,,,,,,,,,,,,,,,,,1309.8756332000194,1309.9001266999985,1309.9001266999985,1309.9001266999985,1312.877295000013,indoor,j,1.2705893999955151,0.12067350000143051,1312.8792191999964,1312.879237700021,None,,,,,,,,,,,00037,001,2026-01-16_22h41.10.264,MST_task,2024.2.0,59.82310308132301,2026-01-16 22h41.24.639802 +0530,
,Objects\249a.jpg,134,0,135,,,,,,,j,1.2713645999901928,0.11200550000648946,None,,,,135,0,134,1312.8938797000155,,,,,,,,,,,,,,,,,,,,,,,1312.8793094000139,1312.8938797000155,1313.379594500002,,,,,,,,,,,,,,,,,,,,,,,1313.3940731000039,1313.4123123000027,1313.4123123000027,1313.4123123000027,1316.3896460999968,indoor,j,1.2713645999901928,0.11200550000648946,1316.389688700001,1316.389701100008,None,1313.4123123000027,,,,,,,,,,00037,001,2026-01-16_22h41.10.264,MST_task,2024.2.0,59.82310308132301,2026-01-16 22h41.24.639802 +0530,
,Objects\182a.jpg,135,0,136,,,,,,,f,2.1908891000202857,0.15268259998993017,None,,,,136,0,135,1316.4063074000005,,,,,,,,,,,,,,,,,,,,,,,1316.389770800015,1316.4063074000005,1316.891256700008,,,,,,,,,,,,,,,,,,,,,,,1316.906240500015,1316.9247385000053,1316.9247385000053,1316.9247385000053,1319.9020470000105,indoor,f,2.1908891000202857,0.15268259998993017,1319.902089500014,1319.9021016000188,None,,,,,,,,,,,00037,001,2026-01-16_22h41.10.264,MST_task,2024.2.0,59.82310308132301,2026-01-16 22h41.24.639802 +0530,
,Objects\206a.jpg,136,0,137,,,,,,,f,2.285797599994112,0.1843421999947168,None,,,,137,0,136,1319.9186027999967,,,,,,,,,,,,,,,,,,,,,,,1319.9021770000109,1319.9186027999967,1320.4038862000161,,,,,,,,,,,,,,,,,,,,,,,1320.4171319000016,1320.4373882000218,1320.4373882000218,1320.4373882000218,1323.4140682000143,indoor,f,2.285797599994112,0.1843421999947168,1323.414111799997,1323.4141235999996,None,,,,,,,,,,,00037,001,2026-01-16_22h41.10.264,MST_task,2024.2.0,59.82310308132301,2026-01-16 22h41.24.639802 +0530,
,Objects\039a.jpg,137,0,138,,,,,,,j,2.0294628999836277,0.14531620001071133,None,,,,138,0,137,1323.4310056999966,,,,,,,,,,,,,,,,,,,,,,,1323.4141945000156,1323.4310056999966,1323.9159703000041,,,,,,,,,,,,,,,,,,,,,,,1323.9306044999976,1323.949536900007,1323.949536900007,1323.949536900007,1326.9268340000126,indoor,j,2.0294628999836277,0.14531620001071133,1326.9268853999965,1326.9268988000113,None,,,,,,,,,,,00037,001,2026-01-16_22h41.10.264,MST_task,2024.2.0,59.82310308132301,2026-01-16 22h41.24.639802 +0530,
,Objects\360a.jpg,138,0,139,,,,,,,f,1.5815849999780767,0.12796139999409206,None,,,,139,0,138,1326.9428015000012,,,,,,,,,,,,,,,,,,,,,,,1326.9271276000072,1326.9428015000012,1327.4283060000162,,,,,,,,,,,,,,,,,,,,,,,1327.4347449000052,1327.4451913000084,1327.4451913000084,1327.4451913000084,1330.438748000015,indoor,f,1.5815849999780767,0.12796139999409206,1330.4387894000101,1330.4388041000057,None,,,,,,,,,,,00037,001,2026-01-16_22h41.10.264,MST_task,2024.2.0,59.82310308132301,2026-01-16 22h41.24.639802 +0530,
,Objects\261a.jpg,139,0,140,,,,,,,f,1.422786700015422,0.14218450000043958,None,,,,140,0,139,1330.4554979999957,,,,,,,,,,,,,,,,,,,,,,,1330.4388739000133,1330.4554979999957,1330.9406889000093,,,,,,,,,,,,,,,,,,,,,,,1330.9485930000083,1330.9739228000108,1330.9739228000108,1330.9739228000108,1333.9511283000174,indoor,f,1.422786700015422,0.14218450000043958,1333.9511712999956,1333.9511839000043,None,,,,,,,,,,,00037,001,2026-01-16_22h41.10.264,MST_task,2024.2.0,59.82310308132301,2026-01-16 22h41.24.639802 +0530,
,Objects\352a.jpg,140,0,141,,,,,,,f,1.5810128999873996,0.1284927999950014,None,,,,141,0,140,1333.96779710002,,,,,,,,,,,,,,,,,,,,,,,1333.9512560000003,1333.96779710002,1334.452878400014,,,,,,,,,,,,,,,,,,,,,,,1334.4610531000071,1334.4862555,1334.4862555,1334.4862555,1337.4633719999983,shoe,f,1.5810128999873996,0.1284927999950014,1337.4655321000027,1337.4655513000034,None,,,,,,,,,,,00037,001,2026-01-16_22h41.10.264,MST_task,2024.2.0,59.82310308132301,2026-01-16 22h41.24.639802 +0530,
,Objects\353a.jpg,141,0,142,,,,,,,f,1.4383861999958754,0.1677196000237018,None,,,,142,0,141,1337.4800934000232,,,,,,,,,,,,,,,,,,,,,,,1337.465623199998,1337.4800934000232,1337.965423400019,,,,,,,,,,,,,,,,,,,,,,,1337.9722562000097,1337.9816689,1337.9816689,1337.9816689,1340.9755602000223,shoe,f,1.4383861999958754,0.1677196000237018,1340.9756444000232,1340.9756607000018,None,1337.9816689,,,,,,,,,,00037,001,2026-01-16_22h41.10.264,MST_task,2024.2.0,59.82310308132301,2026-01-16 22h41.24.639802 +0530,
,Objects\170a.jpg,142,0,143,,,,,,,j,1.3159105000086129,0.17703399999300018,None,,,,143,0,142,1340.9923986000067,,,,,,,,,,,,,,,,,,,,,,,1340.9759924000246,1340.9923986000067,1341.4773573999992,,,,,,,,,,,,,,,,,,,,,,,1341.485485400015,1341.5109502999985,1341.5109502999985,1341.5109502999985,1344.4878679999965,shoe,j,1.3159105000086129,0.17703399999300018,1344.487914199999,1344.4879268000077,None,,,,,,,,,,,00037,001,2026-01-16_22h41.10.264,MST_task,2024.2.0,59.82310308132301,2026-01-16 22h41.24.639802 +0530,
,Objects\141a.jpg,143,0,144,,,,,,,j,2.3884932000073604,0.1443171999999322,None,,,,144,0,143,1344.5048094000085,,,,,,,,,,,,,,,,,,,,,,,1344.4881482000055,1344.5048094000085,1344.9896432000096,,,,,,,,,,,,,,,,,,,,,,,1344.9923129000235,1345.0065366000053,1345.0065366000053,1345.0065366000053,1348.0001855000155,shoe,j,2.3884932000073604,0.1443171999999322,1348.0002674999996,1348.0006755000213,None,,,,,,,,,,,00037,001,2026-01-16_22h41.10.264,MST_task,2024.2.0,59.82310308132301,2026-01-16 22h41.24.639802 +0530,
,Objects\037a.jpg,144,0,145,,,,,,,f,1.5006474000110757,0.17727399998693727,None,,,,145,0,144,1348.0169977000041,,,,,,,,,,,,,,,,,,,,,,,1348.0007645000005,1348.0169977000041,1348.5025385000044,,,,,,,,,,,,,,,,,,,,,,,1348.5062065000238,1348.5187117000169,1348.5187117000169,1348.5187117000169,1351.512438500009,shoe,f,1.5006474000110757,0.17727399998693727,1351.5124803000072,1351.5124926000135,None,,,,,,,,,,,00037,001,2026-01-16_22h41.10.264,MST_task,2024.2.0,59.82310308132301,2026-01-16 22h41.24.639802 +0530,
,Objects\127a.jpg,145,0,146,,,,,,,f,1.3485527999873739,0.17537360001006164,None,,,,146,0,145,1351.5293164000032,,,,,,,,,,,,,,,,,,,,,,,1351.5126481000043,1351.5293164000032,1352.014253100002,,,,,,,,,,,,,,,,,,,,,,,1352.017413100024,1352.031001700001,1352.031001700001,1352.031001700001,1355.0247562000004,shoe,f,1.3485527999873739,0.17537360001006164,1355.0248384000151,1355.0248533000122,None,,,,,,,,,,,00037,001,2026-01-16_22h41.10.264,MST_task,2024.2.0,59.82310308132301,2026-01-16 22h41.24.639802 +0530,
,Objects\153a.jpg,146,0,147,,,,,,,f,1.3960185000032652,0.18353779998142272,None,,,,147,0,146,1355.0417060000182,,,,,,,,,,,,,,,,,,,,,,,1355.0249261000135,1355.0417060000182,1355.5265409999993,,,,,,,,,,,,,,,,,,,,,,,1355.5302145000023,1355.5432931999967,1355.5432931999967,1355.5432931999967,1358.5373098000127,shoe,f,1.3960185000032652,0.18353779998142272,1358.53738720002,1358.5374031000247,None,,,,,,,,,,,00037,001,2026-01-16_22h41.10.264,MST_task,2024.2.0,59.82310308132301,2026-01-16 22h41.24.639802 +0530,
,Objects\159a.jpg,147,0,148,,,,,,,f,2.1317404999863356,0.5036269999982323,None,,,,148,0,147,1358.5539420999994,,,,,,,,,,,,,,,,,,,,,,,1358.5374777000106,1358.5539420999994,1359.0391291000124,,,,,,,,,,,,,,,,,,,,,,,1359.0431424000126,1359.0558368000202,1359.0558368000202,1359.0558368000202,1362.0496210000128,indoor,f,2.1317404999863356,0.5036269999982323,1362.0512248000014,1362.051246100018,None,,,,,,,,,,,00037,001,2026-01-16_22h41.10.264,MST_task,2024.2.0,59.82310308132301,2026-01-16 22h41.24.639802 +0530,
,Objects\272a.jpg,148,0,149,,,,,,,j,2.5308022999961395,0.09648870001547039,None,,,,149,0,148,1362.066190100013,,,,,,,,,,,,,,,,,,,,,,,1362.0513184000156,1362.066190100013,1362.5514240000048,,,,,,,,,,,,,,,,,,,,,,,1362.5584765000094,1362.5681855000148,1362.5681855000148,1362.5681855000148,1365.5616863000032,indoor,j,2.5308022999961395,0.09648870001547039,1365.5617487000127,1365.5617619999975,None,1362.5681855000148,,,,,,,,,,00037,001,2026-01-16_22h41.10.264,MST_task,2024.2.0,59.82310308132301,2026-01-16 22h41.24.639802 +0530,
,Objects\314a.jpg,149,0,150,,,,,,,j,1.8343745000020135,0.13618480000877753,None,,,,150,0,149,1365.5784803999995,,,,,,,,,,,,,,,,,,,,,,,1365.562098399998,1365.5784803999995,1366.0634571000119,,,,,,,,,,,,,,,,,,,,,,,1366.0803229000012,1366.0969218999962,1366.0969218999962,1366.0969218999962,1369.0743593000225,indoor,j,1.8343745000020135,0.13618480000877753,1369.074400100013,1369.0744116000133,None,,,,,,,,,,,00037,001,2026-01-16_22h41.10.264,MST_task,2024.2.0,59.82310308132301,2026-01-16 22h41.24.639802 +0530,
,Objects\334a.jpg,150,0,151,,,,,,,f,2.5229030000045896,0.1441110000014305,None,,,,151,0,150,1369.0906528000196,,,,,,,,,,,,,,,,,,,,,,,1369.074479700008,1369.0906528000196,1369.5758650000207,,,,,,,,,,,,,,,,,,,,,,,1369.5832643000176,1369.5923245000013,1369.5923245000013,1369.5923245000013,1372.586547600018,indoor,f,2.5229030000045896,0.1441110000014305,1372.5865909999993,1372.5866029000026,None,,,,,,,,,,,00037,001,2026-01-16_22h41.10.264,MST_task,2024.2.0,59.82310308132301,2026-01-16 22h41.24.639802 +0530,
,Objects\379a.jpg,151,0,152,,,,,,,f,1.7464732000080403,0.15260920001310296,None,,,,152,0,151,1372.602963000012,,,,,,,,,,,,,,,,,,,,,,,1372.5866714000003,1372.602963000012,1373.0881709000096,,,,,,,,,,,,,,,,,,,,,,,1373.0913246000127,1373.104680700024,1373.104680700024,1373.104680700024,1376.0993236000068,indoor,f,1.7464732000080403,0.15260920001310296,1376.0993706000154,1376.0993830000225,None,,,,,,,,,,,00037,001,2026-01-16_22h41.10.264,MST_task,2024.2.0,59.82310308132301,2026-01-16 22h41.24.639802 +0530,
,Objects\043a.jpg,152,0,153,,,,,,,f,1.9783866000070702,0.17567090000375174,None,,,,153,0,152,1376.1153441000206,,,,,,,,,,,,,,,,,,,,,,,1376.0994569000031,1376.1153441000206,1376.6006782000186,,,,,,,,,,,,,,,,,,,,,,,1376.6035472000076,1376.617164299998,1376.617164299998,1376.617164299998,1379.6108359000064,indoor,f,1.9783866000070702,0.17567090000375174,1379.6108752000146,1379.6108868000156,None,,,,,,,,,,,00037,001,2026-01-16_22h41.10.264,MST_task,2024.2.0,59.82310308132301,2026-01-16 22h41.24.639802 +0530,
,Objects\279a.jpg,153,0,154,,,,,,,j,2.746077799994964,0.1444678000116255,None,,,,154,0,153,1379.6276841000072,,,,,,,,,,,,,,,,,,,,,,,1379.611112100014,1379.6276841000072,1380.1127213000145,,,,,,,,,,,,,,,,,,,,,,,1380.1155199000204,1380.1293899000157,1380.1293899000157,1380.1293899000157,1383.1231642000203,indoor,j,2.746077799994964,0.1444678000116255,1383.1232088000106,1383.1232209000154,None,,,,,,,,,,,00037,001,2026-01-16_22h41.10.264,MST_task,2024.2.0,59.82310308132301,2026-01-16 22h41.24.639802 +0530,
,Objects\208a.jpg,154,0,155,,,,,,,j,2.2101961000007577,0.11123510001925752,None,,,,155,0,154,1383.1399812000163,,,,,,,,,,,,,,,,,,,,,,,1383.1236421000212,1383.1399812000163,1383.6249389000004,,,,,,,,,,,,,,,,,,,,,,,1383.632450300007,1383.641177100013,1383.641177100013,1383.641177100013,1386.6354467000056,shoe,j,2.2101961000007577,0.11123510001925752,1386.6372066000185,1386.6372220000194,None,,,,,,,,,,,00037,001,2026-01-16_22h41.10.264,MST_task,2024.2.0,59.82310308132301,2026-01-16 22h41.24.639802 +0530,
,Objects\052a.jpg,155,0,156,,,,,,,f,1.0422216999868397,0.17508890002500266,None,,,,156,0,155,1386.652295100008,,,,,,,,,,,,,,,,,,,,,,,1386.6372907000186,1386.652295100008,1387.1374084000126,,,,,,,,,,,,,,,,,,,,,,,1387.1455385000154,1387.153458100016,1387.153458100016,1387.153458100016,1390.1479015000223,shoe,f,1.0422216999868397,0.17508890002500266,1390.1479423000128,1390.1479553000245,None,1387.153458100016,,,,,,,,,,00037,001,2026-01-16_22h41.10.264,MST_task,2024.2.0,59.82310308132301,2026-01-16 22h41.24.639802 +0530,
,Objects\365a.jpg,156,0,157,,,,,,,f,1.7359971000114456,0.16041740000946447,None,,,,157,0,156,1390.1645807000168,,,,,,,,,,,,,,,,,,,,,,,1390.1481923999963,1390.1645807000168,1390.649533000018,,,,,,,,,,,,,,,,,,,,,,,1390.6667473000125,1390.6830194000213,1390.6830194000213,1390.6830194000213,1393.6601584000164,shoe,f,1.7359971000114456,0.16041740000946447,1393.6602009000198,1393.6602123000193,None,,,,,,,,,,,00037,001,2026-01-16_22h41.10.264,MST_task,2024.2.0,59.82310308132301,2026-01-16 22h41.24.639802 +0530,
,Objects\036a.jpg,157,0,158,,,,,,,j,1.6162619999959134,0.14446290000341833,None,,,,158,0,157,1393.676761300012,,,,,,,,,,,,,,,,,,,,,,,1393.6602818000247,1393.676761300012,1394.1619598999969,,,,,,,,,,,,,,,,,,,,,,,1394.1707319999987,1394.1951945000037,1394.1951945000037,1394.1951945000037,1397.1726424000226,shoe,j,1.6162619999959134,0.14446290000341833,1397.1726846000238,1397.1726963999972,None,,,,,,,,,,,00037,001,2026-01-16_22h41.10.264,MST_task,2024.2.0,59.82310308132301,2026-01-16 22h41.24.639802 +0530,
,Objects\051a.jpg,158,0,159,,,,,,,j,1.976142899977276,0.2649120000132825,None,,,,159,0,158,1397.1890641000064,,,,,,,,,,,,,,,,,,,,,,,1397.1727656000003,1397.1890641000064,1397.6743983000051,,,,,,,,,,,,,,,,,,,,,,,1397.6770844999992,1397.6907750999962,1397.6907750999962,1397.6907750999962,1400.6847698000201,shoe,j,1.976142899977276,0.2649120000132825,1400.6848375000118,1400.6848496000166,None,,,,,,,,,,,00037,001,2026-01-16_22h41.10.264,MST_task,2024.2.0,59.82310308132301,2026-01-16 22h41.24.639802 +0530,
,Objects\355a.jpg,159,0,160,,,,,,,f,1.870920199988177,0.1600797999999486,None,,,,160,0,159,1400.7013636000047,,,,,,,,,,,,,,,,,,,,,,,1400.6849216000119,1400.7013636000047,1401.186547600024,,,,,,,,,,,,,,,,,,,,,,,1401.2017043000087,1401.2197943000065,1401.2197943000065,1401.2197943000065,1404.1975203000184,shoe,f,1.870920199988177,0.1600797999999486,1404.1975732000137,1404.1975864999986,None,,,,,,,,,,,00037,001,2026-01-16_22h41.10.264,MST_task,2024.2.0,59.82310308132301,2026-01-16 22h41.24.639802 +0530,
,Objects\330a.jpg,160,0,161,,,,,,,j,1.7586309000034817,0.10458349998225458,None,,,,161,0,160,1404.2137922999973,,,,,,,,,,,,,,,,,,,,,,,1404.1980643999996,1404.2137922999973,1404.6987267000077,,,,,,,,,,,,,,,,,,,,,,,1404.715231500013,1404.7323365000193,1404.7323365000193,1404.7323365000193,1407.709365000017,shoe,j,1.7586309000034817,0.10458349998225458,1407.709786499996,1407.7098033000075,None,,,,,,,,,,,00037,001,2026-01-16_22h41.10.264,MST_task,2024.2.0,59.82310308132301,2026-01-16 22h41.24.639802 +0530,
,Objects\302a.jpg,161,0,162,,,,,,,j,2.2952794000157155,0.11943839999730699,None,,,,162,0,161,1407.7259562000108,,,,,,,,,,,,,,,,,,,,,,,1407.7098782999965,1407.7259562000108,1408.2111600000062,,,,,,,,,,,,,,,,,,,,,,,1408.220365200017,1408.2448906000063,1408.2448906000063,1408.2448906000063,1411.2215324999997,indoor,j,2.2952794000157155,0.11943839999730699,1411.2227724000113,1411.2227931000234,None,,,,,,,,,,,00037,001,2026-01-16_22h41.10.264,MST_task,2024.2.0,59.82310308132301,2026-01-16 22h41.24.639802 +0530,
,Objects\106a.jpg,162,0,163,,,,,,,f,1.5038053000171203,0.16049259999999776,None,,,,163,0,162,1411.2383700000064,,,,,,,,,,,,,,,,,,,,,,,1411.2228644000133,1411.2383700000064,1411.7233236000175,,,,,,,,,,,,,,,,,,,,,,,1411.7316749000165,1411.7395758000202,1411.7395758000202,1411.7395758000202,1414.7341286000155,indoor,f,1.5038053000171203,0.16049259999999776,1414.7341846000054,1414.7341965000087,None,,,,,,,,,,,00037,001,2026-01-16_22h41.10.264,MST_task,2024.2.0,59.82310308132301,2026-01-16 22h41.24.639802 +0530,
,Objects\217a.jpg,163,0,164,,,,,,,f,2.1982849999913014,0.17755739999120124,None,,,,164,0,163,1414.7505374000175,,,,,,,,,,,,,,,,,,,,,,,1414.7342708000215,1414.7505374000175,1415.2357621999981,,,,,,,,,,,,,,,,,,,,,,,1415.2445700000098,1415.268988900003,1415.268988900003,1415.268988900003,1418.2461343000177,indoor,f,2.1982849999913014,0.17755739999120124,1418.2462168000056,1418.2462307000242,None,,,,,,,,,,,00037,001,2026-01-16_22h41.10.264,MST_task,2024.2.0,59.82310308132301,2026-01-16 22h41.24.639802 +0530,
,Objects\060a.jpg,164,0,165,,,,,,,f,2.071173300006194,0.16826800000853837,None,,,,165,0,164,1418.2630836000026,,,,,,,,,,,,,,,,,,,,,,,1418.2465849000146,1418.2630836000026,1418.747938800021,,,,,,,,,,,,,,,,,,,,,,,1418.756638300023,1418.7641262999969,1418.7641262999969,1418.7641262999969,1421.7584298000147,indoor,f,2.071173300006194,0.16826800000853837,1421.7584742000035,1421.7584859000053,None,,,,,,,,,,,00037,001,2026-01-16_22h41.10.264,MST_task,2024.2.0,59.82310308132301,2026-01-16 22h41.24.639802 +0530,
,Objects\228a.jpg,165,0,166,,,,,,,f,2.6537092999788,0.14449750000494532,None,,,,166,0,165,1421.7752682999999,,,,,,,,,,,,,,,,,,,,,,,1421.758557299996,1421.7752682999999,1422.2602254000085,,,,,,,,,,,,,,,,,,,,,,,1422.2632682000112,1422.276977600006,1422.276977600006,1422.276977600006,1425.2707279000024,indoor,f,2.6537092999788,0.14449750000494532,1425.2708223000227,1425.2708372000197,None,,,,,,,,,,,00037,001,2026-01-16_22h41.10.264,MST_task,2024.2.0,59.82310308132301,2026-01-16 22h41.24.639802 +0530,
,Objects\227a.jpg,166,0,167,,,,,,,f,1.7091991000052076,0.15329849999397993,None,,,,167,0,166,1425.2875606000016,,,,,,,,,,,,,,,,,,,,,,,1425.2712663999991,1425.2875606000016,1425.7726824000129,,,,,,,,,,,,,,,,,,,,,,,1425.7855999000021,1425.8060017000244,1425.8060017000244,1425.8060017000244,1428.78337260001,indoor,f,1.7091991000052076,0.15329849999397993,1428.783415300015,1428.7834270000167,None,,,,,,,,,,,00037,001,2026-01-16_22h41.10.264,MST_task,2024.2.0,59.82310308132301,2026-01-16 22h41.24.639802 +0530,
,Objects\059a.jpg,167,0,168,,,,,,,f,1.845663100015372,0.15204200000152923,None,,,,168,0,167,1428.799756100023,,,,,,,,,,,,,,,,,,,,,,,1428.783497700002,1428.799756100023,1429.285090200021,,,,,,,,,,,,,,,,,,,,,,,1429.288761200005,1429.3014655000006,1429.3014655000006,1429.3014655000006,1432.2953947000206,indoor,f,1.845663100015372,0.15204200000152923,1432.2954389000079,1432.2954515000165,None,,,,,,,,,,,00037,001,2026-01-16_22h41.10.264,MST_task,2024.2.0,59.82310308132301,2026-01-16 22h41.24.639802 +0530,
,Objects\157a.jpg,168,0,169,,,,,,,f,1.9331234999990556,0.1436890000186395,None,,,,169,0,168,1432.3121716000023,,,,,,,,,,,,,,,,,,,,,,,1432.2955248000217,1432.3121716000023,1432.7971076999966,,,,,,,,,,,,,,,,,,,,,,,1432.8081845999986,1432.8306096000015,1432.8306096000015,1432.8306096000015,1435.807825099997,shoe,f,1.9331234999990556,0.1436890000186395,1435.8092286000028,1435.8092486000096,None,,,,,,,,,,,00037,001,2026-01-16_22h41.10.264,MST_task,2024.2.0,59.82310308132301,2026-01-16 22h41.24.639802 +0530,
,Objects\285a.jpg,169,0,170,,,,,,,f,1.5651276000135113,0.14443479999317788,None,,,,170,0,169,1435.824340400024,,,,,,,,,,,,,,,,,,,,,,,1435.8093653999968,1435.824340400024,1436.3105642000155,,,,,,,,,,,,,,,,,,,,,,,1436.3140890000213,1436.3260554000153,1436.3260554000153,1436.3260554000153,1439.320174499997,shoe,f,1.5651276000135113,0.14443479999317788,1439.3202304000151,1439.32024250002,None,,,,,,,,,,,00037,001,2026-01-16_22h41.10.264,MST_task,2024.2.0,59.82310308132301,2026-01-16 22h41.24.639802 +0530,
,Objects\290a.jpg,170,0,171,,,,,,,j,1.309112599992659,0.1348786000162363,None,,,,171,0,170,1439.3366511000204,,,,,,,,,,,,,,,,,,,,,,,1439.320313300006,1439.3366511000204,1439.8219136999978,,,,,,,,,,,,,,,,,,,,,,,1439.836775600008,1439.8550858000235,1439.8550858000235,1439.8550858000235,1442.8322245000163,shoe,j,1.309112599992659,0.1348786000162363,1442.8322868999967,1442.8323105000018,None,,,,,,,,,,,00037,001,2026-01-16_22h41.10.264,MST_task,2024.2.0,59.82310308132301,2026-01-16 22h41.24.639802 +0530,
,Objects\115a.jpg,171,0,172,,,,,,,f,2.0844589000043925,0.19967780000297353,None,,,,172,0,171,1442.8490654000198,,,,,,,,,,,,,,,,,,,,,,,1442.8327661000076,1442.8490654000198,1443.3340316000103,,,,,,,,,,,,,,,,,,,,,,,1443.340980100009,1443.3508169999986,1443.3508169999986,1443.3508169999986,1446.3445253000245,shoe,f,2.0844589000043925,0.19967780000297353,1446.344568200002,1446.3445801000053,None,,,,,,,,,,,00037,001,2026-01-16_22h41.10.264,MST_task,2024.2.0,59.82310308132301,2026-01-16 22h41.24.639802 +0530,
,Objects\252a.jpg,172,0,173,,,,,,,f,1.4678309000155423,0.20844049999141134,None,,,,173,0,172,1446.3613635000074,,,,,,,,,,,,,,,,,,,,,,,1446.344685500022,1446.3613635000074,1446.8464465000143,,,,,,,,,,,,,,,,,,,,,,,1446.8494534000056,1446.8629671000235,1446.8629671000235,1446.8629671000235,1449.856946200016,shoe,f,1.4678309000155423,0.20844049999141134,1449.8569883000164,1449.857000500022,None,,,,,,,,,,,00037,001,2026-01-16_22h41.10.264,MST_task,2024.2.0,59.82310308132301,2026-01-16 22h41.24.639802 +0530,
,Objects\203a.jpg,173,0,174,,,,,,,j,2.6830623999994714,0.1369747999997344,None,,,,174,0,173,1449.873541900015,,,,,,,,,,,,,,,,,,,,,,,1449.8570714000089,1449.873541900015,1450.358747100021,,,,,,,,,,,,,,,,,,,,,,,1450.3690989000024,1450.391981200024,1450.391981200024,1450.391981200024,1453.369127700018,shoe,j,2.6830623999994714,0.1369747999997344,1453.369170400023,1453.3691821999964,None,,,,,,,,,,,00037,001,2026-01-16_22h41.10.264,MST_task,2024.2.0,59.82310308132301,2026-01-16 22h41.24.639802 +0530,
,Objects\044a.jpg,174,0,175,,,,,,,f,1.4899338000104763,0.16036009998060763,None,,,,175,0,174,1453.3859681000176,,,,,,,,,,,,,,,,,,,,,,,1453.3692508999957,1453.3859681000176,1453.8711057000037,,,,,,,,,,,,,,,,,,,,,,,1453.8807027000003,1453.9048986000125,1453.9048986000125,1453.9048986000125,1456.8817294000182,shoe,f,1.4899338000104763,0.16036009998060763,1456.8817704000103,1456.8817826000159,None,,,,,,,,,,,00037,001,2026-01-16_22h41.10.264,MST_task,2024.2.0,59.82310308132301,2026-01-16 22h41.24.639802 +0530,
,Objects\315a.jpg,175,0,176,,,,,,,f,1.3728841999836732,0.14357320000999607,None,,,,176,0,175,1456.8981388999964,,,,,,,,,,,,,,,,,,,,,,,1456.8818799,1456.8981388999964,1457.3833507000236,,,,,,,,,,,,,,,,,,,,,,,1457.3908677000145,1457.3993517000054,1457.3993517000054,1457.3993517000054,1460.394043600012,indoor,f,1.3728841999836732,0.14357320000999607,1460.395316900016,1460.3953339,None,,,,,,,,,,,00037,001,2026-01-16_22h41.10.264,MST_task,2024.2.0,59.82310308132301,2026-01-16 22h41.24.639802 +0530,
,Objects\375a.jpg,176,0,177,,,,,,,f,2.0983791000035126,0.16821420000633225,None,,,,177,0,176,1460.4104402000085,,,,,,,,,,,,,,,,,,,,,,,1460.3954045000137,1460.4104402000085,1460.8958349000022,,,,,,,,,,,,,,,,,,,,,,,1460.903655800008,1460.9288935000077,1460.9288935000077,1460.9288935000077,1463.9060088999977,indoor,f,2.0983791000035126,0.16821420000633225,1463.9060506000242,1463.9060625999991,None,,,,,,,,,,,00037,001,2026-01-16_22h41.10.264,MST_task,2024.2.0,59.82310308132301,2026-01-16 22h41.24.639802 +0530,
,Objects\207a.jpg,177,0,178,,,,,,,f,1.6419061000051443,0.1675634999992326,None,,,,178,0,177,1463.9228549000109,,,,,,,,,,,,,,,,,,,,,,,1463.9061311999976,1463.9228549000109,1464.407814700011,,,,,,,,,,,,,,,,,,,,,,,1464.4164120000205,1464.4413064999972,1464.4413064999972,1464.4413064999972,1467.4186203000136,indoor,f,1.6419061000051443,0.1675634999992326,1467.418675599998,1467.4186882000067,None,,,,,,,,,,,00037,001,2026-01-16_22h41.10.264,MST_task,2024.2.0,59.82310308132301,2026-01-16 22h41.24.639802 +0530,
,Objects\224a.jpg,178,0,179,,,,,,,j,1.6183854000119027,0.1596750000026077,None,,,,179,0,178,1467.4350295000186,,,,,,,,,,,,,,,,,,,,,,,1467.4187608000066,1467.4350295000186,1467.9202783000073,,,,,,,,,,,,,,,,,,,,,,,1467.926643200015,1467.9367750000092,1467.9367750000092,1467.9367750000092,1470.930783400021,indoor,j,1.6183854000119027,0.1596750000026077,1470.9308287000167,1470.9308408000215,None,,,,,,,,,,,00037,001,2026-01-16_22h41.10.264,MST_task,2024.2.0,59.82310308132301,2026-01-16 22h41.24.639802 +0530,
,Objects\382a.jpg,179,0,180,,,,,,,j,2.3769247000163887,0.18484209998860024,None,,,,180,0,179,1470.9474777000141,,,,,,,,,,,,,,,,,,,,,,,1470.9309130000183,1470.9474777000141,1471.4326368000184,,,,,,,,,,,,,,,,,,,,,,,1471.4408488000045,1471.4657814000093,1471.4657814000093,1471.4657814000093,1474.442921800015,indoor,j,2.3769247000163887,0.18484209998860024,1474.4429632000101,1474.4429750000127,None,,,,,,,,,,,00037,001,2026-01-16_22h41.10.264,MST_task,2024.2.0,59.82310308132301,2026-01-16 22h41.24.639802 +0530,
,Objects\137a.jpg,180,0,181,,,,,,,f,2.3687732000253163,0.17604589997790754,None,,,,181,0,180,1474.4597499000083,,,,,,,,,,,,,,,,,,,,,,,1474.4430694000039,1474.4597499000083,1474.9447198999987,,,,,,,,,,,,,,,,,,,,,,,1474.9616364999965,1474.978196800017,1474.978196800017,1474.978196800017,1477.9553412000241,indoor,f,2.3687732000253163,0.17604589997790754,1477.9553822000162,1477.9553938000172,None,,,,,,,,,,,00037,001,2026-01-16_22h41.10.264,MST_task,2024.2.0,59.82310308132301,2026-01-16 22h41.24.639802 +0530,
,Objects\186a.jpg,181,0,182,,,,,,,f,1.6411722999764606,0.2162341000221204,None,,,,182,0,181,1477.9720848000143,,,,,,,,,,,,,,,,,,,,,,,1477.955463899998,1477.9720848000143,1478.4571536000003,,,,,,,,,,,,,,,,,,,,,,,1478.4602152000007,1478.4738606000028,1478.4738606000028,1478.4738606000028,1481.4677607000049,indoor,f,1.6411722999764606,0.2162341000221204,1481.4680344000226,1481.468052500015,None,,,,,,,,,,,00037,001,2026-01-16_22h41.10.264,MST_task,2024.2.0,59.82310308132301,2026-01-16 22h41.24.639802 +0530,
,Objects\307a.jpg,182,0,183,,,,,,,j,2.8405100999807473,0.10394359999918379,None,,,,183,0,182,1481.4842394000152,,,,,,,,,,,,,,,,,,,,,,,1481.4681425000017,1481.4842394000152,1481.9693280000065,,,,,,,,,,,,,,,,,,,,,,,1481.980390600016,1482.0027985000052,1482.0027985000052,1482.0027985000052,1484.9799447999976,shoe,j,2.8405100999807473,0.10394359999918379,1484.9818737000169,1484.9818939999968,None,,,,,,,,,,,00037,001,2026-01-16_22h41.10.264,MST_task,2024.2.0,59.82310308132301,2026-01-16 22h41.24.639802 +0530,
