Sl_no,image_path,thisN,thisTrialN,thisRepN,key_resp_5.keys,key_resp_7.keys,key_resp_7.rt,key_resp_7.duration,key_resp_5.rt,key_resp_5.duration,key_resp_9.keys,key_resp_9.rt,key_resp_9.duration,key_resp_8.keys,key_resp_8.rt,key_resp_8.duration,practice.thisRepN,practice.thisTrialN,practice.thisN,trials.thisRepN,trials.thisTrialN,trials.thisN,thisRow.t,notes,welcome_page.started,text.started,key_resp.started,welcome_page.stopped,key_resp.keys,key_resp.rt,key_resp.duration,instructions.started,ins.started,key_resp_2.started,instructions.stopped,key_resp_2.keys,key_resp_2.rt,key_resp_2.duration,objects_only_instruction.started,text_3.started,key_resp_3.started,objects_only_instruction.stopped,key_resp_3.keys,key_resp_3.rt,key_resp_3.duration,ISI.started,text_4.started,ISI.stopped,practice_block.started,image.started,key_resp_5.started,text_5.started,practice_block.stopped,practice.key_resp_5.keys,indoor_outdoor.started,text_7.started,key_resp_7.started,indoor_outdoor.stopped,practice.key_resp_7.keys,practice.key_resp_7.rt,practice.key_resp_7.duration,practice.key_resp_5.rt,practice.key_resp_5.duration,practice_to_main.started,text_2.started,key_resp_4.started,practice_to_main.stopped,key_resp_4.keys,key_resp_4.rt,key_resp_4.duration,objects.started,image_2.started,text_9.started,key_resp_9.started,objects.stopped,category,trials.key_resp_9.keys,trials.key_resp_9.rt,trials.key_resp_9.duration,encoding_task.started,encoding_task.stopped,trials.key_resp_8.keys,text_8.started,key_resp_8.started,trials.key_resp_8.rt,trials.key_resp_8.duration,text_4.stopped,end_experiment.started,text_6.started,key_resp_6.started,end_experiment.stopped,key_resp_6.keys,key_resp_6.rt,key_resp_6.duration,list_of_stimuli,encoding_task_accuracy,participant,session,date,expName,psychopyVersion,frameRate,expStart,
,,,,,,,,,,,,,,,,,,,,,,,,,0.011052999994717538,0.027617799991276115,0.027617799991276115,12.625941000005696,space,12.580357700004242,None,,,,,,,,,,,,,,,,,,,,,,,,,,,,,,,,,,,,,,,,,,,,,,,,,,,,,,,,,,,,,,,,,,00060,001,2026-01-19_17h07.13.071,MST_task,2024.2.0,59.839140416950706,2026-01-19 17h07.27.912896 +0530,
,,,,,,,,,,,,,,,,,,,,,,,,,,,,,,,,12.625997800030746,12.639362899994012,12.639362899994012,27.17541570001049,space,14.520475599972997,None,,,,,,,,,,,,,,,,,,,,,,,,,,,,,,,,,,,,,,,,,,,,,,,,,,,,,,,,,,,00060,001,2026-01-19_17h07.13.071,MST_task,2024.2.0,59.839140416950706,2026-01-19 17h07.27.912896 +0530,
,,,,,,,,,,,,,,,,,,,,,,,,,,,,,,,,,,,,,,,27.17545090004569,27.190445200016256,27.190445200016256,56.5279409000068,space,29.329342100012582,None,,,,,,,,,,,,,,,,,,,,,,,,,,,,,,,,,,,,,,,,,,,,,,,,,,,,00060,001,2026-01-19_17h07.13.071,MST_task,2024.2.0,59.839140416950706,2026-01-19 17h07.27.912896 +0530,
7,practice_images/166a.jpg,0,0,1,None,f,0.8558655000524595,None,,,,,,,,,1,0,0,,,,56.56094860000303,,,,,,,,,,,,,,,,,,,,,,,56.542650300019886,56.56094860000303,57.029340900015086,57.04565470002126,57.06286200002069,57.06286200002069,57.06286200002069,60.03984840004705,None,60.04111260001082,60.056407500000205,60.056407500000205,60.92688869999256,f,0.8558655000524595,None,,,,,,,,,,,,,,,,,,,,,,,,,,,,,,,,,,,,00060,001,2026-01-19_17h07.13.071,MST_task,2024.2.0,59.839140416950706,2026-01-19 17h07.27.912896 +0530,
1,practice_images/013a.jpg,1,1,1,j,None,,,1.859098399989307,0.12718549999408424,,,,,,,1,1,1,,,,60.94295910000801,,,,,,,,,,,,,,,,,,,,,,,60.92697640002007,60.94295910000801,61.427969500015024,61.43639400001848,61.461403299996164,61.461403299996164,61.461403299996164,64.43901530001312,j,64.43906100001186,,,64.43907359999139,None,,,1.859098399989307,0.12718549999408424,,,,,,,,,,,,,,,,,,,,,,,,,,,,,,,,,,00060,001,2026-01-19_17h07.13.071,MST_task,2024.2.0,59.839140416950706,2026-01-19 17h07.27.912896 +0530,
6,practice_images/158a.jpg,2,2,1,j,None,,,1.8117520000087097,0.15147530002286658,,,,,,,1,2,2,,,,64.45511080004508,,,,,,,,,,,,,,,,,,,,,,,64.4391450000112,64.45511080004508,64.94009869999718,64.94861090002814,64.95633030001773,64.95633030001773,64.95633030001773,67.9507253000047,j,67.9507724000141,,,67.95078430004651,None,,,1.8117520000087097,0.15147530002286658,,,,,,,,,,,,,,,,,,,,,,,,,,,,,,,,,,00060,001,2026-01-19_17h07.13.071,MST_task,2024.2.0,59.839140416950706,2026-01-19 17h07.27.912896 +0530,
2,practice_images/031a.jpg,3,3,1,f,None,,,1.6463087999727577,0.13365209999028593,,,,,,,1,3,3,,,,67.96739110001363,,,,,,,,,,,,,,,,,,,,,,,67.95085070002824,67.96739110001363,68.45255260000704,68.4607507000328,68.46856300003128,68.46856300003128,68.46856300003128,71.46342129999539,f,71.46345979999751,,,71.46347150002839,None,,,1.6463087999727577,0.13365209999028593,,,,,,,,,,,,,,,,,,,,,,,,,,,,,,,,,,00060,001,2026-01-19_17h07.13.071,MST_task,2024.2.0,59.839140416950706,2026-01-19 17h07.27.912896 +0530,
9,practice_images/180a.jpg,4,4,1,f,None,,,0.8274873999762349,0.11165390000678599,,,,,,,1,4,4,,,,71.48019680002471,,,,,,,,,,,,,,,,,,,,,,,71.46353740000632,71.48019680002471,71.96471740002744,71.97267170000123,71.98074620001717,71.98074620001717,71.98074620001717,74.97536000004038,f,74.9754047000315,,,74.97541670000646,None,,,0.8274873999762349,0.11165390000678599,,,,,,,,,,,,,,,,,,,,,,,,,,,,,,,,,,00060,001,2026-01-19_17h07.13.071,MST_task,2024.2.0,59.839140416950706,2026-01-19 17h07.27.912896 +0530,
10,practice_images/182a.jpg,5,5,1,None,f,0.11999090004246682,None,,,,,,,,,1,5,5,,,,74.99216540000634,,,,,,,,,,,,,,,,,,,,,,,74.97548530000495,74.99216540000634,75.47718020004686,75.48756410001079,75.49372080003377,75.49372080003377,75.49372080003377,78.48780740000075,None,78.48922270000912,78.5046876000124,78.5046876000124,78.63905860000523,f,0.11999090004246682,None,,,,,,,,,,,,,,,,,,,,,,,,,,,,,,,,,,,,00060,001,2026-01-19_17h07.13.071,MST_task,2024.2.0,59.839140416950706,2026-01-19 17h07.27.912896 +0530,
4,practice_images/002b.jpg,6,6,1,j,None,,,1.196281899989117,0.10390540002845228,,,,,,,1,6,6,,,,78.65533810004126,,,,,,,,,,,,,,,,,,,,,,,78.63914040004602,78.65533810004126,79.14000910002505,79.14831160003087,79.15618079999695,79.15618079999695,79.15618079999695,82.15029870002763,j,82.15033820003737,,,82.1503513000207,None,,,1.196281899989117,0.10390540002845228,,,,,,,,,,,,,,,,,,,,,,,,,,,,,,,,,,00060,001,2026-01-19_17h07.13.071,MST_task,2024.2.0,59.839140416950706,2026-01-19 17h07.27.912896 +0530,
8,practice_images/178a.jpg,7,7,1,f,None,,,1.3237612000084482,0.16899330000160262,,,,,,,1,7,7,,,,82.16687110002385,,,,,,,,,,,,,,,,,,,,,,,82.1504178000032,82.16687110002385,82.65207040001405,82.66009750001831,82.66874920000555,82.66874920000555,82.66874920000555,85.66259800002445,f,85.66263630002504,,,85.66264819999924,None,,,1.3237612000084482,0.16899330000160262,,,,,,,,,,,,,,,,,,,,,,,,,,,,,,,,,,00060,001,2026-01-19_17h07.13.071,MST_task,2024.2.0,59.839140416950706,2026-01-19 17h07.27.912896 +0530,
5,practice_images/139a.jpg,8,8,1,f,None,,,1.8995226000552066,0.17535719997249544,,,,,,,1,8,8,,,,85.67900960001862,,,,,,,,,,,,,,,,,,,,,,,85.66271340003004,85.67900960001862,86.16439650004031,86.17234930000268,86.18065570003819,86.18065570003819,86.18065570003819,89.17471710004611,f,89.17489910003496,,,89.17491300002439,None,,,1.8995226000552066,0.17535719997249544,,,,,,,,,,,,,,,,,,,,,,,,,,,,,,,,,,00060,001,2026-01-19_17h07.13.071,MST_task,2024.2.0,59.839140416950706,2026-01-19 17h07.27.912896 +0530,
3,practice_images/037a.jpg,9,9,1,f,None,,,2.219556999974884,0.12780490005388856,,,,,,,1,9,9,,,,89.19131820002804,,,,,,,,,,,,,,,,,,,,,,,89.17498710000655,89.19131820002804,89.67662400001427,89.68494520004606,89.6930070000235,89.6930070000235,89.6930070000235,92.68703200004529,f,92.68723139999202,,,92.6872449000366,None,,,2.219556999974884,0.12780490005388856,,,,,,,,,,,,,,,,,,,,,,,,,,,,,,,,,,00060,001,2026-01-19_17h07.13.071,MST_task,2024.2.0,59.839140416950706,2026-01-19 17h07.27.912896 +0530,
,,,,,,,,,,,,,,,,,,,,,,,,,,,,,,,,,,,,,,,,,,,,,,,,,,,,,,,,,,,,,,,,92.6872964000213,92.70369930000743,92.70369930000743,98.22389419999672,space,5.5047047000261955,None,,,,,,,,,,,,,,,,,,,,,,,,,,,00060,001,2026-01-19_17h07.13.071,MST_task,2024.2.0,59.839140416950706,2026-01-19 17h07.27.912896 +0530,
,Objects\370a.jpg,0,0,1,,,,,,,j,2.400017799984198,0.15281359996879473,None,,,,,,1,0,0,98.23996810003882,,,,,,,,,,,,,,,,,,,,,,,98.22455199999968,98.23996810003882,98.72533909999765,,,,,,,,,,,,,,,,,,,,,,,98.74329670000589,98.75957590003964,98.75957590003964,98.75957590003964,101.73566510004457,indoor,j,2.400017799984198,0.15281359996879473,101.73696160002146,101.73698460002197,None,,,,,,,,,,,,,,,00060,001,2026-01-19_17h07.13.071,MST_task,2024.2.0,59.839140416950706,2026-01-19 17h07.27.912896 +0530,
,Objects\029a.jpg,1,0,2,,,,,,,f,1.0087431000429206,0.16869909997330979,None,,,,,,2,0,1,101.7523971000337,,,,,,,,,,,,,,,,,,,,,,,101.73707010003272,101.7523971000337,102.23736160004046,,,,,,,,,,,,,,,,,,,,,,,102.24719460000051,102.27086029999191,102.27086029999191,102.27086029999191,105.2479258000385,indoor,f,1.0087431000429206,0.16869909997330979,105.24797140003648,105.24798370001372,None,,,,,,,,,,,,,,,00060,001,2026-01-19_17h07.13.071,MST_task,2024.2.0,59.839140416950706,2026-01-19 17h07.27.912896 +0530,
,Objects\357a.jpg,2,0,3,,,,,,,None,,,j,2.5595930999843404,None,,,,3,0,2,105.26467699999921,,,,,,,,,,,,,,,,,,,,,,,105.24805450002896,105.26467699999921,105.74978150002426,,,,,,,,,,,,,,,,,,,,,,,105.75948400003836,105.78306180000072,105.78306180000072,105.78306180000072,108.76019990001805,indoor,None,,,108.7602386000217,111.35421280004084,j,108.7769963000319,108.7769963000319,2.5595930999843404,None,,,,,,,,,,,00060,001,2026-01-19_17h07.13.071,MST_task,2024.2.0,59.839140416950706,2026-01-19 17h07.27.912896 +0530,
,Objects\147a.jpg,3,0,4,,,,,,,f,1.3127999000134878,0.1598183999885805,None,,,,,,4,0,3,111.3691453000065,,,,,,,,,,,,,,,,,,,,,,,111.35430870001437,111.3691453000065,111.85457270004554,,,,,,,,,,,,,,,,,,,,,,,111.86614920001011,111.88742640003329,111.88742640003329,111.88742640003329,114.86457390000578,indoor,f,1.3127999000134878,0.1598183999885805,114.86463510000613,114.8646476000431,None,,,,,,,,,,,,,,,00060,001,2026-01-19_17h07.13.071,MST_task,2024.2.0,59.839140416950706,2026-01-19 17h07.27.912896 +0530,
,Objects\047a.jpg,4,0,5,,,,,,,f,0.696261000004597,0.1514465000363998,None,,,,,,5,0,4,114.88153830001829,,,,,,,,,,,,,,,,,,,,,,,114.8647176999948,114.88153830001829,115.36638399999356,,,,,,,,,,,,,,,,,,,,,,,115.37699910002993,115.39996569999494,115.39996569999494,115.39996569999494,118.37711639999179,indoor,f,0.696261000004597,0.1514465000363998,118.3771596000297,118.37717130000237,None,,,,,,,,,,,,,,,00060,001,2026-01-19_17h07.13.071,MST_task,2024.2.0,59.839140416950706,2026-01-19 17h07.27.912896 +0530,
,Objects\188a.jpg,5,0,6,,,,,,,f,0.5760440999874845,0.14555459999246523,None,,,,,,6,0,5,118.3935944000259,,,,,,,,,,,,,,,,,,,,,,,118.37727150000865,118.3935944000259,118.87878810003167,,,,,,,,,,,,,,,,,,,,,,,118.88851570000406,118.9120358999935,118.9120358999935,118.9120358999935,121.88917989999754,indoor,f,0.5760440999874845,0.14555459999246523,121.88922370004002,121.88923570001498,None,,,,,,,,,,,,,,,00060,001,2026-01-19_17h07.13.071,MST_task,2024.2.0,59.839140416950706,2026-01-19 17h07.27.912896 +0530,
,Objects\014a.jpg,6,0,7,,,,,,,f,0.7673615000094287,0.0803641999955289,None,,,,,,7,0,6,121.90627860004315,,,,,,,,,,,,,,,,,,,,,,,121.88930450001499,121.90627860004315,122.39098690001993,,,,,,,,,,,,,,,,,,,,,,,122.40069420001237,122.42444680002518,122.42444680002518,122.42444680002518,125.40159830002813,indoor,f,0.7673615000094287,0.0803641999955289,125.40164230001392,125.40165440004785,None,,,,,,,,,,,,,,,00060,001,2026-01-19_17h07.13.071,MST_task,2024.2.0,59.839140416950706,2026-01-19 17h07.27.912896 +0530,
,Objects\141a.jpg,7,0,8,,,,,,,j,1.2077110999962315,0.11102969996863976,None,,,,,,8,0,7,125.41819380002562,,,,,,,,,,,,,,,,,,,,,,,125.40172369999345,125.41819380002562,125.90351279999595,,,,,,,,,,,,,,,,,,,,,,,125.91583479999099,125.93676220002817,125.93676220002817,125.93676220002817,128.91396800003713,shoe,j,1.2077110999962315,0.11102969996863976,128.91549889999442,128.91551820002496,None,,,,,,,,,,,,,,,00060,001,2026-01-19_17h07.13.071,MST_task,2024.2.0,59.839140416950706,2026-01-19 17h07.27.912896 +0530,
,Objects\219a.jpg,8,0,9,,,,,,,f,2.0636637999559753,0.1591665000305511,None,,,,,,9,0,8,128.93050220003352,,,,,,,,,,,,,,,,,,,,,,,128.91558740002802,128.93050220003352,129.4157013000222,,,,,,,,,,,,,,,,,,,,,,,129.42556380003225,129.44904320000205,129.44904320000205,129.44904320000205,132.42607300000964,shoe,f,2.0636637999559753,0.1591665000305511,132.42615479999222,132.42616950004594,None,,,,,,,,,,,,,,,00060,001,2026-01-19_17h07.13.071,MST_task,2024.2.0,59.839140416950706,2026-01-19 17h07.27.912896 +0530,
,Objects\176a.jpg,9,0,10,,,,,,,j,0.9267901999992318,0.09599529998376966,None,,,,,,10,0,9,132.44289920001756,,,,,,,,,,,,,,,,,,,,,,,132.42652520001866,132.44289920001756,132.927915200009,,,,,,,,,,,,,,,,,,,,,,,132.9374113000231,132.96134430001257,132.96134430001257,132.96134430001257,135.9385256000096,shoe,j,0.9267901999992318,0.09599529998376966,135.93857100000605,135.93858260003617,None,,,,,,,,,,,,,,,00060,001,2026-01-19_17h07.13.071,MST_task,2024.2.0,59.839140416950706,2026-01-19 17h07.27.912896 +0530,
,Objects\203a.jpg,10,0,11,,,,,,,None,,,j,0.7641388999763876,None,,,,11,0,10,135.95510200003628,,,,,,,,,,,,,,,,,,,,,,,135.93869010003982,135.95510200003628,136.44017010001699,,,,,,,,,,,,,,,,,,,,,,,136.45790800004033,136.47364530002233,136.47364530002233,136.47364530002233,139.4514223000151,shoe,None,,,139.4514622000279,140.23734100000001,j,139.46770380000817,139.46770380000817,0.7641388999763876,None,,,,,,,,,,,00060,001,2026-01-19_17h07.13.071,MST_task,2024.2.0,59.839140416950706,2026-01-19 17h07.27.912896 +0530,
,Objects\198a.jpg,11,0,12,,,,,,,f,1.0835821000509895,0.08784409996587783,None,,,,,,12,0,11,140.2535888000275,,,,,,,,,,,,,,,,,,,,,,,140.23743380000815,140.2535888000275,140.73856620001607,,,,,,,,,,,,,,,,,,,,,,,140.7524812000338,140.77204250002978,140.77204250002978,140.77204250002978,143.7496515000239,shoe,f,1.0835821000509895,0.08784409996587783,143.7497312000487,143.74974460003432,None,,,,,,,,,,,,,,,00060,001,2026-01-19_17h07.13.071,MST_task,2024.2.0,59.839140416950706,2026-01-19 17h07.27.912896 +0530,
,Objects\299a.jpg,12,0,13,,,,,,,j,2.0031495000002906,0.10340299998642877,None,,,,,,13,0,12,143.76634289999492,,,,,,,,,,,,,,,,,,,,,,,143.7498246000032,143.76634289999492,144.25098200002685,,,,,,,,,,,,,,,,,,,,,,,144.26676270004828,144.28502030001255,144.28502030001255,144.28502030001255,147.2613898999989,shoe,j,2.0031495000002906,0.10340299998642877,147.26143600000069,147.2614476000308,None,,,,,,,,,,,,,,,00060,001,2026-01-19_17h07.13.071,MST_task,2024.2.0,59.839140416950706,2026-01-19 17h07.27.912896 +0530,
,Objects\276a.jpg,13,0,14,,,,,,,f,0.9075545000378042,0.16878309997264296,None,,,,,,14,0,13,147.2781998999999,,,,,,,,,,,,,,,,,,,,,,,147.26153050002176,147.2781998999999,147.763321800041,,,,,,,,,,,,,,,,,,,,,,,147.77826059999643,147.79663510003593,147.79663510003593,147.79663510003593,150.7737805999932,shoe,f,0.9075545000378042,0.16878309997264296,150.77382450003643,150.77383650001138,None,,,,,,,,,,,,,,,00060,001,2026-01-19_17h07.13.071,MST_task,2024.2.0,59.839140416950706,2026-01-19 17h07.27.912896 +0530,
,Objects\286a.jpg,14,0,15,,,,,,,None,,,j,0.6254535000189207,None,,,,15,0,14,150.7903722000192,,,,,,,,,,,,,,,,,,,,,,,150.77390490000835,150.7903722000192,151.27577700000256,,,,,,,,,,,,,,,,,,,,,,,151.2900254999986,151.30883200000972,151.30883200000972,151.30883200000972,154.2859826000058,indoor,None,,,154.287271600042,154.938962300017,j,154.30280340003083,154.30280340003083,0.6254535000189207,None,,,,,,,,,,,00060,001,2026-01-19_17h07.13.071,MST_task,2024.2.0,59.839140416950706,2026-01-19 17h07.27.912896 +0530,
,Objects\083a.jpg,15,0,16,,,,,,,f,1.3760855000000447,0.12648419995093718,None,,,,,,16,0,15,154.95507460000226,,,,,,,,,,,,,,,,,,,,,,,154.93905270000687,154.95507460000226,155.44018730003154,,,,,,,,,,,,,,,,,,,,,,,155.4548026000266,155.4734097000328,155.4734097000328,155.4734097000328,158.45056660001865,indoor,f,1.3760855000000447,0.12648419995093718,158.45061220001662,158.4506248999969,None,,,,,,,,,,,,,,,00060,001,2026-01-19_17h07.13.071,MST_task,2024.2.0,59.839140416950706,2026-01-19 17h07.27.912896 +0530,
,Objects\016a.jpg,16,0,17,,,,,,,f,1.094764599984046,0.11203540000133216,None,,,,,,17,0,16,158.46738099999493,,,,,,,,,,,,,,,,,,,,,,,158.45097619999433,158.46738099999493,158.95239500002936,,,,,,,,,,,,,,,,,,,,,,,158.96243880002294,158.9857200999977,158.9857200999977,158.9857200999977,161.96298720000777,indoor,f,1.094764599984046,0.11203540000133216,161.96303149999585,161.96304310002597,None,,,,,,,,,,,,,,,00060,001,2026-01-19_17h07.13.071,MST_task,2024.2.0,59.839140416950706,2026-01-19 17h07.27.912896 +0530,
,Objects\280a.jpg,17,0,18,,,,,,,f,0.7980921000125818,0.12860689999070019,None,,,,,,18,0,17,161.97968960000435,,,,,,,,,,,,,,,,,,,,,,,161.9631499000243,161.97968960000435,162.46479370002635,,,,,,,,,,,,,,,,,,,,,,,162.47623359999852,162.49812290002592,162.49812290002592,162.49812290002592,165.47533620003378,indoor,f,0.7980921000125818,0.12860689999070019,165.47552590002306,165.47553850000259,None,,,,,,,,,,,,,,,00060,001,2026-01-19_17h07.13.071,MST_task,2024.2.0,59.839140416950706,2026-01-19 17h07.27.912896 +0530,
,Objects\137a.jpg,18,0,19,,,,,,,j,2.5735756999929436,0.11354960000608116,None,,,,,,19,0,18,165.4918698000256,,,,,,,,,,,,,,,,,,,,,,,165.47560930001782,165.4918698000256,165.97706040000776,,,,,,,,,,,,,,,,,,,,,,,165.98668090003775,166.0103224000195,166.0103224000195,166.0103224000195,168.98751579999225,indoor,j,2.5735756999929436,0.11354960000608116,168.98756010003854,168.98757190001197,None,,,,,,,,,,,,,,,00060,001,2026-01-19_17h07.13.071,MST_task,2024.2.0,59.839140416950706,2026-01-19 17h07.27.912896 +0530,
,Objects\207a.jpg,19,0,20,,,,,,,f,1.101219600008335,0.1034862999804318,None,,,,,,20,0,19,169.00428019999526,,,,,,,,,,,,,,,,,,,,,,,168.98764210002264,169.00428019999526,169.48923950002063,,,,,,,,,,,,,,,,,,,,,,,169.50407540000742,169.52274780004518,169.52274780004518,169.52274780004518,172.49976370000513,indoor,f,1.101219600008335,0.1034862999804318,172.49980940000387,172.49982170003932,None,,,,,,,,,,,,,,,00060,001,2026-01-19_17h07.13.071,MST_task,2024.2.0,59.839140416950706,2026-01-19 17h07.27.912896 +0530,
,Objects\035a.jpg,20,0,21,,,,,,,f,1.7970865999814123,0.1436829000012949,None,,,,,,21,0,20,172.51658520003548,,,,,,,,,,,,,,,,,,,,,,,172.4998937000055,172.51658520003548,173.0015723000397,,,,,,,,,,,,,,,,,,,,,,,173.01823540002806,173.03504099999554,173.03504099999554,173.03504099999554,176.01218429999426,indoor,f,1.7970865999814123,0.1436829000012949,176.01272620004602,176.0127790000406,None,,,,,,,,,,,,,,,00060,001,2026-01-19_17h07.13.071,MST_task,2024.2.0,59.839140416950706,2026-01-19 17h07.27.912896 +0530,
,Objects\003a.jpg,21,0,22,,,,,,,j,2.172803199966438,0.08896229998208582,None,,,,,,22,0,21,176.0287761000218,,,,,,,,,,,,,,,,,,,,,,,176.0129138000193,176.0287761000218,176.51397369999904,,,,,,,,,,,,,,,,,,,,,,,176.52612870000303,176.5473265000037,176.5473265000037,176.5473265000037,179.5243596000364,shoe,j,2.172803199966438,0.08896229998208582,179.52584090002347,179.52586009999504,None,,,,,,,,,,,,,,,00060,001,2026-01-19_17h07.13.071,MST_task,2024.2.0,59.839140416950706,2026-01-19 17h07.27.912896 +0530,
,Objects\095a.jpg,22,0,23,,,,,,,f,1.4373399000032805,0.08686299994587898,None,,,,,,23,0,22,179.54130380001152,,,,,,,,,,,,,,,,,,,,,,,179.52634139999282,179.54130380001152,180.02631849999307,,,,,,,,,,,,,,,,,,,,,,,180.0364297000342,180.0596204000176,180.0596204000176,180.0596204000176,183.03706140001304,shoe,f,1.4373399000032805,0.08686299994587898,183.03710560000036,183.03711880004266,None,,,,,180.0596204000176,,,,,,,,,,00060,001,2026-01-19_17h07.13.071,MST_task,2024.2.0,59.839140416950706,2026-01-19 17h07.27.912896 +0530,
,Objects\027a.jpg,23,0,24,,,,,,,f,0.8036286000278778,0.11327649996383116,None,,,,,,24,0,23,183.05369250004878,,,,,,,,,,,,,,,,,,,,,,,183.03722330002347,183.05369250004878,183.538525400043,,,,,,,,,,,,,,,,,,,,,,,183.54895450000186,183.5719363000244,183.5719363000244,183.5719363000244,186.5490977000445,shoe,f,0.8036286000278778,0.11327649996383116,186.5493975999998,186.5494095000322,None,,,,,,,,,,,,,,,00060,001,2026-01-19_17h07.13.071,MST_task,2024.2.0,59.839140416950706,2026-01-19 17h07.27.912896 +0530,
,Objects\091a.jpg,24,0,25,,,,,,,j,1.1716143999947235,0.10484730004100129,None,,,,,,25,0,24,186.56568150001112,,,,,,,,,,,,,,,,,,,,,,,186.54947760002688,186.56568150001112,187.050913700019,,,,,,,,,,,,,,,,,,,,,,,187.06037060002564,187.0841158000403,187.0841158000403,187.0841158000403,190.06205639999826,shoe,j,1.1716143999947235,0.10484730004100129,190.06214690004708,190.06216120003955,None,,,,,,,,,,,,,,,00060,001,2026-01-19_17h07.13.071,MST_task,2024.2.0,59.839140416950706,2026-01-19 17h07.27.912896 +0530,
,Objects\106a.jpg,25,0,26,,,,,,,f,1.1881901000160724,0.1029518999857828,None,,,,,,26,0,25,190.07797790004406,,,,,,,,,,,,,,,,,,,,,,,190.06229010003153,190.07797790004406,190.5632912000292,,,,,,,,,,,,,,,,,,,,,,,190.57259880000493,190.59642230003374,190.59642230003374,190.59642230003374,193.5735642000218,shoe,f,1.1881901000160724,0.1029518999857828,193.57360619999235,193.57361760002095,None,,,,,,,,,,,,,,,00060,001,2026-01-19_17h07.13.071,MST_task,2024.2.0,59.839140416950706,2026-01-19 17h07.27.912896 +0530,
,Objects\089a.jpg,26,0,27,,,,,,,j,1.138536499987822,0.12838529999135062,None,,,,,,27,0,26,193.59040800004732,,,,,,,,,,,,,,,,,,,,,,,193.57372139999643,193.59040800004732,194.07535180001287,,,,,,,,,,,,,,,,,,,,,,,194.0867625999963,194.10932520002825,194.10932520002825,194.10932520002825,197.08611209999071,shoe,j,1.138536499987822,0.12838529999135062,197.0861561000347,197.08616740000434,None,,,,,,,,,,,,,,,00060,001,2026-01-19_17h07.13.071,MST_task,2024.2.0,59.839140416950706,2026-01-19 17h07.27.912896 +0530,
,Objects\327a.jpg,27,0,28,,,,,,,j,1.8429028000100516,0.09552519995486364,None,,,,,,28,0,27,197.10271530004684,,,,,,,,,,,,,,,,,,,,,,,197.08627269999124,197.10271530004684,197.58781280001858,,,,,,,,,,,,,,,,,,,,,,,197.6048262999975,197.62101810000604,197.62101810000604,197.62101810000604,200.59821480000392,shoe,j,1.8429028000100516,0.09552519995486364,200.59826900000917,200.59828090004157,None,,,,,,,,,,,,,,,00060,001,2026-01-19_17h07.13.071,MST_task,2024.2.0,59.839140416950706,2026-01-19 17h07.27.912896 +0530,
,Objects\373a.jpg,28,0,29,,,,,,,j,0.9391024999786168,0.11169549997430295,None,,,,,,29,0,28,200.61500829999568,,,,,,,,,,,,,,,,,,,,,,,200.5983543000184,200.61500829999568,201.09999090002384,,,,,,,,,,,,,,,,,,,,,,,201.1143599000061,201.1334342000191,201.1334342000191,201.1334342000191,204.11058830004185,indoor,j,0.9391024999786168,0.11169549997430295,204.11241880001035,204.11243949999334,None,,,,,,,,,,,,,,,00060,001,2026-01-19_17h07.13.071,MST_task,2024.2.0,59.839140416950706,2026-01-19 17h07.27.912896 +0530,
,Objects\215a.jpg,29,0,30,,,,,,,None,,,f,0.4230579000432044,None,,,,30,0,29,204.1271689000423,,,,,,,,,,,,,,,,,,,,,,,204.11251350003295,204.1271689000423,204.6132383000222,,,,,,,,,,,,,,,,,,,,,,,204.6285011,204.6456138000358,204.6456138000358,204.6456138000358,207.62370980001288,indoor,None,,,207.62375930004055,208.0750748999999,f,207.64050820004195,207.64050820004195,0.4230579000432044,None,204.6456138000358,,,,,,,,,,00060,001,2026-01-19_17h07.13.071,MST_task,2024.2.0,59.839140416950706,2026-01-19 17h07.27.912896 +0530,
,Objects\293a.jpg,30,0,31,,,,,,,f,2.1822168999933638,0.12144730001455173,None,,,,,,31,0,30,208.0918556000106,,,,,,,,,,,,,,,,,,,,,,,208.07517820002977,208.0918556000106,208.57631770003354,,,,,,,,,,,,,,,,,,,,,,,208.5889856000431,208.60979060002137,208.60979060002137,208.60979060002137,211.58689410000807,indoor,f,2.1822168999933638,0.12144730001455173,211.58707970002433,211.58709190000081,None,,,,,,,,,,,,,,,00060,001,2026-01-19_17h07.13.071,MST_task,2024.2.0,59.839140416950706,2026-01-19 17h07.27.912896 +0530,
,Objects\110a.jpg,31,0,32,,,,,,,j,1.7574297999963164,0.14562770002521574,None,,,,,,32,0,31,211.6034825000097,,,,,,,,,,,,,,,,,,,,,,,211.58716009999625,211.6034825000097,212.08857250004075,,,,,,,,,,,,,,,,,,,,,,,212.1028189000208,212.1223605000414,212.1223605000414,212.1223605000414,215.09895140002482,indoor,j,1.7574297999963164,0.14562770002521574,215.09899590001442,215.0990076000453,None,,,,,,,,,,,,,,,00060,001,2026-01-19_17h07.13.071,MST_task,2024.2.0,59.839140416950706,2026-01-19 17h07.27.912896 +0530,
,Objects\160a.jpg,32,0,33,,,,,,,f,1.6936888999771327,0.10437130002537742,None,,,,,,33,0,32,215.11577030003536,,,,,,,,,,,,,,,,,,,,,,,215.09907680004835,215.11577030003536,215.6008734999923,,,,,,,,,,,,,,,,,,,,,,,215.610410400026,215.6343905000249,215.6343905000249,215.6343905000249,218.6113638000097,indoor,f,1.6936888999771327,0.10437130002537742,218.61140759999398,218.6114192000241,None,,,,,,,,,,,,,,,00060,001,2026-01-19_17h07.13.071,MST_task,2024.2.0,59.839140416950706,2026-01-19 17h07.27.912896 +0530,
,Objects\131a.jpg,33,0,34,,,,,,,f,0.9980987000162713,0.09687030001077801,None,,,,,,34,0,33,218.6279671000084,,,,,,,,,,,,,,,,,,,,,,,218.61149000003934,218.6279671000084,219.11346560000675,,,,,,,,,,,,,,,,,,,,,,,219.123194600048,219.1464619000326,219.1464619000326,219.1464619000326,222.12367600004654,indoor,f,0.9980987000162713,0.09687030001077801,222.12406230001943,222.1240797000355,None,,,,,,,,,,,,,,,00060,001,2026-01-19_17h07.13.071,MST_task,2024.2.0,59.839140416950706,2026-01-19 17h07.27.912896 +0530,
,Objects\201a.jpg,34,0,35,,,,,,,f,1.0376796000055037,0.1114798000198789,None,,,,,,35,0,34,222.14033000002382,,,,,,,,,,,,,,,,,,,,,,,222.12414920004085,222.14033000002382,222.62534730002517,,,,,,,,,,,,,,,,,,,,,,,222.63920730003156,222.65883460000623,222.65883460000623,222.65883460000623,225.63597190001747,indoor,f,1.0376796000055037,0.1114798000198789,225.63601479999488,225.63602580002043,None,,,,,,,,,,,,,,,00060,001,2026-01-19_17h07.13.071,MST_task,2024.2.0,59.839140416950706,2026-01-19 17h07.27.912896 +0530,
,Objects\344a.jpg,35,0,36,,,,,,,j,1.6766255000256933,0.12019490002421662,None,,,,,,36,0,35,225.65267290000338,,,,,,,,,,,,,,,,,,,,,,,225.6360942000174,225.65267290000338,226.13763810001547,,,,,,,,,,,,,,,,,,,,,,,226.15282489999663,226.17111420002766,226.17111420002766,226.17111420002766,229.14826069999253,shoe,j,1.6766255000256933,0.12019490002421662,229.14986990002217,229.14988840004662,None,,,,,,,,,,,,,,,00060,001,2026-01-19_17h07.13.071,MST_task,2024.2.0,59.839140416950706,2026-01-19 17h07.27.912896 +0530,
,Objects\352a.jpg,36,0,37,,,,,,,f,1.9402640999760479,0.11281489999964833,None,,,,,,37,0,36,229.16485960001592,,,,,,,,,,,,,,,,,,,,,,,229.1499588000006,229.16485960001592,229.65007480001077,,,,,,,,,,,,,,,,,,,,,,,229.66340080002556,229.68330860004062,229.68330860004062,229.68330860004062,232.6604833000456,shoe,f,1.9402640999760479,0.11281489999964833,232.66052760003367,232.6605397000094,None,,,,,,,,,,,,,,,00060,001,2026-01-19_17h07.13.071,MST_task,2024.2.0,59.839140416950706,2026-01-19 17h07.27.912896 +0530,
,Objects\323a.jpg,37,0,38,,,,,,,f,1.5167413000017405,0.11961280001560226,None,,,,,,38,0,37,232.67941840004642,,,,,,,,,,,,,,,,,,,,,,,232.6606141999946,232.67941840004642,233.1622623000294,,,,,,,,,,,,,,,,,,,,,,,233.1784939999925,233.1957218000316,233.1957218000316,233.1957218000316,236.17288010002812,shoe,f,1.5167413000017405,0.11961280001560226,236.17320660001133,236.1732195999939,None,,,,,,,,,,,,,,,00060,001,2026-01-19_17h07.13.071,MST_task,2024.2.0,59.839140416950706,2026-01-19 17h07.27.912896 +0530,
,Objects\087a.jpg,38,0,39,,,,,,,j,0.908122299995739,0.16806130000622943,None,,,,,,39,0,38,236.1896179000032,,,,,,,,,,,,,,,,,,,,,,,236.17330399999628,236.1896179000032,236.67466920003062,,,,,,,,,,,,,,,,,,,,,,,236.69185629999265,236.70791230001487,236.70791230001487,236.70791230001487,239.68506059999345,shoe,j,0.908122299995739,0.16806130000622943,239.68510850000894,239.6851200000383,None,,,,,,,,,,,,,,,00060,001,2026-01-19_17h07.13.071,MST_task,2024.2.0,59.839140416950706,2026-01-19 17h07.27.912896 +0530,
,Objects\162a.jpg,39,0,40,,,,,,,f,1.8595288000069559,0.1362084000138566,None,,,,,,40,0,39,239.7018792000017,,,,,,,,,,,,,,,,,,,,,,,239.6852248000214,239.7018792000017,240.18677900003968,,,,,,,,,,,,,,,,,,,,,,,240.19847170001594,240.2203848999925,240.2203848999925,240.2203848999925,243.19745750003494,shoe,f,1.8595288000069559,0.1362084000138566,243.19751420000102,243.19752650003647,None,,,,,,,,,,,,,,,00060,001,2026-01-19_17h07.13.071,MST_task,2024.2.0,59.839140416950706,2026-01-19 17h07.27.912896 +0530,
,Objects\340a.jpg,40,0,41,,,,,,,f,1.5880808999645524,0.1431884000194259,None,,,,,,41,0,40,243.21406970004318,,,,,,,,,,,,,,,,,,,,,,,243.19759390002582,243.21406970004318,243.69930640002713,,,,,,,,,,,,,,,,,,,,,,,243.71300780004822,243.7325101000024,243.7325101000024,243.7325101000024,246.70981560001383,shoe,f,1.5880808999645524,0.1431884000194259,246.7100030000438,246.71001790004084,None,,,,,,,,,,,,,,,00060,001,2026-01-19_17h07.13.071,MST_task,2024.2.0,59.839140416950706,2026-01-19 17h07.27.912896 +0530,
,Objects\347a.jpg,41,0,42,,,,,,,f,2.4032099000178277,0.11216239997884259,None,,,,,,42,0,41,246.7264844000456,,,,,,,,,,,,,,,,,,,,,,,246.71009100001538,246.7264844000456,247.21144420001656,,,,,,,,,,,,,,,,,,,,,,,247.22599160001846,247.2450524000451,247.2450524000451,247.2450524000451,250.2220767000108,shoe,f,2.4032099000178277,0.11216239997884259,250.22228750004433,250.22230110003147,None,,,,,,,,,,,,,,,00060,001,2026-01-19_17h07.13.071,MST_task,2024.2.0,59.839140416950706,2026-01-19 17h07.27.912896 +0530,
,Objects\225a.jpg,42,0,43,,,,,,,f,0.6824549000011757,0.1044419000390917,None,,,,,,43,0,42,250.23865700000897,,,,,,,,,,,,,,,,,,,,,,,250.22237430000678,250.23865700000897,250.7238939999952,,,,,,,,,,,,,,,,,,,,,,,250.73481270001503,250.75752010004362,250.75752010004362,250.75752010004362,253.73442620004062,indoor,f,0.6824549000011757,0.1044419000390917,253.73567840002943,253.73569719999796,None,,,,,,,,,,,,,,,00060,001,2026-01-19_17h07.13.071,MST_task,2024.2.0,59.839140416950706,2026-01-19 17h07.27.912896 +0530,
,Objects\204a.jpg,43,0,44,,,,,,,j,1.1556034999666736,0.10289039998315275,None,,,,,,44,0,43,253.7512561000185,,,,,,,,,,,,,,,,,,,,,,,253.73576760001015,253.7512561000185,254.23606780002592,,,,,,,,,,,,,,,,,,,,,,,254.2451238000067,254.26968930003932,254.26968930003932,254.26968930003932,257.2468430000008,indoor,j,1.1556034999666736,0.10289039998315275,257.2468870000448,257.2468986000167,None,,,,,,,,,,,,,,,00060,001,2026-01-19_17h07.13.071,MST_task,2024.2.0,59.839140416950706,2026-01-19 17h07.27.912896 +0530,
,Objects\021a.jpg,44,0,45,,,,,,,f,1.4181629999657162,0.11233800003537908,None,,,,,,45,0,44,257.26343789999373,,,,,,,,,,,,,,,,,,,,,,,257.246969800035,257.26343789999373,257.74864340003114,,,,,,,,,,,,,,,,,,,,,,,257.75837870000396,257.7818784000119,257.7818784000119,257.7818784000119,260.7589818999986,indoor,f,1.4181629999657162,0.11233800003537908,260.7590267000487,260.75903820001986,None,,,,,,,,,,,,,,,00060,001,2026-01-19_17h07.13.071,MST_task,2024.2.0,59.839140416950706,2026-01-19 17h07.27.912896 +0530,
,Objects\303a.jpg,45,0,46,,,,,,,j,2.081293800030835,0.09597439999924973,None,,,,,,46,0,45,260.77566060004756,,,,,,,,,,,,,,,,,,,,,,,260.75910830002977,260.77566060004756,261.2609311999986,,,,,,,,,,,,,,,,,,,,,,,261.27952000004007,261.29482680000365,261.29482680000365,261.29482680000365,264.2712265000446,indoor,j,2.081293800030835,0.09597439999924973,264.27127339999424,264.2712852000259,None,,,,,,,,,,,,,,,00060,001,2026-01-19_17h07.13.071,MST_task,2024.2.0,59.839140416950706,2026-01-19 17h07.27.912896 +0530,
,Objects\382a.jpg,46,0,47,,,,,,,None,,,f,0.2637247000238858,None,,,,47,0,46,264.2879945000168,,,,,,,,,,,,,,,,,,,,,,,264.27162350004073,264.2879945000168,264.7729620000464,,,,,,,,,,,,,,,,,,,,,,,264.788806400029,264.80707949999487,264.80707949999487,264.80707949999487,267.7835768000223,indoor,None,,,267.7836169000366,268.0684722000151,f,267.8001520000398,267.8001520000398,0.2637247000238858,None,,,,,,,,,,,00060,001,2026-01-19_17h07.13.071,MST_task,2024.2.0,59.839140416950706,2026-01-19 17h07.27.912896 +0530,
,Objects\036a.jpg,47,0,48,,,,,,,f,2.275927100039553,0.08022909995634109,None,,,,,,48,0,47,268.0847611000063,,,,,,,,,,,,,,,,,,,,,,,268.06856240000343,268.0847611000063,268.56966090004425,,,,,,,,,,,,,,,,,,,,,,,268.58450560003985,268.60384430002887,268.60384430002887,268.60384430002887,271.5803824000177,indoor,f,2.275927100039553,0.08022909995634109,271.5804533000337,271.5804654000094,None,,,,,,,,,,,,,,,00060,001,2026-01-19_17h07.13.071,MST_task,2024.2.0,59.839140416950706,2026-01-19 17h07.27.912896 +0530,
,Objects\329a.jpg,48,0,49,,,,,,,j,1.3553528999909759,0.10393879999173805,None,,,,,,49,0,48,271.5968073999975,,,,,,,,,,,,,,,,,,,,,,,271.58053470001323,271.5968073999975,272.08199720003176,,,,,,,,,,,,,,,,,,,,,,,272.09606370003894,272.1166550000198,272.1166550000198,272.1166550000198,275.09277109999675,indoor,j,1.3553528999909759,0.10393879999173805,275.09281610004837,275.09282800002256,None,,,,,,,,,,,,,,,00060,001,2026-01-19_17h07.13.071,MST_task,2024.2.0,59.839140416950706,2026-01-19 17h07.27.912896 +0530,
,Objects\130a.jpg,49,0,50,,,,,,,j,1.9958556999918073,0.09639650001190603,None,,,,,,50,0,49,275.1092241000151,,,,,,,,,,,,,,,,,,,,,,,275.09294390003197,275.1092241000151,275.5942308999947,,,,,,,,,,,,,,,,,,,,,,,275.61101360002067,275.62765830004355,275.62765830004355,275.62765830004355,278.60469350003405,shoe,j,1.9958556999918073,0.09639650001190603,278.6067067999975,278.606725700025,None,,,,,,,,,,,,,,,00060,001,2026-01-19_17h07.13.071,MST_task,2024.2.0,59.839140416950706,2026-01-19 17h07.27.912896 +0530,
,Objects\187a.jpg,50,0,51,,,,,,,f,1.691947599989362,0.12044570001307875,None,,,,,,51,0,50,278.6215333000291,,,,,,,,,,,,,,,,,,,,,,,278.60679510002956,278.6215333000291,279.1069281999953,,,,,,,,,,,,,,,,,,,,,,,279.1162694999948,279.1399547000183,279.1399547000183,279.1399547000183,282.1172780000488,shoe,f,1.691947599989362,0.12044570001307875,282.11735499999486,282.1173816000228,None,,,,,279.1399547000183,,,,,,,,,,00060,001,2026-01-19_17h07.13.071,MST_task,2024.2.0,59.839140416950706,2026-01-19 17h07.27.912896 +0530,
,Objects\209a.jpg,51,0,52,,,,,,,f,1.779972699994687,0.10474839998641983,None,,,,,,52,0,51,282.13387419999344,,,,,,,,,,,,,,,,,,,,,,,282.1174929999979,282.13387419999344,282.6190938000218,,,,,,,,,,,,,,,,,,,,,,,282.63237070001196,282.6523080000188,282.6523080000188,282.6523080000188,285.62942850001855,shoe,f,1.779972699994687,0.10474839998641983,285.6294721000013,285.62948360003065,None,,,,,,,,,,,,,,,00060,001,2026-01-19_17h07.13.071,MST_task,2024.2.0,59.839140416950706,2026-01-19 17h07.27.912896 +0530,
,Objects\322a.jpg,52,0,53,,,,,,,f,0.8675813999725506,0.14437010005349293,None,,,,,,53,0,52,285.6461271000444,,,,,,,,,,,,,,,,,,,,,,,285.6295523000299,285.6461271000444,286.1311354000354,,,,,,,,,,,,,,,,,,,,,,,286.1461416000384,286.16455829999177,286.16455829999177,286.16455829999177,289.14173610002035,shoe,f,0.8675813999725506,0.14437010005349293,289.1418046000181,289.1418163999915,None,,,,,,,,,,,,,,,00060,001,2026-01-19_17h07.13.071,MST_task,2024.2.0,59.839140416950706,2026-01-19 17h07.27.912896 +0530,
,Objects\170a.jpg,53,0,54,,,,,,,f,2.515549900010228,0.12755450000986457,None,,,,,,54,0,53,289.15885730000446,,,,,,,,,,,,,,,,,,,,,,,289.1418868000037,289.15885730000446,289.64361389999976,,,,,,,,,,,,,,,,,,,,,,,289.6582512000459,289.67674260004424,289.67674260004424,289.67674260004424,292.65393369999947,shoe,f,2.515549900010228,0.12755450000986457,292.6539908000268,292.65400280000176,None,,,,,,,,,,,,,,,00060,001,2026-01-19_17h07.13.071,MST_task,2024.2.0,59.839140416950706,2026-01-19 17h07.27.912896 +0530,
,Objects\287a.jpg,54,0,55,,,,,,,None,,,f,0.41738589998567477,None,,,,55,0,54,292.6707089000265,,,,,,,,,,,,,,,,,,,,,,,292.6540764000383,292.6707089000265,293.1558345000376,,,,,,,,,,,,,,,,,,,,,,,293.17040270002326,293.1894314000383,293.1894314000383,293.1894314000383,296.1662811000133,shoe,None,,,296.16632160003064,296.6018580000382,f,296.1830111000454,296.1830111000454,0.41738589998567477,None,,,,,,,,,,,00060,001,2026-01-19_17h07.13.071,MST_task,2024.2.0,59.839140416950706,2026-01-19 17h07.27.912896 +0530,
,Objects\223a.jpg,55,0,56,,,,,,,j,0.7049241000204347,0.12716450000880286,None,,,,,,56,0,55,296.6180361000006,,,,,,,,,,,,,,,,,,,,,,,296.6019478000235,296.6180361000006,297.10294970002724,,,,,,,,,,,,,,,,,,,,,,,297.12023230001796,297.1363268000423,297.1363268000423,297.1363268000423,300.1134727000026,shoe,j,0.7049241000204347,0.12716450000880286,300.1135164000443,300.1135284000193,None,,,,,,,,,,,,,,,00060,001,2026-01-19_17h07.13.071,MST_task,2024.2.0,59.839140416950706,2026-01-19 17h07.27.912896 +0530,
,Objects\281a.jpg,56,0,57,,,,,,,j,1.6066923000034876,0.11211589997401461,None,,,,,,57,0,56,300.13006110000424,,,,,,,,,,,,,,,,,,,,,,,300.1136372000328,300.13006110000424,300.61589790001744,,,,,,,,,,,,,,,,,,,,,,,300.63306359999115,300.64927440002793,300.64927440002793,300.64927440002793,303.6256683000247,indoor,j,1.6066923000034876,0.11211589997401461,303.62728390004486,303.6273047000286,None,,,,,,,,,,,,,,,00060,001,2026-01-19_17h07.13.071,MST_task,2024.2.0,59.839140416950706,2026-01-19 17h07.27.912896 +0530,
,Objects\331a.jpg,57,0,58,,,,,,,None,,,f,0.5259668999933638,None,,,,58,0,57,303.6424726000405,,,,,,,,,,,,,,,,,,,,,,,303.627384899999,303.6424726000405,304.1276676999987,,,,,,,,,,,,,,,,,,,,,,,304.1421929000062,304.1609249000321,304.1609249000321,304.1609249000321,307.1380527000292,indoor,None,,,307.13809580000816,307.6905722999945,f,307.15465199999744,307.15465199999744,0.5259668999933638,None,,,,,,,,,,,00060,001,2026-01-19_17h07.13.071,MST_task,2024.2.0,59.839140416950706,2026-01-19 17h07.27.912896 +0530,
,Objects\054a.jpg,58,0,59,,,,,,,f,1.1184014999889769,0.16932029998861253,None,,,,,,59,0,58,307.7067102000001,,,,,,,,,,,,,,,,,,,,,,,307.69066720001865,307.7067102000001,308.1916657999973,,,,,,,,,,,,,,,,,,,,,,,308.20666710002115,308.22537689999444,308.22537689999444,308.22537689999444,311.2022983999923,indoor,f,1.1184014999889769,0.16932029998861253,311.20237790001556,311.2023931000149,None,,,,,,,,,,,,,,,00060,001,2026-01-19_17h07.13.071,MST_task,2024.2.0,59.839140416950706,2026-01-19 17h07.27.912896 +0530,
,Objects\145a.jpg,59,0,60,,,,,,,f,1.8228853999753483,0.16734659997746348,None,,,,,,60,0,59,311.2190082000452,,,,,,,,,,,,,,,,,,,,,,,311.202464800037,311.2190082000452,311.70401460002176,,,,,,,,,,,,,,,,,,,,,,,311.71374020003714,311.73744470003294,311.73744470003294,311.73744470003294,314.7145154000027,indoor,f,1.8228853999753483,0.16734659997746348,314.71457020001253,314.71458150004037,None,,,,,,,,,,,,,,,00060,001,2026-01-19_17h07.13.071,MST_task,2024.2.0,59.839140416950706,2026-01-19 17h07.27.912896 +0530,
,Objects\100a.jpg,60,0,61,,,,,,,j,1.99803780001821,0.1761926999897696,None,,,,,,61,0,60,314.73144510004204,,,,,,,,,,,,,,,,,,,,,,,314.7147979000001,314.73144510004204,315.2162707000389,,,,,,,,,,,,,,,,,,,,,,,315.2255486000213,315.2497482000035,315.2497482000035,315.2497482000035,318.22689430002356,indoor,j,1.99803780001821,0.1761926999897696,318.2269394000177,318.2269515999942,None,,,,,,,,,,,,,,,00060,001,2026-01-19_17h07.13.071,MST_task,2024.2.0,59.839140416950706,2026-01-19 17h07.27.912896 +0530,
,Objects\316a.jpg,61,0,62,,,,,,,f,2.4715225000400096,0.1821003999793902,None,,,,,,62,0,61,318.24348260002444,,,,,,,,,,,,,,,,,,,,,,,318.22702130000107,318.24348260002444,318.7286795999971,,,,,,,,,,,,,,,,,,,,,,,318.7424245000002,318.7619307000423,318.7619307000423,318.7619307000423,321.7392300000065,indoor,f,2.4715225000400096,0.1821003999793902,321.73928600002546,321.73929820000194,None,,,,,,,,,,,,,,,00060,001,2026-01-19_17h07.13.071,MST_task,2024.2.0,59.839140416950706,2026-01-19 17h07.27.912896 +0530,
,Objects\161a.jpg,62,0,63,,,,,,,j,2.2623890999821015,0.14359870000043884,None,,,,,,63,0,62,321.7559165999992,,,,,,,,,,,,,,,,,,,,,,,321.7396295000217,321.7559165999992,322.2408718999941,,,,,,,,,,,,,,,,,,,,,,,322.25600290001603,322.27435040002456,322.27435040002456,322.27435040002456,325.2514924000134,indoor,j,2.2623890999821015,0.14359870000043884,325.2515606000088,325.25157469999976,None,,,,,,,,,,,,,,,00060,001,2026-01-19_17h07.13.071,MST_task,2024.2.0,59.839140416950706,2026-01-19 17h07.27.912896 +0530,
,Objects\348a.jpg,63,0,64,,,,,,,f,2.741244899982121,0.13741740002296865,None,,,,,,64,0,63,325.2682374000433,,,,,,,,,,,,,,,,,,,,,,,325.2516499000485,325.2682374000433,325.75329349999083,,,,,,,,,,,,,,,,,,,,,,,325.768578600022,325.7865262000123,325.7865262000123,325.7865262000123,328.7636771000107,shoe,f,2.741244899982121,0.13741740002296865,328.76511730003403,328.7651370000094,None,,,,,,,,,,,,,,,00060,001,2026-01-19_17h07.13.071,MST_task,2024.2.0,59.839140416950706,2026-01-19 17h07.27.912896 +0530,
,Objects\126a.jpg,64,0,65,,,,,,,j,0.9253128000418656,0.20832299999892712,None,,,,,,65,0,64,328.78051020001294,,,,,,,,,,,,,,,,,,,,,,,328.76520630001323,328.78051020001294,329.26561270002276,,,,,,,,,,,,,,,,,,,,,,,329.28215899999486,329.2989562000148,329.2989562000148,329.2989562000148,332.27610200003255,shoe,j,0.9253128000418656,0.20832299999892712,332.2761482000351,332.27615970000625,None,,,,,,,,,,,,,,,00060,001,2026-01-19_17h07.13.071,MST_task,2024.2.0,59.839140416950706,2026-01-19 17h07.27.912896 +0530,
,Objects\107a.jpg,65,0,66,,,,,,,j,0.7652609000215307,0.1598408999852836,None,,,,,,66,0,65,332.2926999000483,,,,,,,,,,,,,,,,,,,,,,,332.27623090002453,332.2926999000483,332.7780316999997,,,,,,,,,,,,,,,,,,,,,,,332.78791210002964,332.8111312999972,332.8111312999972,332.8111312999972,335.7883109000395,shoe,j,0.7652609000215307,0.1598408999852836,335.7883678000071,335.7883805000456,None,,,,,,,,,,,,,,,00060,001,2026-01-19_17h07.13.071,MST_task,2024.2.0,59.839140416950706,2026-01-19 17h07.27.912896 +0530,
,Objects\004a.jpg,66,0,67,,,,,,,j,1.0526792999589816,0.13600470003439113,None,,,,,,67,0,66,335.8051007000031,,,,,,,,,,,,,,,,,,,,,,,335.788764900004,335.8051007000031,336.2902381000458,,,,,,,,,,,,,,,,,,,,,,,336.29963240004145,336.32354280003347,336.32354280003347,336.32354280003347,339.30084090004675,shoe,j,1.0526792999589816,0.13600470003439113,339.30088620004244,339.30089810001664,None,,,,,,,,,,,,,,,00060,001,2026-01-19_17h07.13.071,MST_task,2024.2.0,59.839140416950706,2026-01-19 17h07.27.912896 +0530,
,Objects\002a.jpg,67,0,68,,,,,,,f,0.8525539000402205,0.16734879999421537,None,,,,,,68,0,67,339.3172992000473,,,,,,,,,,,,,,,,,,,,,,,339.3009730000049,339.3172992000473,339.80268480000086,,,,,,,,,,,,,,,,,,,,,,,339.81208180001704,339.835748100013,339.835748100013,339.835748100013,342.81336120003834,shoe,f,0.8525539000402205,0.16734879999421537,342.8134113000124,342.8134236000478,None,,,,,,,,,,,,,,,00060,001,2026-01-19_17h07.13.071,MST_task,2024.2.0,59.839140416950706,2026-01-19 17h07.27.912896 +0530,
,Objects\136a.jpg,68,0,69,,,,,,,f,0.9561136999982409,0.1836285999743268,None,,,,,,69,0,68,342.8297190000303,,,,,,,,,,,,,,,,,,,,,,,342.8138139999937,342.8297190000303,343.3147175000049,,,,,,,,,,,,,,,,,,,,,,,343.3245132000302,343.3481518000481,343.3481518000481,343.3481518000481,346.3251794000389,shoe,f,0.9561136999982409,0.1836285999743268,346.32523930002935,346.3252633000375,None,,,,,,,,,,,,,,,00060,001,2026-01-19_17h07.13.071,MST_task,2024.2.0,59.839140416950706,2026-01-19 17h07.27.912896 +0530,
,Objects\304a.jpg,69,0,70,,,,,,,f,1.4753182000131346,0.17633230000501499,None,,,,,,70,0,69,346.3420189000317,,,,,,,,,,,,,,,,,,,,,,,346.32552110002143,346.3420189000317,346.82698100002017,,,,,,,,,,,,,,,,,,,,,,,346.8432184000267,346.8604448999977,346.8604448999977,346.8604448999977,349.83759010001086,shoe,f,1.4753182000131346,0.17633230000501499,349.83779660001164,349.83780880004633,None,,,,,,,,,,,,,,,00060,001,2026-01-19_17h07.13.071,MST_task,2024.2.0,59.839140416950706,2026-01-19 17h07.27.912896 +0530,
,Objects\372a.jpg,70,0,71,,,,,,,j,1.0922792999772355,0.1667501999763772,None,,,,,,71,0,70,349.85419179999735,,,,,,,,,,,,,,,,,,,,,,,349.83793420001166,349.85419179999735,350.3394005000009,,,,,,,,,,,,,,,,,,,,,,,350.3549577000085,350.3726308000041,350.3726308000041,350.3726308000041,353.35027290001744,indoor,j,1.0922792999772355,0.1667501999763772,353.35163869999815,353.3516582000302,None,,,,,,,,,,,,,,,00060,001,2026-01-19_17h07.13.071,MST_task,2024.2.0,59.839140416950706,2026-01-19 17h07.27.912896 +0530,
,Objects\371a.jpg,71,0,72,,,,,,,None,,,j,0.3770375999738462,None,,,,72,0,71,353.36677270004293,,,,,,,,,,,,,,,,,,,,,,,353.3517294000485,353.36677270004293,353.8523628000403,,,,,,,,,,,,,,,,,,,,,,,353.8661114000133,353.88504620001186,353.88504620001186,353.88504620001186,356.86250420002034,indoor,None,,,356.86254350002855,357.26448569999775,j,356.8787828999921,356.8787828999921,0.3770375999738462,None,,,,,,,,,,,00060,001,2026-01-19_17h07.13.071,MST_task,2024.2.0,59.839140416950706,2026-01-19 17h07.27.912896 +0530,
,Objects\008a.jpg,72,0,73,,,,,,,f,1.9371339000063017,0.1677050999714993,None,,,,,,73,0,72,357.28035420004744,,,,,,,,,,,,,,,,,,,,,,,357.2645780000021,357.28035420004744,357.76556560001336,,,,,,,,,,,,,,,,,,,,,,,357.782603700005,357.798626600008,357.798626600008,357.798626600008,360.77580060000764,indoor,f,1.9371339000063017,0.1677050999714993,360.7758595000487,360.7758734000381,None,,,,,,,,,,,,,,,00060,001,2026-01-19_17h07.13.071,MST_task,2024.2.0,59.839140416950706,2026-01-19 17h07.27.912896 +0530,
,Objects\026a.jpg,73,0,74,,,,,,,j,1.7290730000240728,0.151955499954056,None,,,,,,74,0,73,360.792745200044,,,,,,,,,,,,,,,,,,,,,,,360.77594180003507,360.792745200044,361.27756790001877,,,,,,,,,,,,,,,,,,,,,,,361.28698219999205,361.31106030003866,361.31106030003866,361.31106030003866,364.2882036000374,indoor,j,1.7290730000240728,0.151955499954056,364.2883661999949,364.2884222000139,None,,,,,,,,,,,,,,,00060,001,2026-01-19_17h07.13.071,MST_task,2024.2.0,59.839140416950706,2026-01-19 17h07.27.912896 +0530,
,Objects\059a.jpg,74,0,75,,,,,,,f,1.9769606000045314,0.17721919994801283,None,,,,,,75,0,74,364.30480800004443,,,,,,,,,,,,,,,,,,,,,,,364.2884988000151,364.30480800004443,364.79010690003633,,,,,,,,,,,,,,,,,,,,,,,364.79983760003233,364.82323390000965,364.82323390000965,364.82323390000965,367.8005243000225,indoor,f,1.9769606000045314,0.17721919994801283,367.800568000006,367.8005800000392,None,,,,,,,,,,,,,,,00060,001,2026-01-19_17h07.13.071,MST_task,2024.2.0,59.839140416950706,2026-01-19 17h07.27.912896 +0530,
,Objects\376a.jpg,75,0,76,,,,,,,j,2.0968141999910586,0.13498879998223856,None,,,,,,76,0,75,367.81737659999635,,,,,,,,,,,,,,,,,,,,,,,367.80066060001263,367.81737659999635,368.3022754000267,,,,,,,,,,,,,,,,,,,,,,,368.31198840000434,368.3357157999999,368.3357157999999,368.3357157999999,371.3128348000464,indoor,j,2.0968141999910586,0.13498879998223856,371.31287660001544,371.31288750004023,None,,,,,,,,,,,,,,,00060,001,2026-01-19_17h07.13.071,MST_task,2024.2.0,59.839140416950706,2026-01-19 17h07.27.912896 +0530,
,Objects\063a.jpg,76,0,77,,,,,,,f,0.8806716999970376,0.07952869997825474,None,,,,,,77,0,76,371.329524700006,,,,,,,,,,,,,,,,,,,,,,,371.3129553000326,371.329524700006,371.81517429999076,,,,,,,,,,,,,,,,,,,,,,,371.8243665000191,371.84784290002426,371.84784290002426,371.84784290002426,374.8251453000121,indoor,f,0.8806716999970376,0.07952869997825474,374.82520570000634,374.82521710003493,None,,,,,,,,,,,,,,,00060,001,2026-01-19_17h07.13.071,MST_task,2024.2.0,59.839140416950706,2026-01-19 17h07.27.912896 +0530,
,Objects\248a.jpg,77,0,78,,,,,,,f,2.0558576999465004,0.08729350002249703,None,,,,,,78,0,77,374.8418165000039,,,,,,,,,,,,,,,,,,,,,,,374.82528789999196,374.8418165000039,375.3267670000205,,,,,,,,,,,,,,,,,,,,,,,375.34520780004095,375.3605773000163,375.3605773000163,375.3605773000163,378.3373934000265,shoe,f,2.0558576999465004,0.08729350002249703,378.33904180000536,378.3390593000222,None,,,,,,,,,,,,,,,00060,001,2026-01-19_17h07.13.071,MST_task,2024.2.0,59.839140416950706,2026-01-19 17h07.27.912896 +0530,
,Objects\354a.jpg,78,0,79,,,,,,,None,,,f,0.4537343999836594,None,,,,79,0,78,378.35400660004234,,,,,,,,,,,,,,,,,,,,,,,378.3391294000321,378.35400660004234,378.8392240999965,,,,,,,,,,,,,,,,,,,,,,,378.85294220002834,378.8724295000429,378.8724295000429,378.8724295000429,381.84983620001003,shoe,None,,,381.8498914000229,382.3355569000123,f,381.8665516000474,381.8665516000474,0.4537343999836594,None,,,,,,,,,,,00060,001,2026-01-19_17h07.13.071,MST_task,2024.2.0,59.839140416950706,2026-01-19 17h07.27.912896 +0530,
,Objects\051a.jpg,79,0,80,,,,,,,f,1.2424038999597542,0.1998054999858141,None,,,,,,80,0,79,382.35162500001024,,,,,,,,,,,,,,,,,,,,,,,382.33569420001004,382.35162500001024,382.8365657000104,,,,,,,,,,,,,,,,,,,,,,,382.8513547000475,382.8698934999993,382.8698934999993,382.8698934999993,385.84731670003384,shoe,f,1.2424038999597542,0.1998054999858141,385.84735890000593,385.8473709000391,None,,,,,,,,,,,,,,,00060,001,2026-01-19_17h07.13.071,MST_task,2024.2.0,59.839140416950706,2026-01-19 17h07.27.912896 +0530,
,Objects\068a.jpg,80,0,81,,,,,,,j,2.178116900031455,0.1515091999899596,None,,,,,,81,0,80,385.8637849999941,,,,,,,,,,,,,,,,,,,,,,,385.84744109999156,385.8637849999941,386.3483088000212,,,,,,,,,,,,,,,,,,,,,,,386.3583701000316,386.3822412000154,386.3822412000154,386.3822412000154,389.35966900002677,shoe,j,2.178116900031455,0.1515091999899596,389.35971410002094,389.35972569999285,None,,,,,,,,,,,,,,,00060,001,2026-01-19_17h07.13.071,MST_task,2024.2.0,59.839140416950706,2026-01-19 17h07.27.912896 +0530,
,Objects\080a.jpg,81,0,82,,,,,,,f,0.761952199973166,0.12025590002303943,None,,,,,,82,0,81,389.37610700004734,,,,,,,,,,,,,,,,,,,,,,,389.3598011000431,389.37610700004734,389.8614632000099,,,,,,,,,,,,,,,,,,,,,,,389.8708265000023,389.894555100007,389.894555100007,389.894555100007,392.8716762000113,shoe,f,0.761952199973166,0.12025590002303943,392.8717188000446,392.8717305000173,None,,,,,,,,,,,,,,,00060,001,2026-01-19_17h07.13.071,MST_task,2024.2.0,59.839140416950706,2026-01-19 17h07.27.912896 +0530,
,Objects\005a.jpg,82,0,83,,,,,,,None,,,j,2.015133299981244,None,,,,83,0,82,392.8885182000231,,,,,,,,,,,,,,,,,,,,,,,392.8717998000211,392.8885182000231,393.3735142000369,,,,,,,,,,,,,,,,,,,,,,,393.38284140004544,393.40695470001083,393.40695470001083,393.40695470001083,396.38410339999245,shoe,None,,,396.3841423999984,398.4248096999945,j,396.4005288000335,396.4005288000335,2.015133299981244,None,,,,,,,,,,,00060,001,2026-01-19_17h07.13.071,MST_task,2024.2.0,59.839140416950706,2026-01-19 17h07.27.912896 +0530,
,Objects\243a.jpg,83,0,84,,,,,,,f,2.600210300006438,0.08793979999609292,None,,,,,,84,0,83,398.4411279000342,,,,,,,,,,,,,,,,,,,,,,,398.4249653000152,398.4411279000342,398.92652600002475,,,,,,,,,,,,,,,,,,,,,,,398.9423560000141,398.9597988000023,398.9597988000023,398.9597988000023,401.93704400002025,shoe,f,2.600210300006438,0.08793979999609292,401.9370985000278,401.93711100000655,None,,,,,,,,,,,,,,,00060,001,2026-01-19_17h07.13.071,MST_task,2024.2.0,59.839140416950706,2026-01-19 17h07.27.912896 +0530,
,Objects\292a.jpg,84,0,85,,,,,,,j,2.1598568999907,0.09518880001269281,None,,,,,,85,0,84,401.95371810003417,,,,,,,,,,,,,,,,,,,,,,,401.937181300018,401.95371810003417,402.43878550000954,,,,,,,,,,,,,,,,,,,,,,,402.45341130002635,402.4723127000034,402.4723127000034,402.4723127000034,405.44935810001334,indoor,j,2.1598568999907,0.09518880001269281,405.45062350004446,405.4506404999993,None,,,,,,,,,,,,,,,00060,001,2026-01-19_17h07.13.071,MST_task,2024.2.0,59.839140416950706,2026-01-19 17h07.27.912896 +0530,
,Objects\006a.jpg,85,0,86,,,,,,,None,,,j,0.621359399985522,None,,,,86,0,85,405.4659076000098,,,,,,,,,,,,,,,,,,,,,,,405.4507075000438,405.4659076000098,405.95109720004257,,,,,,,,,,,,,,,,,,,,,,,405.96596420003334,405.98439450003207,405.98439450003207,405.98439450003207,408.9615402999916,indoor,None,,,408.96158990002004,409.61435610003537,j,408.9783192000468,408.9783192000468,0.621359399985522,None,,,,,,,,,,,00060,001,2026-01-19_17h07.13.071,MST_task,2024.2.0,59.839140416950706,2026-01-19 17h07.27.912896 +0530,
,Objects\154a.jpg,86,0,87,,,,,,,f,1.691183999995701,0.12801050004782155,None,,,,,,87,0,86,409.63049000001047,,,,,,,,,,,,,,,,,,,,,,,409.6144453000161,409.63049000001047,410.1157704000361,,,,,,,,,,,,,,,,,,,,,,,410.1251951000304,410.14897730003577,410.14897730003577,410.14897730003577,413.1262768000015,indoor,f,1.691183999995701,0.12801050004782155,413.1263327000197,413.1263445999939,None,,,,,,,,,,,,,,,00060,001,2026-01-19_17h07.13.071,MST_task,2024.2.0,59.839140416950706,2026-01-19 17h07.27.912896 +0530,
,Objects\242a.jpg,87,0,88,,,,,,,f,2.1786059999722056,0.13617160002468154,None,,,,,,88,0,87,413.14289940003073,,,,,,,,,,,,,,,,,,,,,,,413.1264136999962,413.14289940003073,413.6279044999974,,,,,,,,,,,,,,,,,,,,,,,413.6376275999937,413.66139570000814,413.66139570000814,413.66139570000814,416.6391557000461,indoor,f,2.1786059999722056,0.13617160002468154,416.6392030999996,416.6392404999933,None,,,,,,,,,,,,,,,00060,001,2026-01-19_17h07.13.071,MST_task,2024.2.0,59.839140416950706,2026-01-19 17h07.27.912896 +0530,
,Objects\356a.jpg,88,0,89,,,,,,,j,2.490537600009702,0.07207270001526922,None,,,,,,89,0,88,416.6552394000464,,,,,,,,,,,,,,,,,,,,,,,416.63946189999115,416.6552394000464,417.1400030000368,,,,,,,,,,,,,,,,,,,,,,,417.1575562999933,417.1733490000479,417.1733490000479,417.1733490000479,420.15068860002793,indoor,j,2.490537600009702,0.07207270001526922,420.1507455999963,420.1507616000017,None,,,,,,,,,,,,,,,00060,001,2026-01-19_17h07.13.071,MST_task,2024.2.0,59.839140416950706,2026-01-19 17h07.27.912896 +0530,
,Objects\250a.jpg,89,0,90,,,,,,,j,2.4182888999930583,0.07198990002507344,None,,,,,,90,0,89,420.1672609000234,,,,,,,,,,,,,,,,,,,,,,,420.1508365999907,420.1672609000234,420.65229699999327,,,,,,,,,,,,,,,,,,,,,,,420.66728900000453,420.6855208000052,420.6855208000052,420.6855208000052,423.6626952000079,indoor,j,2.4182888999930583,0.07198990002507344,423.66277520003496,423.6627870000084,None,,,,,,,,,,,,,,,00060,001,2026-01-19_17h07.13.071,MST_task,2024.2.0,59.839140416950706,2026-01-19 17h07.27.912896 +0530,
,Objects\165a.jpg,90,0,91,,,,,,,f,1.0753059000126086,0.07881689997157082,None,,,,,,91,0,90,423.67950319999363,,,,,,,,,,,,,,,,,,,,,,,423.66313610004727,423.67950319999363,424.1646657999954,,,,,,,,,,,,,,,,,,,,,,,424.18077010003617,424.19794310000725,424.19794310000725,424.19794310000725,427.17509760003304,indoor,f,1.0753059000126086,0.07881689997157082,427.17514280002797,427.17515500000445,None,,,,,,,,,,,,,,,00060,001,2026-01-19_17h07.13.071,MST_task,2024.2.0,59.839140416950706,2026-01-19 17h07.27.912896 +0530,
,Objects\301a.jpg,91,0,92,,,,,,,j,1.6341784000396729,0.0885124999913387,None,,,,,,92,0,91,427.19168660003925,,,,,,,,,,,,,,,,,,,,,,,427.1752237000037,427.19168660003925,427.6768860000302,,,,,,,,,,,,,,,,,,,,,,,427.68788149999455,427.7102390000364,427.7102390000364,427.7102390000364,430.6873062000377,shoe,j,1.6341784000396729,0.0885124999913387,430.6888545000111,430.68887170002563,None,,,,,,,,,,,,,,,00060,001,2026-01-19_17h07.13.071,MST_task,2024.2.0,59.839140416950706,2026-01-19 17h07.27.912896 +0530,
,Objects\206a.jpg,92,0,93,,,,,,,j,0.841551800025627,0.07198539999080822,None,,,,,,93,0,92,430.70419260003837,,,,,,,,,,,,,,,,,,,,,,,430.68894850002835,430.70419260003837,431.1890935000265,,,,,,,,,,,,,,,,,,,,,,,431.20255020004697,431.22254800004885,431.22254800004885,431.22254800004885,434.19969520001905,shoe,j,0.841551800025627,0.07198539999080822,434.1997390000033,434.19975080003496,None,,,,,,,,,,,,,,,00060,001,2026-01-19_17h07.13.071,MST_task,2024.2.0,59.839140416950706,2026-01-19 17h07.27.912896 +0530,
,Objects\339a.jpg,93,0,94,,,,,,,f,2.4812302000354975,0.08743359998334199,None,,,,,,94,0,93,434.2163348000031,,,,,,,,,,,,,,,,,,,,,,,434.1998193000327,434.2163348000031,434.7020339000155,,,,,,,,,,,,,,,,,,,,,,,434.71810490003554,434.734726900002,434.734726900002,434.734726900002,437.71186570002465,shoe,f,2.4812302000354975,0.08743359998334199,437.71191330003785,437.7119384999969,None,,,,,,,,,,,,,,,00060,001,2026-01-19_17h07.13.071,MST_task,2024.2.0,59.839140416950706,2026-01-19 17h07.27.912896 +0530,
,Objects\050a.jpg,94,0,95,,,,,,,j,1.7049976999987848,0.0720613999874331,None,,,,,,95,0,94,437.7287004000391,,,,,,,,,,,,,,,,,,,,,,,437.7120083000045,437.7287004000391,438.2136591000017,,,,,,,,,,,,,,,,,,,,,,,438.228599700029,438.24713989999145,438.24713989999145,438.24713989999145,441.2242925000028,shoe,j,1.7049976999987848,0.0720613999874331,441.2243451999966,441.22437360003823,None,,,,,,,,,,,,,,,00060,001,2026-01-19_17h07.13.071,MST_task,2024.2.0,59.839140416950706,2026-01-19 17h07.27.912896 +0530,
,Objects\211a.jpg,95,0,96,,,,,,,j,1.8411325000342913,0.15250670001842082,None,,,,,,96,0,95,441.24088880000636,,,,,,,,,,,,,,,,,,,,,,,441.22450780001236,441.24088880000636,441.7262042000075,,,,,,,,,,,,,,,,,,,,,,,441.7407917000237,441.75932980002835,441.75932980002835,441.75932980002835,444.73661340004764,shoe,j,1.8411325000342913,0.15250670001842082,444.7366575000342,444.73666900000535,None,,,,,,,,,,,,,,,00060,001,2026-01-19_17h07.13.071,MST_task,2024.2.0,59.839140416950706,2026-01-19 17h07.27.912896 +0530,
,Objects\378a.jpg,96,0,97,,,,,,,None,,,f,1.662392699974589,None,,,,97,0,96,444.7531857000431,,,,,,,,,,,,,,,,,,,,,,,444.73673810000764,444.7531857000431,445.2385239000432,,,,,,,,,,,,,,,,,,,,,,,445.254305200011,445.27169510000385,445.27169510000385,445.27169510000385,448.24936620000517,shoe,None,,,448.2494156000321,449.93867300002603,f,448.26582700002473,448.26582700002473,1.662392699974589,None,,,,,,,,,,,00060,001,2026-01-19_17h07.13.071,MST_task,2024.2.0,59.839140416950706,2026-01-19 17h07.27.912896 +0530,
,Objects\171a.jpg,97,0,98,,,,,,,j,0.6077165000024252,0.1275020000175573,None,,,,,,98,0,97,449.95473830000265,,,,,,,,,,,,,,,,,,,,,,,449.93876220000675,449.95473830000265,450.4401216999977,,,,,,,,,,,,,,,,,,,,,,,450.4504987000255,450.4731704000151,450.4731704000151,450.4731704000151,453.45044450002024,shoe,j,0.6077165000024252,0.1275020000175573,453.4508454000461,453.4508951000171,None,,,,,,,,,,,,,,,00060,001,2026-01-19_17h07.13.071,MST_task,2024.2.0,59.839140416950706,2026-01-19 17h07.27.912896 +0530,
,Objects\266a.jpg,98,0,99,,,,,,,j,2.0947136000031605,0.16733029996976256,None,,,,,,99,0,98,453.4670318000135,,,,,,,,,,,,,,,,,,,,,,,453.45118110004114,453.4670318000135,453.95253080001567,,,,,,,,,,,,,,,,,,,,,,,453.9691393999965,453.9854697000119,453.9854697000119,453.9854697000119,456.96276550000766,indoor,j,2.0947136000031605,0.16733029996976256,456.96434480004245,456.96436520002317,None,,,,,,,,,,,,,,,00060,001,2026-01-19_17h07.13.071,MST_task,2024.2.0,59.839140416950706,2026-01-19 17h07.27.912896 +0530,
,Objects\335a.jpg,99,0,100,,,,,,,None,,,j,0.052086299983784556,None,,,,100,0,99,456.9796788000385,,,,,,,,,,,,,,,,,,,,,,,456.9644360000384,456.9796788000385,457.46444100001827,,,,,,,,,,,,,,,,,,,,,,,457.47828909999225,457.49788919999264,457.49788919999264,457.49788919999264,460.47523800004274,indoor,None,,,460.4752770999912,460.5596106000012,j,460.49171780003235,460.49171780003235,0.052086299983784556,None,,,,,,,,,,,00060,001,2026-01-19_17h07.13.071,MST_task,2024.2.0,59.839140416950706,2026-01-19 17h07.27.912896 +0530,
,Objects\120a.jpg,100,0,101,,,,,,,f,2.6185856999945827,0.1431868000072427,None,,,,,,101,0,100,460.575384100026,,,,,,,,,,,,,,,,,,,,,,,460.5597009000485,460.575384100026,461.0603383000125,,,,,,,,,,,,,,,,,,,,,,,461.07546830002684,461.0939283000189,461.0939283000189,461.0939283000189,464.070981100027,indoor,f,2.6185856999945827,0.1431868000072427,464.0710266000242,464.0710381999961,None,,,,,,,,,,,,,,,00060,001,2026-01-19_17h07.13.071,MST_task,2024.2.0,59.839140416950706,2026-01-19 17h07.27.912896 +0530,
,Objects\270a.jpg,101,0,102,,,,,,,j,2.1701796000124887,0.11976949998643249,None,,,,,,102,0,101,464.0875403000391,,,,,,,,,,,,,,,,,,,,,,,464.07111080002505,464.0875403000391,464.572943200008,,,,,,,,,,,,,,,,,,,,,,,464.5859639000264,464.6059829000151,464.6059829000151,464.6059829000151,467.5831538999919,indoor,j,2.1701796000124887,0.11976949998643249,467.58319640002446,467.5832078999956,None,,,,,,,,,,,,,,,00060,001,2026-01-19_17h07.13.071,MST_task,2024.2.0,59.839140416950706,2026-01-19 17h07.27.912896 +0530,
,Objects\302a.jpg,102,0,103,,,,,,,f,0.9933334999950603,0.11227549996692687,None,,,,,,103,0,102,467.59996600000886,,,,,,,,,,,,,,,,,,,,,,,467.58355840004515,467.59996600000886,468.08494329999667,,,,,,,,,,,,,,,,,,,,,,,468.0993098000181,468.1184760000324,468.1184760000324,468.1184760000324,471.09541970002465,indoor,f,0.9933334999950603,0.11227549996692687,471.0954757000436,471.0954874000163,None,,,,,,,,,,,,,,,00060,001,2026-01-19_17h07.13.071,MST_task,2024.2.0,59.839140416950706,2026-01-19 17h07.27.912896 +0530,
,Objects\058a.jpg,103,0,104,,,,,,,None,,,j,1.047570700000506,None,,,,104,0,103,471.1122794999974,,,,,,,,,,,,,,,,,,,,,,,471.0955572000239,471.1122794999974,471.597224200028,,,,,,,,,,,,,,,,,,,,,,,471.6122713999939,471.63089010003023,471.63089010003023,471.63089010003023,474.60792390001006,indoor,None,,,474.6079642000259,475.67893580003874,j,474.62443450000137,474.62443450000137,1.047570700000506,None,,,,,,,,,,,00060,001,2026-01-19_17h07.13.071,MST_task,2024.2.0,59.839140416950706,2026-01-19 17h07.27.912896 +0530,
,Objects\224a.jpg,104,0,105,,,,,,,f,1.1709456000244245,0.10361250001005828,None,,,,,,105,0,104,475.6948764999979,,,,,,,,,,,,,,,,,,,,,,,475.6790324000176,475.6948764999979,476.18041100003757,,,,,,,,,,,,,,,,,,,,,,,476.1941408000421,476.21364930004347,476.21364930004347,476.21364930004347,479.19096939999145,indoor,f,1.1709456000244245,0.10361250001005828,479.1910290000378,479.1910417000181,None,,,,,,,,,,,,,,,00060,001,2026-01-19_17h07.13.071,MST_task,2024.2.0,59.839140416950706,2026-01-19 17h07.27.912896 +0530,
,Objects\045a.jpg,105,0,106,,,,,,,j,0.7866732999682426,0.08697790000587702,None,,,,,,106,0,105,479.20758560003014,,,,,,,,,,,,,,,,,,,,,,,479.19111660000635,479.20758560003014,479.6925574000343,,,,,,,,,,,,,,,,,,,,,,,479.7124588000006,479.72605550003937,479.72605550003937,479.72605550003937,482.7036148000043,shoe,j,0.7866732999682426,0.08697790000587702,482.7050535000162,482.7050719000399,None,,,,,,,,,,,,,,,00060,001,2026-01-19_17h07.13.071,MST_task,2024.2.0,59.839140416950706,2026-01-19 17h07.27.912896 +0530,
,Objects\070a.jpg,106,0,107,,,,,,,f,1.8094569999957457,0.11999929999001324,None,,,,,,107,0,106,482.71992679999676,,,,,,,,,,,,,,,,,,,,,,,482.7051984000136,482.71992679999676,483.2051764000207,,,,,,,,,,,,,,,,,,,,,,,483.21666560001904,483.23836310004117,483.23836310004117,483.23836310004117,486.2153830000316,shoe,f,1.8094569999957457,0.11999929999001324,486.215448700008,486.2154620999936,None,,,,,483.23836310004117,,,,,,,,,,00060,001,2026-01-19_17h07.13.071,MST_task,2024.2.0,59.839140416950706,2026-01-19 17h07.27.912896 +0530,
,Objects\082a.jpg,107,0,108,,,,,,,j,1.3372069000033662,0.08807969995541498,None,,,,,,108,0,107,486.23218610003823,,,,,,,,,,,,,,,,,,,,,,,486.21553079999285,486.23218610003823,486.7171534000081,,,,,,,,,,,,,,,,,,,,,,,486.7274785999907,486.750668600027,486.750668600027,486.750668600027,489.72795930004213,shoe,j,1.3372069000033662,0.08807969995541498,489.7280055000447,489.72801750001963,None,,,,,,,,,,,,,,,00060,001,2026-01-19_17h07.13.071,MST_task,2024.2.0,59.839140416950706,2026-01-19 17h07.27.912896 +0530,
,Objects\178a.jpg,108,0,109,,,,,,,f,1.0987695999792777,0.12722299998858944,None,,,,,,109,0,108,489.74437180004315,,,,,,,,,,,,,,,,,,,,,,,489.7281245000195,489.74437180004315,490.22957369999494,,,,,,,,,,,,,,,,,,,,,,,490.2396660000086,490.2628386000288,490.2628386000288,490.2628386000288,493.2402882000315,shoe,f,1.0987695999792777,0.12722299998858944,493.2403479000204,493.240846300032,None,,,,,,,,,,,,,,,00060,001,2026-01-19_17h07.13.071,MST_task,2024.2.0,59.839140416950706,2026-01-19 17h07.27.912896 +0530,
,Objects\330a.jpg,109,0,110,,,,,,,j,1.4729119999683462,0.09599170001456514,None,,,,,,110,0,109,493.2567786000436,,,,,,,,,,,,,,,,,,,,,,,493.24093329999596,493.2567786000436,493.7422749000252,,,,,,,,,,,,,,,,,,,,,,,493.75909820001107,493.77526500000386,493.77526500000386,493.77526500000386,496.752439200005,shoe,j,1.4729119999683462,0.09599170001456514,496.7524802000262,496.7524917999981,None,,,,,,,,,,,,,,,00060,001,2026-01-19_17h07.13.071,MST_task,2024.2.0,59.839140416950706,2026-01-19 17h07.27.912896 +0530,
,Objects\375a.jpg,110,0,111,,,,,,,f,1.7285572999971919,0.08743800001684576,None,,,,,,111,0,110,496.7690790000488,,,,,,,,,,,,,,,,,,,,,,,496.7525598999928,496.7690790000488,497.2544407999958,,,,,,,,,,,,,,,,,,,,,,,497.27035800000886,497.2874353000079,497.2874353000079,497.2874353000079,500.26459259999683,shoe,f,1.7285572999971919,0.08743800001684576,500.26463580003474,500.26464790001046,None,,,,,,,,,,,,,,,00060,001,2026-01-19_17h07.13.071,MST_task,2024.2.0,59.839140416950706,2026-01-19 17h07.27.912896 +0530,
,Objects\118a.jpg,111,0,112,,,,,,,f,0.9608471000101417,0.14311279996763915,None,,,,,,112,0,111,500.28152100002626,,,,,,,,,,,,,,,,,,,,,,,500.26486660004593,500.28152100002626,500.76635160000296,,,,,,,,,,,,,,,,,,,,,,,500.78311610000674,500.79976359999273,500.79976359999273,500.79976359999273,503.7771921000094,shoe,f,0.9608471000101417,0.14311279996763915,503.7772483000299,503.77726130001247,None,,,,,,,,,,,,,,,00060,001,2026-01-19_17h07.13.071,MST_task,2024.2.0,59.839140416950706,2026-01-19 17h07.27.912896 +0530,
,Objects\124a.jpg,112,0,113,,,,,,,j,0.6319376999745145,0.12852220004424453,None,,,,,,113,0,112,503.79370189999463,,,,,,,,,,,,,,,,,,,,,,,503.7773409000365,503.79370189999463,504.27867660002084,,,,,,,,,,,,,,,,,,,,,,,504.28939480002737,504.3121727000107,504.3121727000107,504.3121727000107,507.28955660003703,indoor,j,0.6319376999745145,0.12852220004424453,507.2909514000057,507.29097329999786,None,,,,,,,,,,,,,,,00060,001,2026-01-19_17h07.13.071,MST_task,2024.2.0,59.839140416950706,2026-01-19 17h07.27.912896 +0530,
,Objects\222a.jpg,113,0,114,,,,,,,None,,,j,0.454458300024271,None,,,,114,0,113,507.3058724000002,,,,,,,,,,,,,,,,,,,,,,,507.2910488000489,507.3058724000002,507.79111540003214,,,,,,,,,,,,,,,,,,,,,,,507.80688320001354,507.8244193000137,507.8244193000137,507.8244193000137,510.8011360000237,indoor,None,,,510.8011742000235,511.286934200034,j,510.81788420001976,510.81788420001976,0.454458300024271,None,,,,,,,,,,,00060,001,2026-01-19_17h07.13.071,MST_task,2024.2.0,59.839140416950706,2026-01-19 17h07.27.912896 +0530,
,Objects\306a.jpg,114,0,115,,,,,,,f,0.7465070000034757,0.14418770000338554,None,,,,,,115,0,114,511.30288200004725,,,,,,,,,,,,,,,,,,,,,,,511.2870238000178,511.30288200004725,511.7885740000056,,,,,,,,,,,,,,,,,,,,,,,511.8033185999957,511.821427100047,511.821427100047,511.821427100047,514.7987031000084,indoor,f,0.7465070000034757,0.14418770000338554,514.7987657000194,514.7987801000127,None,,,,,,,,,,,,,,,00060,001,2026-01-19_17h07.13.071,MST_task,2024.2.0,59.839140416950706,2026-01-19 17h07.27.912896 +0530,
,Objects\146a.jpg,115,0,116,,,,,,,None,,,j,0.20085399999516085,None,,,,116,0,115,514.8153193000471,,,,,,,,,,,,,,,,,,,,,,,514.7991178000229,514.8153193000471,515.3004617000115,,,,,,,,,,,,,,,,,,,,,,,515.3151269000373,515.3338869000436,515.3338869000436,515.3338869000436,518.3108875000034,indoor,None,,,518.3109253000002,518.5454447999946,j,518.3276179000386,518.3276179000386,0.20085399999516085,None,,,,,,,,,,,00060,001,2026-01-19_17h07.13.071,MST_task,2024.2.0,59.839140416950706,2026-01-19 17h07.27.912896 +0530,
,Objects\152a.jpg,116,0,117,,,,,,,j,1.855626399978064,0.08054739999352023,None,,,,,,117,0,116,518.561640000029,,,,,,,,,,,,,,,,,,,,,,,518.5455398000195,518.561640000029,519.0468648000387,,,,,,,,,,,,,,,,,,,,,,,519.0567525000079,519.0800890999963,519.0800890999963,519.0800890999963,522.0573417000123,indoor,j,1.855626399978064,0.08054739999352023,522.0575419000234,522.0575668000383,None,,,,,,,,,,,,,,,00060,001,2026-01-19_17h07.13.071,MST_task,2024.2.0,59.839140416950706,2026-01-19 17h07.27.912896 +0530,
,Objects\235a.jpg,117,0,118,,,,,,,f,1.3271428999723867,0.18418159999419004,None,,,,,,118,0,117,522.0739323000307,,,,,,,,,,,,,,,,,,,,,,,522.0576580000343,522.0739323000307,522.559161000012,,,,,,,,,,,,,,,,,,,,,,,522.5736253000214,522.5923759000143,522.5923759000143,522.5923759000143,525.5695446000318,indoor,f,1.3271428999723867,0.18418159999419004,525.5695894000237,525.5696016000002,None,,,,,,,,,,,,,,,00060,001,2026-01-19_17h07.13.071,MST_task,2024.2.0,59.839140416950706,2026-01-19 17h07.27.912896 +0530,
,Objects\284a.jpg,118,0,119,,,,,,,None,,,j,1.2046614999999292,None,,,,119,0,118,525.5863573999959,,,,,,,,,,,,,,,,,,,,,,,525.5697341000196,525.5863573999959,526.0713373000035,,,,,,,,,,,,,,,,,,,,,,,526.0853036000044,526.1048947999952,526.1048947999952,526.1048947999952,529.0819506000262,indoor,None,,,529.0819902000367,530.320246200019,j,529.098698900023,529.098698900023,1.2046614999999292,None,,,,,,,,,,,00060,001,2026-01-19_17h07.13.071,MST_task,2024.2.0,59.839140416950706,2026-01-19 17h07.27.912896 +0530,
,Objects\291a.jpg,119,0,120,,,,,,,f,2.089228999975603,0.0961714000441134,None,,,,,,120,0,119,530.3362025000388,,,,,,,,,,,,,,,,,,,,,,,530.3203633000376,530.3362025000388,530.8214244000264,,,,,,,,,,,,,,,,,,,,,,,530.8371477000182,530.8546420999919,530.8546420999919,530.8546420999919,533.8318412000081,shoe,f,2.089228999975603,0.0961714000441134,533.8345467000036,533.8345686999965,None,,,,,,,,,,,,,,,00060,001,2026-01-19_17h07.13.071,MST_task,2024.2.0,59.839140416950706,2026-01-19 17h07.27.912896 +0530,
,Objects\086a.jpg,120,0,121,,,,,,,j,0.9689266000059433,0.1040315999998711,None,,,,,,121,0,120,533.8487770000356,,,,,,,,,,,,,,,,,,,,,,,533.834651000041,533.8487770000356,534.3337688000174,,,,,,,,,,,,,,,,,,,,,,,534.3494572000345,534.3670688000275,534.3670688000275,534.3670688000275,537.344219200022,shoe,j,0.9689266000059433,0.1040315999998711,537.3442620999995,537.3442760000471,None,,,,,534.3670688000275,,,,,,,,,,00060,001,2026-01-19_17h07.13.071,MST_task,2024.2.0,59.839140416950706,2026-01-19 17h07.27.912896 +0530,
,Objects\079a.jpg,121,0,122,,,,,,,j,0.8808588999672793,0.09582430002046749,None,,,,,,122,0,121,537.3609246000415,,,,,,,,,,,,,,,,,,,,,,,537.3443928000052,537.3609246000415,537.8460199999972,,,,,,,,,,,,,,,,,,,,,,,537.8559040999971,537.8792518000118,537.8792518000118,537.8792518000118,540.8568212999962,shoe,j,0.8808588999672793,0.09582430002046749,540.856863300025,540.8568753,None,,,,,,,,,,,,,,,00060,001,2026-01-19_17h07.13.071,MST_task,2024.2.0,59.839140416950706,2026-01-19 17h07.27.912896 +0530,
,Objects\262a.jpg,122,0,123,,,,,,,f,1.128741699969396,0.17594420001842082,None,,,,,,123,0,122,540.8731038999977,,,,,,,,,,,,,,,,,,,,,,,540.8569935000269,540.8731038999977,541.3585367000196,,,,,,,,,,,,,,,,,,,,,,,541.3737764999969,541.3915392000345,541.3915392000345,541.3915392000345,544.3686947000097,shoe,f,1.128741699969396,0.17594420001842082,544.3687364000361,544.3687481000088,None,,,,,,,,,,,,,,,00060,001,2026-01-19_17h07.13.071,MST_task,2024.2.0,59.839140416950706,2026-01-19 17h07.27.912896 +0530,
,Objects\150a.jpg,123,0,124,,,,,,,j,1.5051609999500215,0.1191553000244312,None,,,,,,124,0,123,544.385537300026,,,,,,,,,,,,,,,,,,,,,,,544.3688533999957,544.385537300026,544.8705350999953,,,,,,,,,,,,,,,,,,,,,,,544.8865775000304,544.9039729000069,544.9039729000069,544.9039729000069,547.881096200028,shoe,j,1.5051609999500215,0.1191553000244312,547.8812853000127,547.8813119000406,None,,,,,,,,,,,,,,,00060,001,2026-01-19_17h07.13.071,MST_task,2024.2.0,59.839140416950706,2026-01-19 17h07.27.912896 +0530,
,Objects\173a.jpg,124,0,125,,,,,,,f,1.4717376000480726,0.15959890000522137,None,,,,,,125,0,124,547.8976990000228,,,,,,,,,,,,,,,,,,,,,,,547.8813841000083,547.8976990000228,548.383114300028,,,,,,,,,,,,,,,,,,,,,,,548.3930126000196,548.4161482999916,548.4161482999916,548.4161482999916,551.3932801000192,shoe,f,1.4717376000480726,0.15959890000522137,551.393322100048,551.3933342000237,None,,,,,,,,,,,,,,,00060,001,2026-01-19_17h07.13.071,MST_task,2024.2.0,59.839140416950706,2026-01-19 17h07.27.912896 +0530,
,Objects\259a.jpg,125,0,126,,,,,,,None,,,j,0.4451013000216335,None,,,,126,0,125,551.4101804000093,,,,,,,,,,,,,,,,,,,,,,,551.3934652000316,551.4101804000093,551.8950981000089,,,,,,,,,,,,,,,,,,,,,,,551.9126119000139,551.9285743000219,551.9285743000219,551.9285743000219,554.9059529000078,shoe,None,,,554.9059955000412,555.3751970000449,j,554.9225256000063,554.9225256000063,0.4451013000216335,None,,,,,,,,,,,00060,001,2026-01-19_17h07.13.071,MST_task,2024.2.0,59.839140416950706,2026-01-19 17h07.27.912896 +0530,
,Objects\279a.jpg,126,0,127,,,,,,,j,2.37038549996214,0.07196450000628829,None,,,,,,127,0,126,555.3911940000253,,,,,,,,,,,,,,,,,,,,,,,555.3752951000351,555.3911940000253,555.8759089999949,,,,,,,,,,,,,,,,,,,,,,,555.892828400014,555.9093028000207,555.9093028000207,555.9093028000207,558.8863072000095,indoor,j,2.37038549996214,0.07196450000628829,558.8884256000165,558.888444900047,None,,,,,,,,,,,,,,,00060,001,2026-01-19_17h07.13.071,MST_task,2024.2.0,59.839140416950706,2026-01-19 17h07.27.912896 +0530,
,Objects\288a.jpg,127,0,128,,,,,,,f,2.5940843999851495,0.12164670001948252,None,,,,,,128,0,127,558.9030215000384,,,,,,,,,,,,,,,,,,,,,,,558.8885167000117,558.9030215000384,559.3886220999993,,,,,,,,,,,,,,,,,,,,,,,559.4033162000123,559.421359000029,559.421359000029,559.421359000029,562.3985025000293,indoor,f,2.5940843999851495,0.12164670001948252,562.398545700009,562.3985591999954,None,,,,,559.421359000029,,,,,,,,,,00060,001,2026-01-19_17h07.13.071,MST_task,2024.2.0,59.839140416950706,2026-01-19 17h07.27.912896 +0530,
,Objects\104a.jpg,128,0,129,,,,,,,f,1.7068281999672763,0.03961620002519339,None,,,,,,129,0,128,562.4153231999953,,,,,,,,,,,,,,,,,,,,,,,562.3986644000397,562.4153231999953,562.9003018999938,,,,,,,,,,,,,,,,,,,,,,,562.9153149000485,562.9337710000109,562.9337710000109,562.9337710000109,565.9109065000084,indoor,f,1.7068281999672763,0.03961620002519339,565.9112119000056,565.9112246000441,None,,,,,,,,,,,,,,,00060,001,2026-01-19_17h07.13.071,MST_task,2024.2.0,59.839140416950706,2026-01-19 17h07.27.912896 +0530,
,Objects\024a.jpg,129,0,130,,,,,,,f,2.027106099994853,0.09500039997510612,None,,,,,,130,0,129,565.9275048000272,,,,,,,,,,,,,,,,,,,,,,,565.9112976000179,565.9275048000272,566.4130924000056,,,,,,,,,,,,,,,,,,,,,,,566.4229597999947,566.4459494000184,566.4459494000184,566.4459494000184,569.423112199991,indoor,f,2.027106099994853,0.09500039997510612,569.4231699000229,569.4231822000002,None,,,,,,,,,,,,,,,00060,001,2026-01-19_17h07.13.071,MST_task,2024.2.0,59.839140416950706,2026-01-19 17h07.27.912896 +0530,
,Objects\115a.jpg,130,0,131,,,,,,,f,1.2505767000257038,0.10235200001625344,None,,,,,,131,0,130,569.440207800013,,,,,,,,,,,,,,,,,,,,,,,569.4232531000162,569.440207800013,569.9248800000059,,,,,,,,,,,,,,,,,,,,,,,569.9344276000047,569.9584577000351,569.9584577000351,569.9584577000351,572.9355128000025,indoor,f,1.2505767000257038,0.10235200001625344,572.935554900032,572.9355671000085,None,,,,,,,,,,,,,,,00060,001,2026-01-19_17h07.13.071,MST_task,2024.2.0,59.839140416950706,2026-01-19 17h07.27.912896 +0530,
,Objects\345a.jpg,131,0,132,,,,,,,f,1.2653070000233129,0.09566420002374798,None,,,,,,132,0,131,572.9521103000152,,,,,,,,,,,,,,,,,,,,,,,572.9356360000093,572.9521103000152,573.4374817000353,,,,,,,,,,,,,,,,,,,,,,,573.4470650000148,573.4705569000216,573.4705569000216,573.4705569000216,576.4478083000286,indoor,f,1.2653070000233129,0.09566420002374798,576.4478691000259,576.4478812000016,None,,,,,,,,,,,,,,,00060,001,2026-01-19_17h07.13.071,MST_task,2024.2.0,59.839140416950706,2026-01-19 17h07.27.912896 +0530,
,Objects\195a.jpg,132,0,133,,,,,,,j,2.9135708000394516,None,None,,,,,,133,0,132,576.4646906999988,,,,,,,,,,,,,,,,,,,,,,,576.4479512000107,576.4646906999988,576.9502692000242,,,,,,,,,,,,,,,,,,,,,,,576.9638676000177,576.9831161000184,576.9831161000184,576.9831161000184,579.9603475000476,indoor,j,2.9135708000394516,None,579.9604033000069,579.9604146000347,None,,,,,,,,,,,,,,,00060,001,2026-01-19_17h07.13.071,MST_task,2024.2.0,59.839140416950706,2026-01-19 17h07.27.912896 +0530,
,Objects\153a.jpg,133,0,134,,,,,,,f,1.6241068000090308,0.12879160000011325,None,,,,,,134,0,133,579.9768727000337,,,,,,,,,,,,,,,,,,,,,,,579.9605294000357,579.9768727000337,580.4622780000209,,,,,,,,,,,,,,,,,,,,,,,580.4798379000276,580.4952684000018,580.4952684000018,580.4952684000018,583.4723811000003,shoe,f,1.6241068000090308,0.12879160000011325,583.4742190000252,583.4742369000451,None,,,,,,,,,,,,,,,00060,001,2026-01-19_17h07.13.071,MST_task,2024.2.0,59.839140416950706,2026-01-19 17h07.27.912896 +0530,
,Objects\295a.jpg,134,0,135,,,,,,,f,1.519859699998051,0.12877989996923134,None,,,,,,135,0,134,583.4891301000025,,,,,,,,,,,,,,,,,,,,,,,583.4743060000474,583.4891301000025,583.9746014000266,,,,,,,,,,,,,,,,,,,,,,,583.9890672000474,584.0075550000183,584.0075550000183,584.0075550000183,586.9852498000255,shoe,f,1.519859699998051,0.12877989996923134,586.985308000003,586.9853227999993,None,,,,,584.0075550000183,,,,,,,,,,00060,001,2026-01-19_17h07.13.071,MST_task,2024.2.0,59.839140416950706,2026-01-19 17h07.27.912896 +0530,
,Objects\241a.jpg,135,0,136,,,,,,,f,1.7685536000062712,0.11200309998821467,None,,,,,,136,0,135,587.0017859000363,,,,,,,,,,,,,,,,,,,,,,,586.9854548000148,587.0017859000363,587.486520400038,,,,,,,,,,,,,,,,,,,,,,,587.5013708000188,587.5197421000339,587.5197421000339,587.5197421000339,590.4968770000269,shoe,f,1.7685536000062712,0.11200309998821467,590.4969244000386,590.4969367000158,None,,,,,,,,,,,,,,,00060,001,2026-01-19_17h07.13.071,MST_task,2024.2.0,59.839140416950706,2026-01-19 17h07.27.912896 +0530,
,Objects\374a.jpg,136,0,137,,,,,,,f,1.2399653000175022,0.14392209996003658,None,,,,,,137,0,136,590.5138137000031,,,,,,,,,,,,,,,,,,,,,,,590.4970646000002,590.5138137000031,590.9986770999967,,,,,,,,,,,,,,,,,,,,,,,591.0153358000098,591.0321526000043,591.0321526000043,591.0321526000043,594.0091995000257,shoe,f,1.2399653000175022,0.14392209996003658,594.0092423000024,594.0092546000378,None,,,,,,,,,,,,,,,00060,001,2026-01-19_17h07.13.071,MST_task,2024.2.0,59.839140416950706,2026-01-19 17h07.27.912896 +0530,
,Objects\383a.jpg,137,0,138,,,,,,,None,,,j,1.5340387999895029,None,,,,138,0,137,594.0260334000341,,,,,,,,,,,,,,,,,,,,,,,594.0093620000407,594.0260334000341,594.5109919999959,,,,,,,,,,,,,,,,,,,,,,,594.5252107999986,594.544588000048,594.544588000048,594.544588000048,597.5216008000425,shoe,None,,,597.5217858999968,599.0776771000237,j,597.5381981999963,597.5381981999963,1.5340387999895029,None,,,,,,,,,,,00060,001,2026-01-19_17h07.13.071,MST_task,2024.2.0,59.839140416950706,2026-01-19 17h07.27.912896 +0530,
,Objects\321a.jpg,138,0,139,,,,,,,f,1.6118387000169605,0.11916379997273907,None,,,,,,139,0,138,599.093758700008,,,,,,,,,,,,,,,,,,,,,,,599.0777691000258,599.093758700008,599.5788087000255,,,,,,,,,,,,,,,,,,,,,,,599.59290410002,599.6123641000013,599.6123641000013,599.6123641000013,602.5893799000187,shoe,f,1.6118387000169605,0.11916379997273907,602.5894263000228,602.5894393000053,None,,,,,,,,,,,,,,,00060,001,2026-01-19_17h07.13.071,MST_task,2024.2.0,59.839140416950706,2026-01-19 17h07.27.912896 +0530,
,Objects\384a.jpg,139,0,140,,,,,,,f,2.1473824999993667,0.1204878999851644,None,,,,,,140,0,139,602.6059546000324,,,,,,,,,,,,,,,,,,,,,,,602.5895105000236,602.6059546000324,603.0911430999986,,,,,,,,,,,,,,,,,,,,,,,603.1082698000246,603.1243896000087,603.1243896000087,603.1243896000087,606.1015285000321,shoe,f,2.1473824999993667,0.1204878999851644,606.1016145000467,606.1016380999936,None,,,,,,,,,,,,,,,00060,001,2026-01-19_17h07.13.071,MST_task,2024.2.0,59.839140416950706,2026-01-19 17h07.27.912896 +0530,
,Objects\290a.jpg,140,0,141,,,,,,,j,0.6924666000413708,0.1262392999487929,None,,,,,,141,0,140,606.1184963000123,,,,,,,,,,,,,,,,,,,,,,,606.101712200034,606.1184963000123,606.6034876999911,,,,,,,,,,,,,,,,,,,,,,,606.619234700047,606.6368006000412,606.6368006000412,606.6368006000412,609.6140890000388,indoor,j,0.6924666000413708,0.1262392999487929,609.6153567000292,609.6153767000069,None,,,,,,,,,,,,,,,00060,001,2026-01-19_17h07.13.071,MST_task,2024.2.0,59.839140416950706,2026-01-19 17h07.27.912896 +0530,
,Objects\025a.jpg,141,0,142,,,,,,,j,1.107066600001417,0.07979720004368573,None,,,,,,142,0,141,609.630675500026,,,,,,,,,,,,,,,,,,,,,,,609.615448800032,609.630675500026,610.115760500019,,,,,,,,,,,,,,,,,,,,,,,610.1296121000196,610.1489846000331,610.1489846000331,610.1489846000331,613.1269025999936,indoor,j,1.107066600001417,0.07979720004368573,613.1269450000254,613.1269567999989,None,,,,,,,,,,,,,,,00060,001,2026-01-19_17h07.13.071,MST_task,2024.2.0,59.839140416950706,2026-01-19 17h07.27.912896 +0530,
,Objects\159a.jpg,142,0,143,,,,,,,f,1.4125468999845907,0.12683480000123382,None,,,,,,143,0,142,613.1431280000252,,,,,,,,,,,,,,,,,,,,,,,613.1270258000004,613.1431280000252,613.6281286000158,,,,,,,,,,,,,,,,,,,,,,,613.6388659999939,613.6616746000363,613.6616746000363,613.6616746000363,616.6387153000105,indoor,f,1.4125468999845907,0.12683480000123382,616.6387575000408,616.6387761000078,None,,,,,,,,,,,,,,,00060,001,2026-01-19_17h07.13.071,MST_task,2024.2.0,59.839140416950706,2026-01-19 17h07.27.912896 +0530,
,Objects\013a.jpg,143,0,144,,,,,,,j,0.8105438000056893,0.11222389998147264,None,,,,,,144,0,143,616.6553593000281,,,,,,,,,,,,,,,,,,,,,,,616.6388450000086,616.6553593000281,617.1405795000028,,,,,,,,,,,,,,,,,,,,,,,617.1498123999918,617.1735819000169,617.1735819000169,617.1735819000169,620.1507344000274,indoor,j,0.8105438000056893,0.11222389998147264,620.1508029000252,620.1508190000313,None,,,,,,,,,,,,,,,00060,001,2026-01-19_17h07.13.071,MST_task,2024.2.0,59.839140416950706,2026-01-19 17h07.27.912896 +0530,
,Objects\212a.jpg,144,0,145,,,,,,,None,,,j,0.6802588000427932,None,,,,145,0,144,620.1676845000475,,,,,,,,,,,,,,,,,,,,,,,620.1511563000386,620.1676845000475,620.6527136000223,,,,,,,,,,,,,,,,,,,,,,,620.6677631000057,620.6861670000362,620.6861670000362,620.6861670000362,623.6633147000102,indoor,None,,,623.6633732999908,624.366429799993,j,623.6798629999976,623.6798629999976,0.6802588000427932,None,,,,,,,,,,,00060,001,2026-01-19_17h07.13.071,MST_task,2024.2.0,59.839140416950706,2026-01-19 17h07.27.912896 +0530,
,Objects\333a.jpg,145,0,146,,,,,,,f,1.5629895000020042,0.11224839999340475,None,,,,,,146,0,145,624.3821931999992,,,,,,,,,,,,,,,,,,,,,,,624.366521100048,624.3821931999992,624.8674289000337,,,,,,,,,,,,,,,,,,,,,,,624.8821623999975,624.9007595000439,624.9007595000439,624.9007595000439,627.8777735000476,indoor,f,1.5629895000020042,0.11224839999340475,627.8778271999909,627.8778400000301,None,,,,,,,,,,,,,,,00060,001,2026-01-19_17h07.13.071,MST_task,2024.2.0,59.839140416950706,2026-01-19 17h07.27.912896 +0530,
,Objects\065a.jpg,146,0,147,,,,,,,None,,,j,0.016220000048633665,None,,,,147,0,146,627.8947542000096,,,,,,,,,,,,,,,,,,,,,,,627.8779083000263,627.8947542000096,628.3795957000111,,,,,,,,,,,,,,,,,,,,,,,628.3892085000407,628.4130650000297,628.4130650000297,628.4130650000297,631.3904394000419,indoor,None,,,631.3904791999958,631.4406981000211,j,631.4079772999976,631.4079772999976,0.016220000048633665,None,,,,,,,,,,,00060,001,2026-01-19_17h07.13.071,MST_task,2024.2.0,59.839140416950706,2026-01-19 17h07.27.912896 +0530,
,Objects\269a.jpg,147,0,148,,,,,,,f,2.3608893000055104,0.14414859999669716,None,,,,,,148,0,147,631.4571046000347,,,,,,,,,,,,,,,,,,,,,,,631.4407887000125,631.4571046000347,631.9421792000066,,,,,,,,,,,,,,,,,,,,,,,631.9590678000241,631.975537899998,631.975537899998,631.975537899998,634.9526760000153,shoe,f,2.3608893000055104,0.14414859999669716,634.9548684000038,634.9548886000412,None,,,,,,,,,,,,,,,00060,001,2026-01-19_17h07.13.071,MST_task,2024.2.0,59.839140416950706,2026-01-19 17h07.27.912896 +0530,
,Objects\341a.jpg,148,0,149,,,,,,,j,1.8249521999969147,0.11112159996991977,None,,,,,,149,0,148,634.9692732000258,,,,,,,,,,,,,,,,,,,,,,,634.954958300048,634.9692732000258,635.4548800000339,,,,,,,,,,,,,,,,,,,,,,,635.4702787999995,635.4878310000058,635.4878310000058,635.4878310000058,638.465028400009,shoe,j,1.8249521999969147,0.11112159996991977,638.4650717000477,638.465084800031,None,,,,,635.4878310000058,,,,,,,,,,00060,001,2026-01-19_17h07.13.071,MST_task,2024.2.0,59.839140416950706,2026-01-19 17h07.27.912896 +0530,
,Objects\158a.jpg,149,0,150,,,,,,,f,1.5825548999710009,0.11220309999771416,None,,,,,,150,0,149,638.4818615000113,,,,,,,,,,,,,,,,,,,,,,,638.4654601000366,638.4818615000113,638.9668427000288,,,,,,,,,,,,,,,,,,,,,,,638.9763568000053,639.0012175000156,639.0012175000156,639.0012175000156,641.9772817000048,shoe,f,1.5825548999710009,0.11220309999771416,641.9773242000374,641.9773363000131,None,,,,,,,,,,,,,,,00060,001,2026-01-19_17h07.13.071,MST_task,2024.2.0,59.839140416950706,2026-01-19 17h07.27.912896 +0530,
,Objects\217a.jpg,150,0,151,,,,,,,None,,,j,0.5016506999963894,None,,,,151,0,150,641.9938774000038,,,,,,,,,,,,,,,,,,,,,,,641.9774403999909,641.9938774000038,642.4792570000282,,,,,,,,,,,,,,,,,,,,,,,642.4940550000174,642.5123131000437,642.5123131000437,642.5123131000437,645.4896902000182,shoe,None,,,645.4901147999917,646.0086756999954,j,645.5061648000265,645.5061648000265,0.5016506999963894,None,,,,,,,,,,,00060,001,2026-01-19_17h07.13.071,MST_task,2024.2.0,59.839140416950706,2026-01-19 17h07.27.912896 +0530,
,Objects\155a.jpg,151,0,152,,,,,,,f,1.0417123999795876,0.1274902000441216,None,,,,,,152,0,151,646.0247763000079,,,,,,,,,,,,,,,,,,,,,,,646.0087612000061,646.0247763000079,646.5098021000158,,,,,,,,,,,,,,,,,,,,,,,646.5246244000155,646.5432050999952,646.5432050999952,646.5432050999952,649.5204386000405,shoe,f,1.0417123999795876,0.1274902000441216,649.5207510000328,649.5207642000169,None,,,,,,,,,,,,,,,00060,001,2026-01-19_17h07.13.071,MST_task,2024.2.0,59.839140416950706,2026-01-19 17h07.27.912896 +0530,
,Objects\307a.jpg,152,0,153,,,,,,,j,0.9444768000394106,0.10399479995248839,None,,,,,,153,0,152,649.5370029000333,,,,,,,,,,,,,,,,,,,,,,,649.5208725000266,649.5370029000333,650.0222345000366,,,,,,,,,,,,,,,,,,,,,,,650.0314603000297,650.0555176000344,650.0555176000344,650.0555176000344,653.0325249000452,shoe,j,0.9444768000394106,0.10399479995248839,653.0325811000075,653.0325929000392,None,,,,,,,,,,,,,,,00060,001,2026-01-19_17h07.13.071,MST_task,2024.2.0,59.839140416950706,2026-01-19 17h07.27.912896 +0530,
,Objects\296a.jpg,153,0,154,,,,,,,j,1.61653539998224,0.14429039997048676,None,,,,,,154,0,153,653.0495094000362,,,,,,,,,,,,,,,,,,,,,,,653.0326685000327,653.0495094000362,653.5343865000177,,,,,,,,,,,,,,,,,,,,,,,653.5488757000421,653.5677940000314,653.5677940000314,653.5677940000314,656.5449403999955,shoe,j,1.61653539998224,0.14429039997048676,656.5451308999909,656.5451439000317,None,,,,,,,,,,,,,,,00060,001,2026-01-19_17h07.13.071,MST_task,2024.2.0,59.839140416950706,2026-01-19 17h07.27.912896 +0530,
,Objects\088a.jpg,154,0,155,,,,,,,j,2.920203000016045,None,None,,,,,,155,0,154,656.5615524000023,,,,,,,,,,,,,,,,,,,,,,,656.5452148000477,656.5615524000023,657.0467836000025,,,,,,,,,,,,,,,,,,,,,,,657.0631675000186,657.0799977999995,657.0799977999995,657.0799977999995,660.0571323000477,indoor,j,2.920203000016045,None,660.0590457000071,660.05906400003,None,,,,,,,,,,,,,,,00060,001,2026-01-19_17h07.13.071,MST_task,2024.2.0,59.839140416950706,2026-01-19 17h07.27.912896 +0530,
,Objects\033a.jpg,155,0,156,,,,,,,f,2.111769499955699,0.11946429999079555,None,,,,,,156,0,155,660.0740931000328,,,,,,,,,,,,,,,,,,,,,,,660.0591331000323,660.0740931000328,660.5593954999931,,,,,,,,,,,,,,,,,,,,,,,660.5689166000229,660.5924140000134,660.5924140000134,660.5924140000134,663.5695091999951,indoor,f,2.111769499955699,0.11946429999079555,663.569552400033,663.5695664000232,None,,,,,660.5924140000134,,,,,,,,,,00060,001,2026-01-19_17h07.13.071,MST_task,2024.2.0,59.839140416950706,2026-01-19 17h07.27.912896 +0530,
,Objects\175a.jpg,156,0,157,,,,,,,j,0.9918081000214443,0.16064670000923797,None,,,,,,157,0,156,663.5862583999988,,,,,,,,,,,,,,,,,,,,,,,663.5696901000338,663.5862583999988,664.0717446000199,,,,,,,,,,,,,,,,,,,,,,,664.084179700003,664.1049296000274,664.1049296000274,664.1049296000274,667.0820041000261,indoor,j,0.9918081000214443,0.16064670000923797,667.0820486000157,667.0820604000473,None,,,,,,,,,,,,,,,00060,001,2026-01-19_17h07.13.071,MST_task,2024.2.0,59.839140416950706,2026-01-19 17h07.27.912896 +0530,
,Objects\247a.jpg,157,0,158,,,,,,,j,2.8795366000267677,None,None,,,,,,158,0,157,667.098942600016,,,,,,,,,,,,,,,,,,,,,,,667.0821302999975,667.098942600016,667.5839254000457,,,,,,,,,,,,,,,,,,,,,,,667.5984882000485,667.6170552000403,667.6170552000403,667.6170552000403,670.5940364000271,indoor,j,2.8795366000267677,None,670.5940781999961,670.5940907000331,None,,,,,,,,,,,,,,,00060,001,2026-01-19_17h07.13.071,MST_task,2024.2.0,59.839140416950706,2026-01-19 17h07.27.912896 +0530,
,Objects\231a.jpg,158,0,159,,,,,,,f,0.6870988999726251,0.11195829999633133,None,,,,,,159,0,158,670.6108960999991,,,,,,,,,,,,,,,,,,,,,,,670.5941569000133,670.6108960999991,671.0958294000011,,,,,,,,,,,,,,,,,,,,,,,671.110620899999,671.1292985000182,671.1292985000182,671.1292985000182,674.1065830000443,indoor,f,0.6870988999726251,0.11195829999633133,674.1066577000311,674.1066761999973,None,,,,,,,,,,,,,,,00060,001,2026-01-19_17h07.13.071,MST_task,2024.2.0,59.839140416950706,2026-01-19 17h07.27.912896 +0530,
,Objects\119a.jpg,159,0,160,,,,,,,f,2.4709237000206485,0.14330430002883077,None,,,,,,160,0,159,674.123042399995,,,,,,,,,,,,,,,,,,,,,,,674.1067573000328,674.123042399995,674.6087517000269,,,,,,,,,,,,,,,,,,,,,,,674.62485870003,674.6414759000181,674.6414759000181,674.6414759000181,677.6186791000073,indoor,f,2.4709237000206485,0.14330430002883077,677.6187351000262,677.6187471000012,None,,,,,,,,,,,,,,,00060,001,2026-01-19_17h07.13.071,MST_task,2024.2.0,59.839140416950706,2026-01-19 17h07.27.912896 +0530,
,Objects\278a.jpg,160,0,161,,,,,,,f,0.9026347000035457,0.15926139999646693,None,,,,,,161,0,160,677.6356054000207,,,,,,,,,,,,,,,,,,,,,,,677.6190808000392,677.6356054000207,678.1204345000442,,,,,,,,,,,,,,,,,,,,,,,678.1381692000432,678.1539032000001,678.1539032000001,678.1539032000001,681.1310450000456,indoor,f,0.9026347000035457,0.15926139999646693,681.1312426000368,681.1312565000262,None,,,,,,,,,,,,,,,00060,001,2026-01-19_17h07.13.071,MST_task,2024.2.0,59.839140416950706,2026-01-19 17h07.27.912896 +0530,
,Objects\366a.jpg,161,0,162,,,,,,,j,1.5030888000037521,0.166996999992989,None,,,,,,162,0,161,681.1476493999944,,,,,,,,,,,,,,,,,,,,,,,681.1313297000015,681.1476493999944,681.6328562000417,,,,,,,,,,,,,,,,,,,,,,,681.6495765,681.6660771000315,681.6660771000315,681.6660771000315,684.643489100039,shoe,j,1.5030888000037521,0.166996999992989,684.644961700018,684.6449802000425,None,,,,,,,,,,,,,,,00060,001,2026-01-19_17h07.13.071,MST_task,2024.2.0,59.839140416950706,2026-01-19 17h07.27.912896 +0530,
,Objects\071a.jpg,162,0,163,,,,,,,j,1.3976655000005849,0.1752078999998048,None,,,,,,163,0,162,684.6600913000293,,,,,,,,,,,,,,,,,,,,,,,684.645055400033,684.6600913000293,685.1451985000167,,,,,,,,,,,,,,,,,,,,,,,685.154846200021,685.1786779999966,685.1786779999966,685.1786779999966,688.1556428000331,shoe,j,1.3976655000005849,0.1752078999998048,688.1559435999952,688.1559572000406,None,,,,,,,,,,,,,,,00060,001,2026-01-19_17h07.13.071,MST_task,2024.2.0,59.839140416950706,2026-01-19 17h07.27.912896 +0530,
,Objects\326a.jpg,163,0,164,,,,,,,f,2.2468933999771252,0.11891969997668639,None,,,,,,164,0,163,688.1723573000054,,,,,,,,,,,,,,,,,,,,,,,688.1560831000097,688.1723573000054,688.6574718000484,,,,,,,,,,,,,,,,,,,,,,,688.6688091999968,688.690782300022,688.690782300022,688.690782300022,691.6678505000309,shoe,f,2.2468933999771252,0.11891969997668639,691.6678943000152,691.6679065999924,None,,,,,,,,,,,,,,,00060,001,2026-01-19_17h07.13.071,MST_task,2024.2.0,59.839140416950706,2026-01-19 17h07.27.912896 +0530,
,Objects\179a.jpg,164,0,165,,,,,,,f,1.2849478999851272,0.1356969000189565,None,,,,,,165,0,164,691.6847948000068,,,,,,,,,,,,,,,,,,,,,,,691.6682394000236,691.6847948000068,692.1696348999976,,,,,,,,,,,,,,,,,,,,,,,692.1792841000133,692.2031156000448,692.2031156000448,692.2031156000448,695.1802540000062,shoe,f,1.2849478999851272,0.1356969000189565,695.1805765000172,695.180589399999,None,,,,,,,,,,,,,,,00060,001,2026-01-19_17h07.13.071,MST_task,2024.2.0,59.839140416950706,2026-01-19 17h07.27.912896 +0530,
,Objects\129a.jpg,165,0,166,,,,,,,f,0.7644460999872535,0.08914890000596642,None,,,,,,166,0,165,695.1969116000109,,,,,,,,,,,,,,,,,,,,,,,695.1807013000362,695.1969116000109,695.6820721999975,,,,,,,,,,,,,,,,,,,,,,,695.691544500005,695.7152677000267,695.7152677000267,695.7152677000267,698.6925511000445,shoe,f,0.7644460999872535,0.08914890000596642,698.6929816000047,698.6929957999964,None,,,,,,,,,,,,,,,00060,001,2026-01-19_17h07.13.071,MST_task,2024.2.0,59.839140416950706,2026-01-19 17h07.27.912896 +0530,
,Objects\127a.jpg,166,0,167,,,,,,,None,,,f,2.7142164999968372,None,,,,167,0,166,698.7091484999983,,,,,,,,,,,,,,,,,,,,,,,698.693105000013,698.7091484999983,699.1943491999991,,,,,,,,,,,,,,,,,,,,,,,699.2035319000133,699.2275841000373,699.2275841000373,699.2275841000373,702.2047883000341,shoe,None,,,702.2048263000324,704.9486921000062,f,702.2216396000003,702.2216396000003,2.7142164999968372,None,,,,,,,,,,,00060,001,2026-01-19_17h07.13.071,MST_task,2024.2.0,59.839140416950706,2026-01-19 17h07.27.912896 +0530,
,Objects\117a.jpg,167,0,168,,,,,,,f,2.212139999959618,0.1520380000001751,None,,,,,,168,0,167,704.9648000000161,,,,,,,,,,,,,,,,,,,,,,,704.948784200009,704.9648000000161,705.4501696000225,,,,,,,,,,,,,,,,,,,,,,,705.4595028000185,705.4831630000263,705.4831630000263,705.4831630000263,708.4603179999976,shoe,f,2.212139999959618,0.1520380000001751,708.4603598000249,708.4604016999947,None,,,,,,,,,,,,,,,00060,001,2026-01-19_17h07.13.071,MST_task,2024.2.0,59.839140416950706,2026-01-19 17h07.27.912896 +0530,
,Objects\251a.jpg,168,0,169,,,,,,,f,1.652310799981933,0.1518818000331521,None,,,,,,169,0,168,708.4771031000419,,,,,,,,,,,,,,,,,,,,,,,708.460879500024,708.4771031000419,708.9621616000077,,,,,,,,,,,,,,,,,,,,,,,708.9765655000228,708.9955686000176,708.9955686000176,708.9955686000176,711.9727561000036,indoor,f,1.652310799981933,0.1518818000331521,711.9740845000488,711.9741038000211,None,,,,,,,,,,,,,,,00060,001,2026-01-19_17h07.13.071,MST_task,2024.2.0,59.839140416950706,2026-01-19 17h07.27.912896 +0530,
,Objects\355a.jpg,169,0,170,,,,,,,j,0.9159903000108898,0.12831150001147762,None,,,,,,170,0,169,711.9893281999975,,,,,,,,,,,,,,,,,,,,,,,711.9741728000226,711.9893281999975,712.4746549000265,,,,,,,,,,,,,,,,,,,,,,,712.4892341000377,712.5077492000419,712.5077492000419,712.5077492000419,715.4850213000318,indoor,j,0.9159903000108898,0.12831150001147762,715.4850635000039,715.485075500037,None,,,,,,,,,,,,,,,00060,001,2026-01-19_17h07.13.071,MST_task,2024.2.0,59.839140416950706,2026-01-19 17h07.27.912896 +0530,
,Objects\077a.jpg,170,0,171,,,,,,,j,0.6753118000342511,0.12005639995913953,None,,,,,,171,0,170,715.5015676000039,,,,,,,,,,,,,,,,,,,,,,,715.4851416000165,715.5015676000039,715.9868351000478,,,,,,,,,,,,,,,,,,,,,,,716.0022952000145,716.0200493000448,716.0200493000448,716.0200493000448,718.9974256000132,indoor,j,0.6753118000342511,0.12005639995913953,718.9974812000291,718.9974934000056,None,,,,,,,,,,,,,,,00060,001,2026-01-19_17h07.13.071,MST_task,2024.2.0,59.839140416950706,2026-01-19 17h07.27.912896 +0530,
,Objects\196a.jpg,171,0,172,,,,,,,f,1.9393742000102066,0.14361209998605773,None,,,,,,172,0,171,719.0140046000015,,,,,,,,,,,,,,,,,,,,,,,718.9975652000285,719.0140046000015,719.4989616000094,,,,,,,,,,,,,,,,,,,,,,,719.5099029000266,719.5324597000144,719.5324597000144,719.5324597000144,722.5093078000355,indoor,f,1.9393742000102066,0.14361209998605773,722.5093502000091,722.5093621000415,None,,,,,,,,,,,,,,,00060,001,2026-01-19_17h07.13.071,MST_task,2024.2.0,59.839140416950706,2026-01-19 17h07.27.912896 +0530,
,Objects\116a.jpg,172,0,173,,,,,,,j,1.4991010000230744,0.11220199998933822,None,,,,,,173,0,172,722.5260389000177,,,,,,,,,,,,,,,,,,,,,,,722.5094305000384,722.5260389000177,723.011066200037,,,,,,,,,,,,,,,,,,,,,,,723.0227982000215,723.0443037000368,723.0443037000368,723.0443037000368,726.0214593000128,indoor,j,1.4991010000230744,0.11220199998933822,726.0215009000385,726.0215413999977,None,,,,,,,,,,,,,,,00060,001,2026-01-19_17h07.13.071,MST_task,2024.2.0,59.839140416950706,2026-01-19 17h07.27.912896 +0530,
,Objects\144a.jpg,173,0,174,,,,,,,None,,,j,2.0892372999805957,None,,,,174,0,173,726.0382900999975,,,,,,,,,,,,,,,,,,,,,,,726.021624999994,726.0382900999975,726.5232586000348,,,,,,,,,,,,,,,,,,,,,,,726.5346523000044,726.5567231000168,726.5567231000168,726.5567231000168,729.5339078000397,indoor,None,,,729.5339452000335,731.6419597000349,j,729.5504558000248,729.5504558000248,2.0892372999805957,None,,,,,,,,,,,00060,001,2026-01-19_17h07.13.071,MST_task,2024.2.0,59.839140416950706,2026-01-19 17h07.27.912896 +0530,
,Objects\360a.jpg,174,0,175,,,,,,,f,1.503723000001628,0.16917230002582073,None,,,,,,175,0,174,731.6579733000253,,,,,,,,,,,,,,,,,,,,,,,731.6420482000103,731.6579733000253,732.143222600047,,,,,,,,,,,,,,,,,,,,,,,732.1575234000338,732.176420200034,732.176420200034,732.176420200034,735.1541527000372,indoor,f,1.503723000001628,0.16917230002582073,735.1542069000425,735.1542188000167,None,,,,,,,,,,,,,,,00060,001,2026-01-19_17h07.13.071,MST_task,2024.2.0,59.839140416950706,2026-01-19 17h07.27.912896 +0530,
,Objects\358a.jpg,175,0,176,,,,,,,j,1.7031208999687806,0.1358763999887742,None,,,,,,176,0,175,735.1701454000431,,,,,,,,,,,,,,,,,,,,,,,735.1542865000083,735.1701454000431,735.6554243999999,,,,,,,,,,,,,,,,,,,,,,,735.6723532000324,735.6885857000016,735.6885857000016,735.6885857000016,738.6658889999962,shoe,j,1.7031208999687806,0.1358763999887742,738.667273900006,738.667330700031,None,,,,,,,,,,,,,,,00060,001,2026-01-19_17h07.13.071,MST_task,2024.2.0,59.839140416950706,2026-01-19 17h07.27.912896 +0530,
,Objects\182a.jpg,176,0,177,,,,,,,None,,,f,2.3170057000243105,None,,,,177,0,176,738.682682899991,,,,,,,,,,,,,,,,,,,,,,,738.6674133000197,738.682682899991,739.1675518000266,,,,,,,,,,,,,,,,,,,,,,,739.1822920000413,739.2011330000241,739.2011330000241,739.2011330000241,742.1782115999958,shoe,None,,,742.1782519000117,744.5202703000396,f,742.194748000009,742.194748000009,2.3170057000243105,None,,,,,,,,,,,00060,001,2026-01-19_17h07.13.071,MST_task,2024.2.0,59.839140416950706,2026-01-19 17h07.27.912896 +0530,
,Objects\317a.jpg,177,0,178,,,,,,,j,1.5135297999950126,0.1755066000041552,None,,,,,,178,0,177,744.5362865999923,,,,,,,,,,,,,,,,,,,,,,,744.5203579000081,744.5362865999923,745.0216245000483,,,,,,,,,,,,,,,,,,,,,,,745.0312108999933,745.0547135000234,745.0547135000234,745.0547135000234,748.0320913000032,shoe,j,1.5135297999950126,0.1755066000041552,748.0322032000404,748.0322157000192,None,,,,,,,,,,,,,,,00060,001,2026-01-19_17h07.13.071,MST_task,2024.2.0,59.839140416950706,2026-01-19 17h07.27.912896 +0530,
,Objects\205a.jpg,178,0,179,,,,,,,j,1.5128683000220917,0.12773329997435212,None,,,,,,179,0,178,748.0487077000435,,,,,,,,,,,,,,,,,,,,,,,748.0323203000007,748.0487077000435,748.5336726999958,,,,,,,,,,,,,,,,,,,,,,,748.5482583999983,748.5671312999912,748.5671312999912,748.5671312999912,751.5441676999908,shoe,j,1.5128683000220917,0.12773329997435212,751.5442084000097,751.5442207000451,None,,,,,,,,,,,,,,,00060,001,2026-01-19_17h07.13.071,MST_task,2024.2.0,59.839140416950706,2026-01-19 17h07.27.912896 +0530,
,Objects\042a.jpg,179,0,180,,,,,,,None,,,j,0.4790847999975085,None,,,,180,0,179,751.5609904000303,,,,,,,,,,,,,,,,,,,,,,,751.5444601000054,751.5609904000303,752.0459639000474,,,,,,,,,,,,,,,,,,,,,,,752.0636653000256,752.0794455000432,752.0794455000432,752.0794455000432,755.0567415000405,shoe,None,,,755.0567801000434,755.5591751000029,j,755.0731578000123,755.0731578000123,0.4790847999975085,None,,,,,,,,,,,00060,001,2026-01-19_17h07.13.071,MST_task,2024.2.0,59.839140416950706,2026-01-19 17h07.27.912896 +0530,
