Sl_no,image_path,thisN,thisTrialN,thisRepN,key_resp_5.keys,key_resp_5.rt,key_resp_5.duration,key_resp_7.keys,key_resp_9.keys,key_resp_9.rt,key_resp_9.duration,key_resp_8.keys,key_resp_8.rt,key_resp_8.duration,practice.thisRepN,practice.thisTrialN,practice.thisN,trials.thisRepN,trials.thisTrialN,trials.thisN,thisRow.t,notes,welcome_page.started,text.started,key_resp.started,welcome_page.stopped,key_resp.keys,key_resp.rt,key_resp.duration,instructions.started,ins.started,key_resp_2.started,instructions.stopped,key_resp_2.keys,key_resp_2.rt,key_resp_2.duration,objects_only_instruction.started,text_3.started,key_resp_3.started,objects_only_instruction.stopped,key_resp_3.keys,key_resp_3.rt,key_resp_3.duration,ISI.started,text_4.started,ISI.stopped,practice_block.started,image.started,key_resp_5.started,text_5.started,practice_block.stopped,practice.key_resp_5.keys,practice.key_resp_5.rt,practice.key_resp_5.duration,indoor_outdoor.started,indoor_outdoor.stopped,practice.key_resp_7.keys,practice_to_main.started,text_2.started,key_resp_4.started,practice_to_main.stopped,key_resp_4.keys,key_resp_4.rt,key_resp_4.duration,objects.started,image_2.started,text_9.started,key_resp_9.started,objects.stopped,category,trials.key_resp_9.keys,trials.key_resp_9.rt,trials.key_resp_9.duration,encoding_task.started,encoding_task.stopped,trials.key_resp_8.keys,text_8.started,key_resp_8.started,trials.key_resp_8.rt,trials.key_resp_8.duration,text_4.stopped,end_experiment.started,text_6.started,key_resp_6.started,end_experiment.stopped,key_resp_6.keys,key_resp_6.rt,key_resp_6.duration,list_of_stimuli,encoding_task_accuracy,participant,session,date,expName,psychopyVersion,frameRate,expStart,
,,,,,,,,,,,,,,,,,,,,,,,0.005333700042683631,0.021657700010109693,0.021657700010109693,17.988646899990272,space,17.95380950003164,None,,,,,,,,,,,,,,,,,,,,,,,,,,,,,,,,,,,,,,,,,,,,,,,,,,,,,,,,,,,,,,00061,001,2026-01-19_17h44.07.535,MST_task,2024.2.0,59.79051796101555,2026-01-19 17h44.20.594177 +0530,
,,,,,,,,,,,,,,,,,,,,,,,,,,,,,,17.988681700022426,18.00324690004345,18.00324690004345,46.53663730004337,space,28.53252170002088,None,,,,,,,,,,,,,,,,,,,,,,,,,,,,,,,,,,,,,,,,,,,,,,,,,,,,,,,00061,001,2026-01-19_17h44.07.535,MST_task,2024.2.0,59.79051796101555,2026-01-19 17h44.20.594177 +0530,
,,,,,,,,,,,,,,,,,,,,,,,,,,,,,,,,,,,,,46.536669399996754,46.552989699994214,46.552989699994214,97.90028950001579,space,51.342849399952684,None,,,,,,,,,,,,,,,,,,,,,,,,,,,,,,,,,,,,,,,,,,,,,,,,00061,001,2026-01-19_17h44.07.535,MST_task,2024.2.0,59.79051796101555,2026-01-19 17h44.20.594177 +0530,
7,practice_images/166a.jpg,0,0,1,f,1.3977625000406988,0.11949629994342104,None,,,,,,,1,0,0,,,,97.91628020000644,,,,,,,,,,,,,,,,,,,,,,,97.90451070002746,97.91628020000644,98.40157450002152,98.41119950002758,98.41814660001546,98.41814660001546,98.41814660001546,101.41186160000507,f,1.3977625000406988,0.11949629994342104,101.4131297999993,101.41314890002832,None,,,,,,,,,,,,,,,,,,,,,,,,,,,,,,,,,,00061,001,2026-01-19_17h44.07.535,MST_task,2024.2.0,59.79051796101555,2026-01-19 17h44.20.594177 +0530,
9,practice_images/180a.jpg,1,1,1,f,1.454255800053943,0.12808809999842197,None,,,,,,,1,1,1,,,,101.42827730003046,,,,,,,,,,,,,,,,,,,,,,,101.4132162000169,101.42827730003046,101.91350510000484,101.91547520004679,101.92999600002076,101.92999600002076,101.92999600002076,104.9240496000275,f,1.454255800053943,0.12808809999842197,104.92409300000872,104.92410609999206,None,,,,,,,,,,,,,,,,,,,,,,,,,,,,,,,,,,00061,001,2026-01-19_17h44.07.535,MST_task,2024.2.0,59.79051796101555,2026-01-19 17h44.20.594177 +0530,
8,practice_images/178a.jpg,2,2,1,j,1.301220099965576,0.12109920004149899,None,,,,,,,1,2,2,,,,104.9406055000145,,,,,,,,,,,,,,,,,,,,,,,104.92417940002633,104.9406055000145,105.42607010004576,105.42833290004637,105.442309200007,105.442309200007,105.442309200007,108.43628510000417,j,1.301220099965576,0.12109920004149899,108.43648730003042,108.4365008000168,None,,,,,,,,,,,,,,,,,,,,,,,,,,,,,,,,,,00061,001,2026-01-19_17h44.07.535,MST_task,2024.2.0,59.79051796101555,2026-01-19 17h44.20.594177 +0530,
6,practice_images/158a.jpg,3,3,1,j,1.0127622000291012,0.0958290999988094,None,,,,,,,1,3,3,,,,108.45290770003339,,,,,,,,,,,,,,,,,,,,,,,108.43656900001224,108.45290770003339,108.9380679000169,108.94010120001622,108.95459480001591,108.95459480001591,108.95459480001591,111.94859889999498,j,1.0127622000291012,0.0958290999988094,111.94889330002479,111.94890890002716,None,,,,,,,,,,,,,,,,,,,,,,,,,,,,,,,,,,00061,001,2026-01-19_17h44.07.535,MST_task,2024.2.0,59.79051796101555,2026-01-19 17h44.20.594177 +0530,
5,practice_images/139a.jpg,4,4,1,j,1.6761833000346087,0.10478639998473227,None,,,,,,,1,4,4,,,,111.96517720003612,,,,,,,,,,,,,,,,,,,,,,,111.94897860003402,111.96517720003612,112.4508155999938,112.45348920003744,112.46692150004674,112.46692150004674,112.46692150004674,115.46089059999213,j,1.6761833000346087,0.10478639998473227,115.46108929999173,115.46110640000552,None,,,,,,,,,,,,,,,,,,,,,,,,,,,,,,,,,,00061,001,2026-01-19_17h44.07.535,MST_task,2024.2.0,59.79051796101555,2026-01-19 17h44.20.594177 +0530,
4,practice_images/002b.jpg,5,5,1,j,2.949451800028328,None,None,,,,,,,1,5,5,,,,115.4774683000287,,,,,,,,,,,,,,,,,,,,,,,115.4611776000238,115.4774683000287,115.96268630004488,115.96689800004242,115.97930960002122,115.97930960002122,115.97930960002122,118.9730710000149,j,2.949451800028328,None,118.97483140003169,118.97485120000783,None,,,,,,,,,,,,,,,,,,,,,,,,,,,,,,,,,,00061,001,2026-01-19_17h44.07.535,MST_task,2024.2.0,59.79051796101555,2026-01-19 17h44.20.594177 +0530,
2,practice_images/031a.jpg,6,6,1,f,2.5724725000327453,0.10443680000025779,None,,,,,,,1,6,6,,,,118.98990260000573,,,,,,,,,,,,,,,,,,,,,,,118.97491660004016,118.98990260000573,119.4749077000306,119.47693530004472,119.4916041000397,119.4916041000397,119.4916041000397,122.48536270001205,f,2.5724725000327453,0.10443680000025779,122.48539990000427,122.48541190003743,None,,,,,,,,,,,,,,,,,,,,,,,,,,,,,,,,,,00061,001,2026-01-19_17h44.07.535,MST_task,2024.2.0,59.79051796101555,2026-01-19 17h44.20.594177 +0530,
1,practice_images/013a.jpg,7,7,1,j,2.2680304999812506,0.11144220002461225,None,,,,,,,1,7,7,,,,122.50219140003901,,,,,,,,,,,,,,,,,,,,,,,122.48548070003744,122.50219140003901,122.98715460003586,122.98961210000562,123.00391180004226,123.00391180004226,123.00391180004226,125.9977853000164,j,2.2680304999812506,0.11144220002461225,125.99796529999003,125.99797950003995,None,,,,,,,,,,,,,,,,,,,,,,,,,,,,,,,,,,00061,001,2026-01-19_17h44.07.535,MST_task,2024.2.0,59.79051796101555,2026-01-19 17h44.20.594177 +0530,
10,practice_images/182a.jpg,8,8,1,f,1.3162684999988414,0.11134810000658035,None,,,,,,,1,8,8,,,,126.0144654000178,,,,,,,,,,,,,,,,,,,,,,,125.99805320001906,126.0144654000178,126.49959490000037,126.50108610000461,126.51609230000759,126.51609230000759,126.51609230000759,129.5102116999915,f,1.3162684999988414,0.11134810000658035,129.5104075000272,129.5104202000075,None,,,,,,,,,,,,,,,,,,,,,,,,,,,,,,,,,,00061,001,2026-01-19_17h44.07.535,MST_task,2024.2.0,59.79051796101555,2026-01-19 17h44.20.594177 +0530,
3,practice_images/037a.jpg,9,9,1,f,1.3795758999767713,0.1277863000286743,None,,,,,,,1,9,9,,,,129.52667789999396,,,,,,,,,,,,,,,,,,,,,,,129.51049100002274,129.52667789999396,130.01188450003974,130.013525700022,130.0285106000374,130.0285106000374,130.0285106000374,133.02239420003025,f,1.3795758999767713,0.1277863000286743,133.02257970004575,133.0225930000306,None,,,,,,,,,,,,,,,,,,,,,,,,,,,,,,,,,,00061,001,2026-01-19_17h44.07.535,MST_task,2024.2.0,59.79051796101555,2026-01-19 17h44.20.594177 +0530,
,,,,,,,,,,,,,,,,,,,,,,,,,,,,,,,,,,,,,,,,,,,,,,,,,,,,,,,,,,133.02264050004305,133.0390555000049,133.0390555000049,140.24881550000282,space,7.209069700038526,None,,,,,,,,,,,,,,,,,,,,,,,,,,,00061,001,2026-01-19_17h44.07.535,MST_task,2024.2.0,59.79051796101555,2026-01-19 17h44.20.594177 +0530,
,Objects\163a.jpg,0,0,1,,,,,j,2.304066899989266,0.1433790000155568,None,,,,,,1,0,0,140.26481300004525,,,,,,,,,,,,,,,,,,,,,,,140.2494541000342,140.26481300004525,140.74966380000114,,,,,,,,,,,,,,,,,,,140.7694808000233,140.7839634999982,140.7839634999982,140.7839634999982,143.7602399000316,shoe,j,2.304066899989266,0.1433790000155568,143.76164830004564,143.76166690001264,None,,,,,,,,,,,,,,,00061,001,2026-01-19_17h44.07.535,MST_task,2024.2.0,59.79051796101555,2026-01-19 17h44.20.594177 +0530,
,Objects\034a.jpg,1,0,2,,,,,f,0.9437356000416912,0.13616029999684542,None,,,,,,2,0,1,143.77710579999257,,,,,,,,,,,,,,,,,,,,,,,143.7617366000195,143.77710579999257,144.26215980004054,,,,,,,,,,,,,,,,,,,144.2717602000339,144.2956286999979,144.2956286999979,144.2956286999979,147.27252460003365,shoe,f,0.9437356000416912,0.13616029999684542,147.2727612000308,147.27283760003047,None,,,,,,,,,,,,,,,00061,001,2026-01-19_17h44.07.535,MST_task,2024.2.0,59.79051796101555,2026-01-19 17h44.20.594177 +0530,
,Objects\310a.jpg,2,0,3,,,,,f,2.567485800012946,0.10332569997990504,None,,,,,,3,0,2,147.28930530004436,,,,,,,,,,,,,,,,,,,,,,,147.27315800002543,147.28930530004436,147.77436050004326,,,,,,,,,,,,,,,,,,,147.78926260001026,147.80843370000366,147.80843370000366,147.80843370000366,150.7849019000423,shoe,f,2.567485800012946,0.10332569997990504,150.78512190002948,150.785136600025,None,,,,,,,,,,,,,,,00061,001,2026-01-19_17h44.07.535,MST_task,2024.2.0,59.79051796101555,2026-01-19 17h44.20.594177 +0530,
,Objects\038a.jpg,3,0,4,,,,,f,1.0956311999470927,0.1129979999968782,None,,,,,,4,0,3,150.80147120001493,,,,,,,,,,,,,,,,,,,,,,,150.78520889999345,150.80147120001493,151.28669060004177,,,,,,,,,,,,,,,,,,,151.30158259999007,151.32002590002958,151.32002590002958,151.32002590002958,154.2971097000409,shoe,f,1.0956311999470927,0.1129979999968782,154.29715689999284,154.29716860002372,None,,,,,,,,,,,,,,,00061,001,2026-01-19_17h44.07.535,MST_task,2024.2.0,59.79051796101555,2026-01-19 17h44.20.594177 +0530,
,Objects\260a.jpg,4,0,5,,,,,f,2.8489603999769315,0.12870790000306442,None,,,,,,5,0,4,154.31406490004156,,,,,,,,,,,,,,,,,,,,,,,154.29727260000072,154.31406490004156,154.79885510000167,,,,,,,,,,,,,,,,,,,154.80617200001143,154.814851800038,154.814851800038,154.814851800038,157.8095808000071,shoe,f,2.8489603999769315,0.12870790000306442,157.80963190004695,157.8096450000303,None,,,,,,,,,,,,,,,00061,001,2026-01-19_17h44.07.535,MST_task,2024.2.0,59.79051796101555,2026-01-19 17h44.20.594177 +0530,
,Objects\052a.jpg,5,0,6,,,,,f,1.7113762999651954,0.15173680003499612,None,,,,,,6,0,5,157.82679369999096,,,,,,,,,,,,,,,,,,,,,,,157.8097226000391,157.82679369999096,158.3117743000039,,,,,,,,,,,,,,,,,,,158.32826700003352,158.34469380002702,158.34469380002702,158.34469380002702,161.32204220001586,shoe,f,1.7113762999651954,0.15173680003499612,161.32213310000952,161.32214950001799,None,,,,,,,,,,,,,,,00061,001,2026-01-19_17h44.07.535,MST_task,2024.2.0,59.79051796101555,2026-01-19 17h44.20.594177 +0530,
,Objects\265a.jpg,6,0,7,,,,,j,1.5037508000386879,0.12710169999627396,None,,,,,,7,0,6,161.33865119999973,,,,,,,,,,,,,,,,,,,,,,,161.32221980002942,161.33865119999973,161.82377120002639,,,,,,,,,,,,,,,,,,,161.83205110003473,161.85687550000148,161.85687550000148,161.85687550000148,164.83411820000038,shoe,j,1.5037508000386879,0.12710169999627396,164.83446080004796,164.8344760000473,None,,,,,,,,,,,,,,,00061,001,2026-01-19_17h44.07.535,MST_task,2024.2.0,59.79051796101555,2026-01-19 17h44.20.594177 +0530,
,Objects\043a.jpg,7,0,8,,,,,None,,,j,0.5892915999866091,None,,,,8,0,7,164.8508056999999,,,,,,,,,,,,,,,,,,,,,,,164.83455920004053,164.8508056999999,165.33579969999846,,,,,,,,,,,,,,,,,,,165.3531435999903,165.3691582000465,165.3691582000465,165.3691582000465,168.34630189999007,indoor,None,,,168.34816680004587,168.9660093000275,j,168.36309410003014,168.36309410003014,0.5892915999866091,None,,,,,,,,,,,00061,001,2026-01-19_17h44.07.535,MST_task,2024.2.0,59.79051796101555,2026-01-19 17h44.20.594177 +0530,
,Objects\020a.jpg,8,0,9,,,,,f,2.339318899961654,0.1281396000413224,None,,,,,,9,0,8,168.98181580001255,,,,,,,,,,,,,,,,,,,,,,,168.96609820000594,168.98181580001255,169.46702939999523,,,,,,,,,,,,,,,,,,,169.470116600045,169.48369980003918,169.48369980003918,169.48369980003918,172.47810110001592,indoor,f,2.339318899961654,0.1281396000413224,172.4781435999903,172.4781560000265,None,,,,,,,,,,,,,,,00061,001,2026-01-19_17h44.07.535,MST_task,2024.2.0,59.79051796101555,2026-01-19 17h44.20.594177 +0530,
,Objects\066a.jpg,9,0,10,,,,,None,,,j,1.0337461999733932,None,,,,10,0,9,172.4942485000356,,,,,,,,,,,,,,,,,,,,,,,172.47822530003032,172.4942485000356,172.97947170003317,,,,,,,,,,,,,,,,,,,172.9907949999906,173.01260300003923,173.01260300003923,173.01260300003923,175.98972840001807,indoor,None,,,175.9897803000058,177.04417810001178,j,176.00653900002362,176.00653900002362,1.0337461999733932,None,,,,,,,,,,,00061,001,2026-01-19_17h44.07.535,MST_task,2024.2.0,59.79051796101555,2026-01-19 17h44.20.594177 +0530,
,Objects\116a.jpg,10,0,11,,,,,f,1.693321399972774,0.1296853999956511,None,,,,,,11,0,10,177.0601019000169,,,,,,,,,,,,,,,,,,,,,,,177.04426570003852,177.0601019000169,177.54532120004296,,,,,,,,,,,,,,,,,,,177.54871520004235,177.56184640002903,177.56184640002903,177.56184640002903,180.5558479000465,indoor,f,1.693321399972774,0.1296853999956511,180.55616600002395,180.556178800005,None,,,,,,,,,,,,,,,00061,001,2026-01-19_17h44.07.535,MST_task,2024.2.0,59.79051796101555,2026-01-19 17h44.20.594177 +0530,
,Objects\199a.jpg,11,0,12,,,,,j,1.3164756000041962,0.11999639996793121,None,,,,,,12,0,11,180.57239800004754,,,,,,,,,,,,,,,,,,,,,,,180.55625130003318,180.57239800004754,181.05760900001042,,,,,,,,,,,,,,,,,,,181.0716561000445,181.090998700005,181.090998700005,181.090998700005,184.06815770000685,indoor,j,1.3164756000041962,0.11999639996793121,184.068200800044,184.0682124000159,None,,,,,,,,,,,,,,,00061,001,2026-01-19_17h44.07.535,MST_task,2024.2.0,59.79051796101555,2026-01-19 17h44.20.594177 +0530,
,Objects\091a.jpg,12,0,13,,,,,j,1.972422699967865,0.12745390000054613,None,,,,,,13,0,12,184.0847127000452,,,,,,,,,,,,,,,,,,,,,,,184.06829580001067,184.0847127000452,184.57005500001833,,,,,,,,,,,,,,,,,,,184.57763260003412,184.60317320004106,184.60317320004106,184.60317320004106,187.58032980002463,indoor,j,1.972422699967865,0.12745390000054613,187.5803956000018,187.5804111000034,None,,,,,,,,,,,,,,,00061,001,2026-01-19_17h44.07.535,MST_task,2024.2.0,59.79051796101555,2026-01-19 17h44.20.594177 +0530,
,Objects\282a.jpg,13,0,14,,,,,j,2.04485389997717,0.12737170001491904,None,,,,,,14,0,13,187.59751440002583,,,,,,,,,,,,,,,,,,,,,,,187.58048659999622,187.59751440002583,188.0821353000356,,,,,,,,,,,,,,,,,,,188.08567060000496,188.09886520000873,188.09886520000873,188.09886520000873,191.09227330004796,indoor,j,2.04485389997717,0.12737170001491904,191.0923177000368,191.09232950001024,None,,,,,,,,,,,,,,,00061,001,2026-01-19_17h44.07.535,MST_task,2024.2.0,59.79051796101555,2026-01-19 17h44.20.594177 +0530,
,Objects\285a.jpg,14,0,15,,,,,f,2.828337899991311,None,None,,,,,,15,0,14,191.1091160000069,,,,,,,,,,,,,,,,,,,,,,,191.09239910001634,191.1091160000069,191.59411520004505,,,,,,,,,,,,,,,,,,,191.60729960002936,191.62822980002966,191.62822980002966,191.62822980002966,194.60468940000283,shoe,f,2.828337899991311,None,194.60664640000323,194.60666390002007,None,,,,,,,,,,,,,,,00061,001,2026-01-19_17h44.07.535,MST_task,2024.2.0,59.79051796101555,2026-01-19 17h44.20.594177 +0530,
,Objects\292a.jpg,15,0,16,,,,,None,,,f,1.6419318999978714,None,,,,16,0,15,194.6212953000213,,,,,,,,,,,,,,,,,,,,,,,194.60673480003607,194.6212953000213,195.10693140001968,,,,,,,,,,,,,,,,,,,195.1132696000277,195.1231100000441,195.1231100000441,195.1231100000441,198.11690010002349,shoe,None,,,198.11694209999405,199.79009180003777,f,198.13393000001088,198.13393000001088,1.6419318999978714,None,195.1231100000441,,,,,,,,,,00061,001,2026-01-19_17h44.07.535,MST_task,2024.2.0,59.79051796101555,2026-01-19 17h44.20.594177 +0530,
,Objects\195a.jpg,16,0,17,,,,,j,1.843525199976284,0.14282429998274893,None,,,,,,17,0,16,199.8063844999997,,,,,,,,,,,,,,,,,,,,,,,199.79018170002382,199.8063844999997,200.2913424000144,,,,,,,,,,,,,,,,,,,200.2997914000298,200.32468800002243,200.32468800002243,200.32468800002243,203.3018371000071,shoe,j,1.843525199976284,0.14282429998274893,203.3018824000028,203.301894800039,None,,,,,,,,,,,,,,,00061,001,2026-01-19_17h44.07.535,MST_task,2024.2.0,59.79051796101555,2026-01-19 17h44.20.594177 +0530,
,Objects\300a.jpg,17,0,18,,,,,f,1.3717264999868348,0.12818440003320575,None,,,,,,18,0,17,203.31842399999732,,,,,,,,,,,,,,,,,,,,,,,203.30196509999223,203.31842399999732,203.80366030003643,,,,,,,,,,,,,,,,,,,203.81084950000513,203.8197225999902,203.8197225999902,203.8197225999902,206.81413770001382,shoe,f,1.3717264999868348,0.12818440003320575,206.8141825000057,206.81419410003582,None,,,,,,,,,,,,,,,00061,001,2026-01-19_17h44.07.535,MST_task,2024.2.0,59.79051796101555,2026-01-19 17h44.20.594177 +0530,
,Objects\369a.jpg,18,0,19,,,,,f,1.8103492999798618,0.1519873000215739,None,,,,,,19,0,18,206.83072379999794,,,,,,,,,,,,,,,,,,,,,,,206.8142622000305,206.83072379999794,207.31593879999127,,,,,,,,,,,,,,,,,,,207.32377810002072,207.34916089999024,207.34916089999024,207.34916089999024,210.32629699999234,shoe,f,1.8103492999798618,0.1519873000215739,210.32635310001206,210.32636500004446,None,,,,,,,,,,,,,,,00061,001,2026-01-19_17h44.07.535,MST_task,2024.2.0,59.79051796101555,2026-01-19 17h44.20.594177 +0530,
,Objects\119a.jpg,19,0,20,,,,,f,2.346552699978929,0.14577340002870187,None,,,,,,20,0,19,210.34384220000356,,,,,,,,,,,,,,,,,,,,,,,210.32686510001076,210.34384220000356,210.8281139000319,,,,,,,,,,,,,,,,,,,210.83133850002196,210.844864600047,210.844864600047,210.844864600047,213.83862200001022,shoe,f,2.346552699978929,0.14577340002870187,213.8386803000467,213.8386932000285,None,,,,,,,,,,,,,,,00061,001,2026-01-19_17h44.07.535,MST_task,2024.2.0,59.79051796101555,2026-01-19 17h44.20.594177 +0530,
,Objects\253a.jpg,20,0,21,,,,,f,0.8427979999687523,0.1355199000099674,None,,,,,,21,0,20,213.85545370000182,,,,,,,,,,,,,,,,,,,,,,,213.83917970000766,213.85545370000182,214.34056240000064,,,,,,,,,,,,,,,,,,,214.34325930004707,214.35716390004382,214.35716390004382,214.35716390004382,217.3510580000002,shoe,f,0.8427979999687523,0.1355199000099674,217.3511034999974,217.35111550003057,None,,,,,,,,,,,,,,,00061,001,2026-01-19_17h44.07.535,MST_task,2024.2.0,59.79051796101555,2026-01-19 17h44.20.594177 +0530,
,Objects\147a.jpg,21,0,22,,,,,f,2.738307799969334,0.1354756000218913,None,,,,,,22,0,21,217.36773170001106,,,,,,,,,,,,,,,,,,,,,,,217.35122400004184,217.36773170001106,217.85273980000056,,,,,,,,,,,,,,,,,,,217.8574811000144,217.86943850002717,217.86943850002717,217.86943850002717,220.86324020003667,indoor,f,2.738307799969334,0.1354756000218913,220.86542909999844,220.8654596999986,None,,,,,,,,,,,,,,,00061,001,2026-01-19_17h44.07.535,MST_task,2024.2.0,59.79051796101555,2026-01-19 17h44.20.594177 +0530,
,Objects\115a.jpg,22,0,23,,,,,f,1.6271856999956071,0.12689469999168068,None,,,,,,23,0,22,220.88004220003495,,,,,,,,,,,,,,,,,,,,,,,220.86556860001292,220.88004220003495,221.36545199999819,,,,,,,,,,,,,,,,,,,221.36833170003956,221.3817481000442,221.3817481000442,221.3817481000442,224.3755092000356,indoor,f,1.6271856999956071,0.12689469999168068,224.3755772000295,224.37559440004406,None,,,,,221.3817481000442,,,,,,,,,,00061,001,2026-01-19_17h44.07.535,MST_task,2024.2.0,59.79051796101555,2026-01-19 17h44.20.594177 +0530,
,Objects\186a.jpg,23,0,24,,,,,f,2.001008399995044,0.12766739999642596,None,,,,,,24,0,23,224.3923326000222,,,,,,,,,,,,,,,,,,,,,,,224.3759476999985,224.3923326000222,224.87730300001567,,,,,,,,,,,,,,,,,,,224.8870569000137,224.91078770003514,224.91078770003514,224.91078770003514,227.88812230003532,indoor,f,2.001008399995044,0.12766739999642596,227.88817930000369,227.88819160003914,None,,,,,,,,,,,,,,,00061,001,2026-01-19_17h44.07.535,MST_task,2024.2.0,59.79051796101555,2026-01-19 17h44.20.594177 +0530,
,Objects\228a.jpg,24,0,25,,,,,None,,,j,0.2863774999859743,None,,,,25,0,24,227.9045054000453,,,,,,,,,,,,,,,,,,,,,,,227.88826430001063,227.9045054000453,228.38989370001946,,,,,,,,,,,,,,,,,,,228.39972109999508,228.42295420001028,228.42295420001028,228.42295420001028,231.4001086000353,indoor,None,,,231.40014730003895,231.71862130000954,j,231.416934900044,231.416934900044,0.2863774999859743,None,,,,,,,,,,,00061,001,2026-01-19_17h44.07.535,MST_task,2024.2.0,59.79051796101555,2026-01-19 17h44.20.594177 +0530,
,Objects\082a.jpg,25,0,26,,,,,j,2.5488004999933764,0.11819569999352098,None,,,,,,26,0,25,231.73471620003693,,,,,,,,,,,,,,,,,,,,,,,231.71870690002106,231.73471620003693,232.219814400014,,,,,,,,,,,,,,,,,,,232.2230982000474,232.23630600003526,232.23630600003526,232.23630600003526,235.23027950001415,indoor,j,2.5488004999933764,0.11819569999352098,235.23048329999438,235.2305112000322,None,,,,,,,,,,,,,,,00061,001,2026-01-19_17h44.07.535,MST_task,2024.2.0,59.79051796101555,2026-01-19 17h44.20.594177 +0530,
,Objects\123a.jpg,26,0,27,,,,,None,,,f,0.49583579995669425,None,,,,27,0,26,235.24700700002722,,,,,,,,,,,,,,,,,,,,,,,235.2305870000273,235.24700700002722,235.73202180000953,,,,,,,,,,,,,,,,,,,235.74195789999794,235.76546339999186,235.76546339999186,235.76546339999186,238.7426051000366,indoor,None,,,238.74278690002393,239.2615516000078,f,238.75920249999035,238.75920249999035,0.49583579995669425,None,,,,,,,,,,,00061,001,2026-01-19_17h44.07.535,MST_task,2024.2.0,59.79051796101555,2026-01-19 17h44.20.594177 +0530,
,Objects\216a.jpg,27,0,28,,,,,None,,,j,1.4815647999639623,None,,,,28,0,27,239.27780340000754,,,,,,,,,,,,,,,,,,,,,,,239.26164280000376,239.27780340000754,239.7627992000198,,,,,,,,,,,,,,,,,,,239.76576969999587,239.77971900004195,239.77971900004195,239.77971900004195,242.77326580003137,indoor,None,,,242.7734005000093,244.27931040001567,j,242.79008510004496,242.79008510004496,1.4815647999639623,None,,,,,,,,,,,00061,001,2026-01-19_17h44.07.535,MST_task,2024.2.0,59.79051796101555,2026-01-19 17h44.20.594177 +0530,
,Objects\164a.jpg,28,0,29,,,,,f,2.5224200999946333,0.151345299964305,None,,,,,,29,0,28,244.29537320003146,,,,,,,,,,,,,,,,,,,,,,,244.27940490003675,244.29537320003146,244.7804288000334,,,,,,,,,,,,,,,,,,,244.7913028000039,244.8138050000416,244.8138050000416,244.8138050000416,247.79113600001438,shoe,f,2.5224200999946333,0.151345299964305,247.79285970004275,247.79287830000976,None,,,,,,,,,,,,,,,00061,001,2026-01-19_17h44.07.535,MST_task,2024.2.0,59.79051796101555,2026-01-19 17h44.20.594177 +0530,
,Objects\098a.jpg,29,0,30,,,,,None,,,f,0.5520633999840356,None,,,,30,0,29,247.80755490000593,,,,,,,,,,,,,,,,,,,,,,,247.79298600001493,247.80755490000593,248.2934896000079,,,,,,,,,,,,,,,,,,,248.30285060004098,248.32619300001534,248.32619300001534,248.32619300001534,251.304150400043,shoe,None,,,251.30418880004436,251.87309360003565,f,251.31985440000426,251.31985440000426,0.5520633999840356,None,,,,,,,,,,,00061,001,2026-01-19_17h44.07.535,MST_task,2024.2.0,59.79051796101555,2026-01-19 17h44.20.594177 +0530,
,Objects\083a.jpg,30,0,31,,,,,f,1.0423207999556325,0.12713830004213378,None,,,,,,31,0,30,251.88853300001938,,,,,,,,,,,,,,,,,,,,,,,251.87323349999497,251.88853300001938,252.3745193000068,,,,,,,,,,,,,,,,,,,252.37734790000832,252.39049550000345,252.39049550000345,252.39049550000345,255.3841284000082,shoe,f,1.0423207999556325,0.12713830004213378,255.3841739000054,255.3841869000462,None,,,,,,,,,,,,,,,00061,001,2026-01-19_17h44.07.535,MST_task,2024.2.0,59.79051796101555,2026-01-19 17h44.20.594177 +0530,
,Objects\306a.jpg,31,0,32,,,,,f,0.896563199989032,0.11937289999332279,None,,,,,,32,0,31,255.40108440001495,,,,,,,,,,,,,,,,,,,,,,,255.38452459999826,255.40108440001495,255.8860432000365,,,,,,,,,,,,,,,,,,,255.8941718999995,255.91937940003118,255.91937940003118,255.91937940003118,258.8966639999999,shoe,f,0.896563199989032,0.11937289999332279,258.89694810000947,258.89696700003697,None,,,,,,,,,,,,,,,00061,001,2026-01-19_17h44.07.535,MST_task,2024.2.0,59.79051796101555,2026-01-19 17h44.20.594177 +0530,
,Objects\133a.jpg,32,0,33,,,,,j,1.3201583999907598,0.15205709997098893,None,,,,,,33,0,32,258.91311100003077,,,,,,,,,,,,,,,,,,,,,,,258.89712800004054,258.91311100003077,259.39880860003177,,,,,,,,,,,,,,,,,,,259.4140403000056,259.4316730000428,259.4316730000428,259.4316730000428,262.4086997000268,shoe,j,1.3201583999907598,0.15205709997098893,262.40874580002856,262.4087578000035,None,,,,,,,,,,,,,,,00061,001,2026-01-19_17h44.07.535,MST_task,2024.2.0,59.79051796101555,2026-01-19 17h44.20.594177 +0530,
,Objects\064a.jpg,33,0,34,,,,,f,1.1443147999816574,0.11976470000809059,None,,,,,,34,0,33,262.42552889999934,,,,,,,,,,,,,,,,,,,,,,,262.40882569999667,262.42552889999934,262.9106553000165,,,,,,,,,,,,,,,,,,,262.91344319999916,262.9274013999966,262.9274013999966,262.9274013999966,265.92103820003103,shoe,f,1.1443147999816574,0.11976470000809059,265.92109590000473,265.92110830004094,None,,,,,,,,,,,,,,,00061,001,2026-01-19_17h44.07.535,MST_task,2024.2.0,59.79051796101555,2026-01-19 17h44.20.594177 +0530,
,Objects\102a.jpg,34,0,35,,,,,f,2.384511999960523,0.11132270004600286,None,,,,,,35,0,34,265.9379681000137,,,,,,,,,,,,,,,,,,,,,,,265.9213741000276,265.9379681000137,266.42280940001365,,,,,,,,,,,,,,,,,,,266.42615710000973,266.43953239999246,266.43953239999246,266.43953239999246,269.43339439999545,shoe,f,2.384511999960523,0.11132270004600286,269.43370120000327,269.43372740002815,None,,,,,,,,,,,,,,,00061,001,2026-01-19_17h44.07.535,MST_task,2024.2.0,59.79051796101555,2026-01-19 17h44.20.594177 +0530,
,Objects\350a.jpg,35,0,36,,,,,j,2.648508899961598,0.15099850000115111,None,,,,,,36,0,35,269.45014690002427,,,,,,,,,,,,,,,,,,,,,,,269.4338025000179,269.45014690002427,269.93565260001924,,,,,,,,,,,,,,,,,,,269.953215000045,269.96844170003897,269.96844170003897,269.96844170003897,272.94559050002135,indoor,j,2.648508899961598,0.15099850000115111,272.94718419999117,272.9472025000141,None,,,,,,,,,,,,,,,00061,001,2026-01-19_17h44.07.535,MST_task,2024.2.0,59.79051796101555,2026-01-19 17h44.20.594177 +0530,
,Objects\040a.jpg,36,0,37,,,,,f,2.1350164999603294,0.15974269999423996,None,,,,,,37,0,36,272.9624179000384,,,,,,,,,,,,,,,,,,,,,,,272.9472734000301,272.9624179000384,273.4476007000194,,,,,,,,,,,,,,,,,,,273.4559594000457,273.48086630000034,273.48086630000034,273.48086630000034,276.4580278000212,indoor,f,2.1350164999603294,0.15974269999423996,276.4582374000456,276.4582501000259,None,,,,,,,,,,,,,,,00061,001,2026-01-19_17h44.07.535,MST_task,2024.2.0,59.79051796101555,2026-01-19 17h44.20.594177 +0530,
,Objects\335a.jpg,37,0,38,,,,,j,1.5592118999920785,0.15344849997200072,None,,,,,,38,0,37,276.47461800003657,,,,,,,,,,,,,,,,,,,,,,,276.4583195000305,276.47461800003657,276.9599877000437,,,,,,,,,,,,,,,,,,,276.9667961000232,276.97636240004795,276.97636240004795,276.97636240004795,279.9717044000281,indoor,j,1.5592118999920785,0.15344849997200072,279.9717557000113,279.9717682999908,None,,,,,,,,,,,,,,,00061,001,2026-01-19_17h44.07.535,MST_task,2024.2.0,59.79051796101555,2026-01-19 17h44.20.594177 +0530,
,Objects\346a.jpg,38,0,39,,,,,f,1.8623438999638893,0.15172989998245612,None,,,,,,39,0,38,279.9868908000062,,,,,,,,,,,,,,,,,,,,,,,279.97184060001746,279.9868908000062,280.4721520000021,,,,,,,,,,,,,,,,,,,280.4866021000198,280.5052555000293,280.5052555000293,280.5052555000293,283.4824942999985,indoor,f,1.8623438999638893,0.15172989998245612,283.4825378000387,283.48255060001975,None,,,,,,,,,,,,,,,00061,001,2026-01-19_17h44.07.535,MST_task,2024.2.0,59.79051796101555,2026-01-19 17h44.20.594177 +0530,
,Objects\088a.jpg,39,0,40,,,,,f,1.701528099947609,0.14424800005508587,None,,,,,,40,0,39,283.4994580000057,,,,,,,,,,,,,,,,,,,,,,,283.48278140003094,283.4994580000057,283.9842951000319,,,,,,,,,,,,,,,,,,,283.99286550004035,284.0184213000466,284.0184213000466,284.0184213000466,286.99539920000825,indoor,f,1.701528099947609,0.14424800005508587,286.9954435999971,286.9954558000318,None,,,,,,,,,,,,,,,00061,001,2026-01-19_17h44.07.535,MST_task,2024.2.0,59.79051796101555,2026-01-19 17h44.20.594177 +0530,
,Objects\051a.jpg,40,0,41,,,,,j,1.9419974999618717,0.1205130000016652,None,,,,,,41,0,40,287.01150590000907,,,,,,,,,,,,,,,,,,,,,,,286.9955233000219,287.01150590000907,287.496896800003,,,,,,,,,,,,,,,,,,,287.49980270001106,287.51319880003575,287.51319880003575,287.51319880003575,290.5072193000233,indoor,j,1.9419974999618717,0.1205130000016652,290.50727290002396,290.50728510000044,None,,,,,,,,,,,,,,,00061,001,2026-01-19_17h44.07.535,MST_task,2024.2.0,59.79051796101555,2026-01-19 17h44.20.594177 +0530,
,Objects\376a.jpg,41,0,42,,,,,None,,,f,0.4441581999999471,None,,,,42,0,41,290.5239392000367,,,,,,,,,,,,,,,,,,,,,,,290.5073579000309,290.5239392000367,291.00900409999304,,,,,,,,,,,,,,,,,,,291.01234110002406,291.0255109000136,291.0255109000136,291.0255109000136,294.0195118000265,indoor,None,,,294.0195497000241,294.4884740000125,f,294.03609140001936,294.03609140001936,0.4441581999999471,None,,,,,,,,,,,00061,001,2026-01-19_17h44.07.535,MST_task,2024.2.0,59.79051796101555,2026-01-19 17h44.20.594177 +0530,
,Objects\345a.jpg,42,0,43,,,,,f,1.8890405999845825,0.1440368000185117,None,,,,,,43,0,42,294.5046879000147,,,,,,,,,,,,,,,,,,,,,,,294.4885651000077,294.5046879000147,294.98963200004073,,,,,,,,,,,,,,,,,,,294.99420850002207,295.0063844000106,295.0063844000106,295.0063844000106,298.0001105000265,shoe,f,1.8890405999845825,0.1440368000185117,298.002084900043,298.00210330000846,None,,,,,,,,,,,,,,,00061,001,2026-01-19_17h44.07.535,MST_task,2024.2.0,59.79051796101555,2026-01-19 17h44.20.594177 +0530,
,Objects\257a.jpg,43,0,44,,,,,f,2.3846968000289053,0.12876789999427274,None,,,,,,44,0,43,298.0167134000221,,,,,,,,,,,,,,,,,,,,,,,298.00217320001684,298.0167134000221,298.50225650001084,,,,,,,,,,,,,,,,,,,298.51545820001047,298.53514190000715,298.53514190000715,298.53514190000715,301.51229710003827,shoe,f,2.3846968000289053,0.12876789999427274,301.5123400000157,301.51235249999445,None,,,,,298.53514190000715,,,,,,,,,,00061,001,2026-01-19_17h44.07.535,MST_task,2024.2.0,59.79051796101555,2026-01-19 17h44.20.594177 +0530,
,Objects\132a.jpg,44,0,45,,,,,f,0.9839515000348911,0.12014209997141734,None,,,,,,45,0,44,301.52925350004807,,,,,,,,,,,,,,,,,,,,,,,301.51241980004124,301.52925350004807,302.014100600034,,,,,,,,,,,,,,,,,,,302.0290739000193,302.04768600000534,302.04768600000534,302.04768600000534,305.02476180001395,shoe,f,0.9839515000348911,0.12014209997141734,305.0248069000081,305.02481870003976,None,,,,,,,,,,,,,,,00061,001,2026-01-19_17h44.07.535,MST_task,2024.2.0,59.79051796101555,2026-01-19 17h44.20.594177 +0530,
,Objects\232a.jpg,45,0,46,,,,,f,1.1276427999837324,0.1441820000181906,None,,,,,,46,0,45,305.04158439999446,,,,,,,,,,,,,,,,,,,,,,,305.0249699000269,305.04158439999446,305.5266450000345,,,,,,,,,,,,,,,,,,,305.5423284000135,305.5600421000272,305.5600421000272,305.5600421000272,308.53717240004335,shoe,f,1.1276427999837324,0.1441820000181906,308.53722880000714,308.5372535000206,None,,,,,,,,,,,,,,,00061,001,2026-01-19_17h44.07.535,MST_task,2024.2.0,59.79051796101555,2026-01-19 17h44.20.594177 +0530,
,Objects\097a.jpg,46,0,47,,,,,j,2.4313188000232913,0.12898919999133795,None,,,,,,47,0,46,308.55376840004465,,,,,,,,,,,,,,,,,,,,,,,308.53732709999895,308.55376840004465,309.03900029999204,,,,,,,,,,,,,,,,,,,309.05418229999486,309.07210590003524,309.07210590003524,309.07210590003524,312.04951899999287,shoe,j,2.4313188000232913,0.12898919999133795,312.04957390000345,312.04958560003433,None,,,,,,,,,,,,,,,00061,001,2026-01-19_17h44.07.535,MST_task,2024.2.0,59.79051796101555,2026-01-19 17h44.20.594177 +0530,
,Objects\174a.jpg,47,0,48,,,,,None,,,f,0.22984480002196506,None,,,,48,0,47,312.06608380004764,,,,,,,,,,,,,,,,,,,,,,,312.0496530000237,312.06608380004764,312.5519576999941,,,,,,,,,,,,,,,,,,,312.554679199995,312.56865440000547,312.56865440000547,312.56865440000547,315.5617766000214,shoe,None,,,315.5618337999913,315.81311560003087,f,315.57836189999944,315.57836189999944,0.22984480002196506,None,,,,,,,,,,,00061,001,2026-01-19_17h44.07.535,MST_task,2024.2.0,59.79051796101555,2026-01-19 17h44.20.594177 +0530,
,Objects\258a.jpg,48,0,49,,,,,j,2.4274978999746963,0.1524166000308469,None,,,,,,49,0,48,315.8293027000036,,,,,,,,,,,,,,,,,,,,,,,315.8132441000198,315.8293027000036,316.3144491999992,,,,,,,,,,,,,,,,,,,316.32248150004307,316.34780700004194,316.34780700004194,316.34780700004194,319.3251421000459,shoe,j,2.4274978999746963,0.1524166000308469,319.3251971999998,319.32521010003984,None,,,,,,,,,,,,,,,00061,001,2026-01-19_17h44.07.535,MST_task,2024.2.0,59.79051796101555,2026-01-19 17h44.20.594177 +0530,
,Objects\367a.jpg,49,0,50,,,,,f,2.5171605000505224,0.1359559999546036,None,,,,,,50,0,49,319.34152850002283,,,,,,,,,,,,,,,,,,,,,,,319.3252816000022,319.34152850002283,319.82677220000187,,,,,,,,,,,,,,,,,,,319.83414099999936,319.84278950002044,319.84278950002044,319.84278950002044,322.83696560002863,indoor,f,2.5171605000505224,0.1359559999546036,322.83842300000833,322.83843950001756,None,,,,,,,,,,,,,,,00061,001,2026-01-19_17h44.07.535,MST_task,2024.2.0,59.79051796101555,2026-01-19 17h44.20.594177 +0530,
,Objects\370a.jpg,50,0,51,,,,,None,,,j,0.00958149996586144,None,,,,51,0,50,322.85380010004155,,,,,,,,,,,,,,,,,,,,,,,322.838509800029,322.85380010004155,323.3390272000106,,,,,,,,,,,,,,,,,,,323.3473265999928,323.3551153000444,323.3551153000444,323.3551153000444,326.34927550004795,indoor,None,,,326.349437900004,326.38375600002473,j,326.3660865999991,326.3660865999991,0.00958149996586144,None,,,,,,,,,,,00061,001,2026-01-19_17h44.07.535,MST_task,2024.2.0,59.79051796101555,2026-01-19 17h44.20.594177 +0530,
,Objects\191a.jpg,51,0,52,,,,,j,2.697140700009186,0.16794869996374473,None,,,,,,52,0,51,326.3995446000481,,,,,,,,,,,,,,,,,,,,,,,326.3838342000381,326.3995446000481,326.8846526000416,,,,,,,,,,,,,,,,,,,326.8961017000256,326.918001300015,326.918001300015,326.918001300015,329.895136200008,indoor,j,2.697140700009186,0.16794869996374473,329.8951797000482,329.89519140002085,None,,,,,,,,,,,,,,,00061,001,2026-01-19_17h44.07.535,MST_task,2024.2.0,59.79051796101555,2026-01-19 17h44.20.594177 +0530,
,Objects\340a.jpg,52,0,53,,,,,f,2.162437700026203,0.15197260002605617,None,,,,,,53,0,52,329.9117247000104,,,,,,,,,,,,,,,,,,,,,,,329.8952603000216,329.9117247000104,330.39749840000877,,,,,,,,,,,,,,,,,,,330.4041429000208,330.4132093000226,330.4132093000226,330.4132093000226,333.407570600044,indoor,f,2.162437700026203,0.15197260002605617,333.4076132000191,333.4076244000462,None,,,,,,,,,,,,,,,00061,001,2026-01-19_17h44.07.535,MST_task,2024.2.0,59.79051796101555,2026-01-19 17h44.20.594177 +0530,
,Objects\309a.jpg,53,0,54,,,,,None,,,f,0.4707615000079386,None,,,,54,0,53,333.4240424000309,,,,,,,,,,,,,,,,,,,,,,,333.4076930000447,333.4240424000309,333.91011840000283,,,,,,,,,,,,,,,,,,,333.9175783999963,333.942473800038,333.942473800038,333.942473800038,336.919600800029,indoor,None,,,336.91965270001674,337.4219420000445,f,336.93649390002247,336.93649390002247,0.4707615000079386,None,,,,,,,,,,,00061,001,2026-01-19_17h44.07.535,MST_task,2024.2.0,59.79051796101555,2026-01-19 17h44.20.594177 +0530,
,Objects\284a.jpg,54,0,55,,,,,j,2.387861800030805,0.15191680000862107,None,,,,,,55,0,54,337.43820620002225,,,,,,,,,,,,,,,,,,,,,,,337.4220316000283,337.43820620002225,337.9233053000062,,,,,,,,,,,,,,,,,,,337.9296872999985,337.93983099999605,337.93983099999605,337.93983099999605,340.93389190000016,indoor,j,2.387861800030805,0.15191680000862107,340.93410250003217,340.93411630002083,None,,,,,,,,,,,,,,,00061,001,2026-01-19_17h44.07.535,MST_task,2024.2.0,59.79051796101555,2026-01-19 17h44.20.594177 +0530,
,Objects\171a.jpg,55,0,56,,,,,None,,,j,0.05726730002788827,None,,,,56,0,55,340.95045430003665,,,,,,,,,,,,,,,,,,,,,,,340.9341883000452,340.95045430003665,341.4355890000006,,,,,,,,,,,,,,,,,,,341.4433576000156,341.4517757000285,341.4517757000285,341.4517757000285,344.44641560001764,indoor,None,,,344.4464705000282,344.53040869999677,j,344.46265870000934,344.46265870000934,0.05726730002788827,None,,,,,,,,,,,00061,001,2026-01-19_17h44.07.535,MST_task,2024.2.0,59.79051796101555,2026-01-19 17h44.20.594177 +0530,
,Objects\156a.jpg,56,0,57,,,,,None,,,f,0.6538089999812655,None,,,,57,0,56,344.5464344000211,,,,,,,,,,,,,,,,,,,,,,,344.5304937000037,344.5464344000211,345.0314050000161,,,,,,,,,,,,,,,,,,,345.03605520003475,345.0481509999954,345.0481509999954,345.0481509999954,348.04191430000355,shoe,None,,,348.04348270001356,348.72839290002594,f,348.0587216000422,348.0587216000422,0.6538089999812655,None,,,,,,,,,,,00061,001,2026-01-19_17h44.07.535,MST_task,2024.2.0,59.79051796101555,2026-01-19 17h44.20.594177 +0530,
,Objects\099a.jpg,57,0,58,,,,,None,,,f,0.4626351000042632,None,,,,58,0,57,348.744349500048,,,,,,,,,,,,,,,,,,,,,,,348.7284830000135,348.744349500048,349.2295366000035,,,,,,,,,,,,,,,,,,,349.23913470003754,349.2627933000331,349.2627933000331,349.2627933000331,352.2399648000137,shoe,None,,,352.2400164999999,352.72577449999517,f,352.25676040002145,352.25676040002145,0.4626351000042632,None,,,,,,,,,,,00061,001,2026-01-19_17h44.07.535,MST_task,2024.2.0,59.79051796101555,2026-01-19 17h44.20.594177 +0530,
,Objects\286a.jpg,58,0,59,,,,,j,2.668091600004118,0.12005269998917356,None,,,,,,59,0,58,352.74172220000764,,,,,,,,,,,,,,,,,,,,,,,352.72586720000254,352.74172220000764,353.2268867000239,,,,,,,,,,,,,,,,,,,353.2327995999949,353.24371180002345,353.24371180002345,353.24371180002345,356.2375175000052,shoe,j,2.668091600004118,0.12005269998917356,356.2375767999911,356.23759060003795,None,,,,,,,,,,,,,,,00061,001,2026-01-19_17h44.07.535,MST_task,2024.2.0,59.79051796101555,2026-01-19 17h44.20.594177 +0530,
,Objects\234a.jpg,59,0,60,,,,,j,1.2921274999971502,0.15939220000291243,None,,,,,,60,0,59,356.2542090000352,,,,,,,,,,,,,,,,,,,,,,,356.23765910003567,356.2542090000352,356.7393348000478,,,,,,,,,,,,,,,,,,,356.75368930003606,356.7724206999992,356.7724206999992,356.7724206999992,359.74955880001653,shoe,j,1.2921274999971502,0.15939220000291243,359.74960119999014,359.7496132000233,None,,,,,,,,,,,,,,,00061,001,2026-01-19_17h44.07.535,MST_task,2024.2.0,59.79051796101555,2026-01-19 17h44.20.594177 +0530,
,Objects\366a.jpg,60,0,61,,,,,f,2.4838019000017084,0.16777119995094836,None,,,,,,61,0,60,359.7663981000078,,,,,,,,,,,,,,,,,,,,,,,359.749683800037,359.7663981000078,360.2513986999984,,,,,,,,,,,,,,,,,,,360.2548376999912,360.2682221000432,360.2682221000432,360.2682221000432,363.2621963000274,shoe,f,2.4838019000017084,0.16777119995094836,363.26225600001635,363.26226809999207,None,,,,,,,,,,,,,,,00061,001,2026-01-19_17h44.07.535,MST_task,2024.2.0,59.79051796101555,2026-01-19 17h44.20.594177 +0530,
,Objects\184a.jpg,61,0,62,,,,,j,2.035428899980616,0.11121750000165775,None,,,,,,62,0,61,363.27919840003597,,,,,,,,,,,,,,,,,,,,,,,363.2623392000096,363.27919840003597,363.76385230000596,,,,,,,,,,,,,,,,,,,363.76732760004234,363.78057380003156,363.78057380003156,363.78057380003156,366.77431680000154,shoe,j,2.035428899980616,0.11121750000165775,366.77436310000485,366.7743752000388,None,,,,,,,,,,,,,,,00061,001,2026-01-19_17h44.07.535,MST_task,2024.2.0,59.79051796101555,2026-01-19 17h44.20.594177 +0530,
,Objects\304a.jpg,62,0,63,,,,,f,2.0420239999657497,0.1841571000404656,None,,,,,,63,0,62,366.79123620002065,,,,,,,,,,,,,,,,,,,,,,,366.7745156000019,366.79123620002065,367.27598010003567,,,,,,,,,,,,,,,,,,,367.2867378999945,367.3094691000297,367.3094691000297,367.3094691000297,370.28707980003674,shoe,f,2.0420239999657497,0.1841571000404656,370.2872866000398,370.28729920001933,None,,,,,,,,,,,,,,,00061,001,2026-01-19_17h44.07.535,MST_task,2024.2.0,59.79051796101555,2026-01-19 17h44.20.594177 +0530,
,Objects\238a.jpg,63,0,64,,,,,None,,,f,0.5195498999673873,None,,,,64,0,63,370.3031792000402,,,,,,,,,,,,,,,,,,,,,,,370.2874209000147,370.3031792000402,370.7888737000176,,,,,,,,,,,,,,,,,,,370.79744070000015,370.82199590001255,370.82199590001255,370.82199590001255,373.7988809000235,indoor,None,,,373.8006169000291,374.35147029999644,f,373.81548660004046,373.81548660004046,0.5195498999673873,None,,,,,,,,,,,00061,001,2026-01-19_17h44.07.535,MST_task,2024.2.0,59.79051796101555,2026-01-19 17h44.20.594177 +0530,
,Objects\247a.jpg,64,0,65,,,,,None,,,j,0.021417800046037883,None,,,,65,0,64,374.36753039999167,,,,,,,,,,,,,,,,,,,,,,,374.35156370000914,374.36753039999167,374.8524936000467,,,,,,,,,,,,,,,,,,,374.86029460001737,374.86872240004595,374.86872240004595,374.86872240004595,377.8636424000142,indoor,None,,,377.86369329999434,377.91389680001885,j,377.88241990003735,377.88241990003735,0.021417800046037883,None,,,,,,,,,,,00061,001,2026-01-19_17h44.07.535,MST_task,2024.2.0,59.79051796101555,2026-01-19 17h44.20.594177 +0530,
,Objects\279a.jpg,65,0,66,,,,,None,,,f,None,None,,,,66,0,65,377.92992700001923,,,,,,,,,,,,,,,,,,,,,,,377.9139939000015,377.92992700001923,378.41555060003884,,,,,,,,,,,,,,,,,,,378.42451440001605,378.4487347000395,378.4487347000395,378.4487347000395,381.42547090002336,indoor,None,,,381.4255093000247,381.5766044000047,f,381.44239879999077,381.44239879999077,None,None,,,,,,,,,,,00061,001,2026-01-19_17h44.07.535,MST_task,2024.2.0,59.79051796101555,2026-01-19 17h44.20.594177 +0530,
,Objects\270a.jpg,66,0,67,,,,,j,1.3290779000381008,0.14363659999798983,None,,,,,,67,0,66,381.59282439999515,,,,,,,,,,,,,,,,,,,,,,,381.5766865000478,381.59282439999515,382.0781894000247,,,,,,,,,,,,,,,,,,,382.0845181000186,382.09423940000124,382.09423940000124,382.09423940000124,385.08843250002246,indoor,j,1.3290779000381008,0.14363659999798983,385.0884767000098,385.0885202999925,None,,,,,,,,,,,,,,,00061,001,2026-01-19_17h44.07.535,MST_task,2024.2.0,59.79051796101555,2026-01-19 17h44.20.594177 +0530,
,Objects\107a.jpg,67,0,68,,,,,f,2.425703999993857,0.1436851000180468,None,,,,,,68,0,67,385.1050204000203,,,,,,,,,,,,,,,,,,,,,,,385.0885998000158,385.1050204000203,385.5901966000092,,,,,,,,,,,,,,,,,,,385.5980006000027,385.60624330001883,385.60624330001883,385.60624330001883,388.60099090001313,indoor,f,2.425703999993857,0.1436851000180468,388.60103350004647,388.6010450000176,None,,,,,,,,,,,,,,,00061,001,2026-01-19_17h44.07.535,MST_task,2024.2.0,59.79051796101555,2026-01-19 17h44.20.594177 +0530,
,Objects\016a.jpg,68,0,69,,,,,f,1.6079640000243671,0.12788340001134202,None,,,,,,69,0,68,388.6174763000454,,,,,,,,,,,,,,,,,,,,,,,388.6011537000304,388.6174763000454,389.1027610000456,,,,,,,,,,,,,,,,,,,389.1055396000156,389.1194816000061,389.1194816000061,389.1194816000061,392.11288940004306,indoor,f,1.6079640000243671,0.12788340001134202,392.112930400006,392.11294170003384,None,,,,,,,,,,,,,,,00061,001,2026-01-19_17h44.07.535,MST_task,2024.2.0,59.79051796101555,2026-01-19 17h44.20.594177 +0530,
,Objects\182a.jpg,69,0,70,,,,,None,,,f,0.08606429997598752,None,,,,70,0,69,392.1297148000449,,,,,,,,,,,,,,,,,,,,,,,392.11301130003994,392.1297148000449,392.61480370000936,,,,,,,,,,,,,,,,,,,392.61816740001086,392.63143780000973,392.63143780000973,392.63143780000973,395.6253657999914,indoor,None,,,395.6254174000351,395.7428441999946,f,395.6420273000258,395.6420273000258,0.08606429997598752,None,,,,,,,,,,,00061,001,2026-01-19_17h44.07.535,MST_task,2024.2.0,59.79051796101555,2026-01-19 17h44.20.594177 +0530,
,Objects\242a.jpg,70,0,71,,,,,f,1.780006900022272,0.15112579998094589,None,,,,,,71,0,70,395.7589838000131,,,,,,,,,,,,,,,,,,,,,,,395.7429284999962,395.7589838000131,396.2441906000022,,,,,,,,,,,,,,,,,,,396.24904670001706,396.26089590002084,396.26089590002084,396.26089590002084,399.2546957000159,shoe,f,1.780006900022272,0.15112579998094589,399.2569092999911,399.25692750001326,None,,,,,,,,,,,,,,,00061,001,2026-01-19_17h44.07.535,MST_task,2024.2.0,59.79051796101555,2026-01-19 17h44.20.594177 +0530,
,Objects\151a.jpg,71,0,72,,,,,f,1.2983832000172697,0.1450372000108473,None,,,,,,72,0,71,399.2714332000469,,,,,,,,,,,,,,,,,,,,,,,399.25699560000794,399.2714332000469,399.7569693000405,,,,,,,,,,,,,,,,,,,399.76022440003,399.7729931999929,399.7729931999929,399.7729931999929,402.7670990000479,shoe,f,1.2983832000172697,0.1450372000108473,402.7671430000337,402.76718290004646,None,,,,,399.7729931999929,,,,,,,,,,00061,001,2026-01-19_17h44.07.535,MST_task,2024.2.0,59.79051796101555,2026-01-19 17h44.20.594177 +0530,
,Objects\243a.jpg,72,0,73,,,,,f,1.0434023999841884,0.15944120002677664,None,,,,,,73,0,72,402.7835907000117,,,,,,,,,,,,,,,,,,,,,,,402.7672673999914,402.7835907000117,403.26877980004065,,,,,,,,,,,,,,,,,,,403.27621270000236,403.2848227000213,403.2848227000213,403.2848227000213,406.2796012000181,shoe,f,1.0434023999841884,0.15944120002677664,406.2798011000268,406.2798138000071,None,,,,,,,,,,,,,,,00061,001,2026-01-19_17h44.07.535,MST_task,2024.2.0,59.79051796101555,2026-01-19 17h44.20.594177 +0530,
,Objects\058a.jpg,73,0,74,,,,,f,1.7203450999804772,0.151597700023558,None,,,,,,74,0,73,406.29600870003924,,,,,,,,,,,,,,,,,,,,,,,406.27988690003986,406.29600870003924,406.7815031000064,,,,,,,,,,,,,,,,,,,406.7895934000262,406.8150177000207,406.8150177000207,406.8150177000207,409.7915925999987,shoe,f,1.7203450999804772,0.151597700023558,409.7916355000343,409.791647200007,None,,,,,,,,,,,,,,,00061,001,2026-01-19_17h44.07.535,MST_task,2024.2.0,59.79051796101555,2026-01-19 17h44.20.594177 +0530,
,Objects\220a.jpg,74,0,75,,,,,f,1.3687506000278518,0.16799849999370053,None,,,,,,75,0,74,409.8081746000098,,,,,,,,,,,,,,,,,,,,,,,409.791716000007,409.8081746000098,410.2933827000088,,,,,,,,,,,,,,,,,,,410.3097029000055,410.3266231000307,410.3266231000307,410.3266231000307,413.30388890003087,shoe,f,1.3687506000278518,0.16799849999370053,413.30396059999475,413.30397510004696,None,,,,,,,,,,,,,,,00061,001,2026-01-19_17h44.07.535,MST_task,2024.2.0,59.79051796101555,2026-01-19 17h44.20.594177 +0530,
,Objects\382a.jpg,75,0,76,,,,,j,2.6170870999922045,0.09598569996887818,None,,,,,,76,0,75,413.32059960003244,,,,,,,,,,,,,,,,,,,,,,,413.30408040003385,413.32059960003244,413.8057832000195,,,,,,,,,,,,,,,,,,,413.8129538000212,413.8218255999964,413.8218255999964,413.8218255999964,416.8161206000368,shoe,j,2.6170870999922045,0.09598569996887818,416.8161641000188,416.816175999993,None,,,,,,,,,,,,,,,00061,001,2026-01-19_17h44.07.535,MST_task,2024.2.0,59.79051796101555,2026-01-19 17h44.20.594177 +0530,
,Objects\086a.jpg,76,0,77,,,,,j,1.2324178999988362,0.11244449997320771,None,,,,,,77,0,76,416.8329824000248,,,,,,,,,,,,,,,,,,,,,,,416.81674740003655,416.8329824000248,417.31823890004307,,,,,,,,,,,,,,,,,,,417.3261369999964,417.3513390000444,417.3513390000444,417.3513390000444,420.3284993999987,shoe,j,1.2324178999988362,0.11244449997320771,420.3285426000366,420.32855440001003,None,,,,,,,,,,,,,,,00061,001,2026-01-19_17h44.07.535,MST_task,2024.2.0,59.79051796101555,2026-01-19 17h44.20.594177 +0530,
,Objects\336a.jpg,77,0,78,,,,,None,,,f,0.2074867999763228,None,,,,78,0,77,420.3450717999949,,,,,,,,,,,,,,,,,,,,,,,420.32867730001453,420.3450717999949,420.83067749999464,,,,,,,,,,,,,,,,,,,420.8471572000417,420.86351940000895,420.86351940000895,420.86351940000895,423.84076960000675,indoor,None,,,423.84272200003034,424.0756457000389,f,423.85749500000384,423.85749500000384,0.2074867999763228,None,,,,,,,,,,,00061,001,2026-01-19_17h44.07.535,MST_task,2024.2.0,59.79051796101555,2026-01-19 17h44.20.594177 +0530,
,Objects\032a.jpg,78,0,79,,,,,j,2.765244400012307,0.1215385000105016,None,,,,,,79,0,78,424.09164410002995,,,,,,,,,,,,,,,,,,,,,,,424.0757370000356,424.09164410002995,424.5766079000314,,,,,,,,,,,,,,,,,,,424.5931246000109,424.61009520001244,424.61009520001244,424.61009520001244,427.5871944000246,indoor,j,2.765244400012307,0.1215385000105016,427.5872381000081,427.5872508000466,None,,,,,,,,,,,,,,,00061,001,2026-01-19_17h44.07.535,MST_task,2024.2.0,59.79051796101555,2026-01-19 17h44.20.594177 +0530,
,Objects\272a.jpg,79,0,80,,,,,j,1.6612150000291876,0.11214829998789355,None,,,,,,80,0,79,427.6039485000074,,,,,,,,,,,,,,,,,,,,,,,427.5873206999968,427.6039485000074,428.08905549999326,,,,,,,,,,,,,,,,,,,428.09599020000314,428.1057495000423,428.1057495000423,428.1057495000423,431.09942430001684,indoor,j,1.6612150000291876,0.11214829998789355,431.099465300038,431.09947700001067,None,,,,,,,,,,,,,,,00061,001,2026-01-19_17h44.07.535,MST_task,2024.2.0,59.79051796101555,2026-01-19 17h44.20.594177 +0530,
,Objects\299a.jpg,80,0,81,,,,,None,,,j,0.41952639998635277,None,,,,81,0,80,431.11625260004075,,,,,,,,,,,,,,,,,,,,,,,431.0995455000084,431.11625260004075,431.60127050004667,,,,,,,,,,,,,,,,,,,431.60941390000517,431.6347801000229,431.6347801000229,431.6347801000229,434.6119915000163,indoor,None,,,434.61202940001385,435.0639100000262,j,434.6284300000407,434.6284300000407,0.41952639998635277,None,,,,,,,,,,,00061,001,2026-01-19_17h44.07.535,MST_task,2024.2.0,59.79051796101555,2026-01-19 17h44.20.594177 +0530,
,Objects\353a.jpg,81,0,82,,,,,None,,,f,0.15957389998948202,None,,,,82,0,81,435.0805418000091,,,,,,,,,,,,,,,,,,,,,,,435.0640122000477,435.0805418000091,435.56514300004346,,,,,,,,,,,,,,,,,,,435.5824286999996,435.59856140002375,435.59856140002375,435.59856140002375,438.57572180003626,indoor,None,,,438.57575990003534,438.7602614000207,f,438.5923051999998,438.5923051999998,0.15957389998948202,None,,,,,,,,,,,00061,001,2026-01-19_17h44.07.535,MST_task,2024.2.0,59.79051796101555,2026-01-19 17h44.20.594177 +0530,
,Objects\341a.jpg,82,0,83,,,,,j,2.3373295000055805,0.14436699997168034,None,,,,,,83,0,82,438.77641710004536,,,,,,,,,,,,,,,,,,,,,,,438.76034870004514,438.77641710004536,439.2614034000435,,,,,,,,,,,,,,,,,,,439.26975979999406,439.2776004000334,439.2776004000334,439.2776004000334,442.2721739000408,indoor,j,2.3373295000055805,0.14436699997168034,442.27221620001364,442.2722283000476,None,,,,,,,,,,,,,,,00061,001,2026-01-19_17h44.07.535,MST_task,2024.2.0,59.79051796101555,2026-01-19 17h44.20.594177 +0530,
,Objects\289a.jpg,83,0,84,,,,,j,2.4487631000229158,0.1273996999952942,None,,,,,,84,0,83,442.2887161000399,,,,,,,,,,,,,,,,,,,,,,,442.2722947000293,442.2887161000399,442.7736664999975,,,,,,,,,,,,,,,,,,,442.7820107000298,442.80714320001425,442.80714320001425,442.80714320001425,445.7844272000366,indoor,j,2.4487631000229158,0.1273996999952942,445.784467999998,445.7844791000243,None,,,,,,,,,,,,,,,00061,001,2026-01-19_17h44.07.535,MST_task,2024.2.0,59.79051796101555,2026-01-19 17h44.20.594177 +0530,
,Objects\073a.jpg,84,0,85,,,,,f,1.711995699966792,0.13616619998356327,None,,,,,,85,0,84,445.80088410002645,,,,,,,,,,,,,,,,,,,,,,,445.7845462000114,445.80088410002645,446.2861311000306,,,,,,,,,,,,,,,,,,,446.29534990002867,446.31932270003017,446.31932270003017,446.31932270003017,449.2966368999914,shoe,f,1.711995699966792,0.13616619998356327,449.2981467000209,449.298179000034,None,,,,,,,,,,,,,,,00061,001,2026-01-19_17h44.07.535,MST_task,2024.2.0,59.79051796101555,2026-01-19 17h44.20.594177 +0530,
,Objects\280a.jpg,85,0,86,,,,,f,1.560106299992185,0.11968659999547526,None,,,,,,86,0,85,449.31346860004123,,,,,,,,,,,,,,,,,,,,,,,449.2982878999901,449.31346860004123,449.7987785000005,,,,,,,,,,,,,,,,,,,449.80184790003113,449.8155193999992,449.8155193999992,449.8155193999992,452.808969900012,shoe,f,1.560106299992185,0.11968659999547526,452.8090227000066,452.8090343000367,None,,,,,,,,,,,,,,,00061,001,2026-01-19_17h44.07.535,MST_task,2024.2.0,59.79051796101555,2026-01-19 17h44.20.594177 +0530,
,Objects\347a.jpg,86,0,87,,,,,None,,,f,0.029359300038777292,None,,,,87,0,86,452.8257775999955,,,,,,,,,,,,,,,,,,,,,,,452.80910260003293,452.8257775999955,453.310744300019,,,,,,,,,,,,,,,,,,,453.31391020002775,453.3282411000109,453.3282411000109,453.3282411000109,456.3212167000165,shoe,None,,,456.32126600004267,456.3721511000185,f,456.338070400001,456.338070400001,0.029359300038777292,None,,,,,,,,,,,00061,001,2026-01-19_17h44.07.535,MST_task,2024.2.0,59.79051796101555,2026-01-19 17h44.20.594177 +0530,
,Objects\135a.jpg,87,0,88,,,,,f,1.0703772999695502,0.11894590000156313,None,,,,,,88,0,87,456.3882489000098,,,,,,,,,,,,,,,,,,,,,,,456.3722386000445,456.3882489000098,456.873150600004,,,,,,,,,,,,,,,,,,,456.87601330003235,456.8897640000214,456.8897640000214,456.8897640000214,459.88372480002,shoe,f,1.0703772999695502,0.11894590000156313,459.8837676999974,459.88378000003286,None,,,,,,,,,,,,,,,00061,001,2026-01-19_17h44.07.535,MST_task,2024.2.0,59.79051796101555,2026-01-19 17h44.20.594177 +0530,
,Objects\100a.jpg,88,0,89,,,,,f,1.5571966000134125,0.14380640001036227,None,,,,,,89,0,88,459.9005443000351,,,,,,,,,,,,,,,,,,,,,,,459.8838883000426,459.9005443000351,460.3855299000279,,,,,,,,,,,,,,,,,,,460.3883109000162,460.4021313000121,460.4021313000121,460.4021313000121,463.3958583000349,shoe,f,1.5571966000134125,0.14380640001036227,463.39590260002296,463.39591500000097,None,,,,,,,,,,,,,,,00061,001,2026-01-19_17h44.07.535,MST_task,2024.2.0,59.79051796101555,2026-01-19 17h44.20.594177 +0530,
,Objects\275a.jpg,89,0,90,,,,,f,1.1891558000352234,0.16667629999574274,None,,,,,,90,0,89,463.41267950000474,,,,,,,,,,,,,,,,,,,,,,,463.39625270001125,463.41267950000474,463.89765780000016,,,,,,,,,,,,,,,,,,,463.90606830001343,463.93112310004653,463.93112310004653,463.93112310004653,466.9082594999927,shoe,f,1.1891558000352234,0.16667629999574274,466.9085032000439,466.9085157000227,None,,,,,,,,,,,,,,,00061,001,2026-01-19_17h44.07.535,MST_task,2024.2.0,59.79051796101555,2026-01-19 17h44.20.594177 +0530,
,Objects\154a.jpg,90,0,91,,,,,j,1.245218499971088,0.11962559999665245,None,,,,,,91,0,90,466.9248517000233,,,,,,,,,,,,,,,,,,,,,,,466.90858410001965,466.9248517000233,467.41008880001027,,,,,,,,,,,,,,,,,,,467.4179460000014,467.4261437000241,467.4261437000241,467.4261437000241,470.4205757000018,shoe,j,1.245218499971088,0.11962559999665245,470.42061690002447,470.4206284999964,None,,,,,,,,,,,,,,,00061,001,2026-01-19_17h44.07.535,MST_task,2024.2.0,59.79051796101555,2026-01-19 17h44.20.594177 +0530,
,Objects\245a.jpg,91,0,92,,,,,f,1.139637100044638,0.18449369998415932,None,,,,,,92,0,91,470.4372927999939,,,,,,,,,,,,,,,,,,,,,,,470.4207325000316,470.4372927999939,470.92253700003494,,,,,,,,,,,,,,,,,,,470.93315170001006,470.95560740004294,470.95560740004294,470.95560740004294,473.9328827999998,indoor,f,1.139637100044638,0.18449369998415932,473.9349598000408,473.9349784000078,None,,,,,,,,,,,,,,,00061,001,2026-01-19_17h44.07.535,MST_task,2024.2.0,59.79051796101555,2026-01-19 17h44.20.594177 +0530,
,Objects\327a.jpg,92,0,93,,,,,j,1.2675405000336468,0.16005139995831996,None,,,,,,93,0,92,473.9495702999993,,,,,,,,,,,,,,,,,,,,,,,473.9350491000223,473.9495702999993,474.43501529999776,,,,,,,,,,,,,,,,,,,474.4428706000326,474.4680300000473,474.4680300000473,474.4680300000473,477.44503840000834,indoor,j,1.2675405000336468,0.16005139995831996,477.44507930002874,477.4450921000098,None,,,,,474.4680300000473,,,,,,,,,,00061,001,2026-01-19_17h44.07.535,MST_task,2024.2.0,59.79051796101555,2026-01-19 17h44.20.594177 +0530,
,Objects\210a.jpg,93,0,94,,,,,j,2.5390316999983042,0.12798829999519512,None,,,,,,94,0,93,477.4618904000381,,,,,,,,,,,,,,,,,,,,,,,477.44517419999465,477.4618904000381,477.9468749000225,,,,,,,,,,,,,,,,,,,477.9602179999929,477.98033620003844,477.98033620003844,477.98033620003844,480.95803390000947,indoor,j,2.5390316999983042,0.12798829999519512,480.95809339999687,480.95810640003765,None,,,,,,,,,,,,,,,00061,001,2026-01-19_17h44.07.535,MST_task,2024.2.0,59.79051796101555,2026-01-19 17h44.20.594177 +0530,
,Objects\342a.jpg,94,0,95,,,,,None,,,f,0.3138310000067577,None,,,,95,0,94,480.9740629000007,,,,,,,,,,,,,,,,,,,,,,,480.95818479999434,480.9740629000007,481.45935160003137,,,,,,,,,,,,,,,,,,,481.4673257000395,481.4753128000302,481.4753128000302,481.4753128000302,484.4697575000464,indoor,None,,,484.46979850000935,484.80494659999385,f,484.48634380003205,484.48634380003205,0.3138310000067577,None,,,,,,,,,,,00061,001,2026-01-19_17h44.07.535,MST_task,2024.2.0,59.79051796101555,2026-01-19 17h44.20.594177 +0530,
,Objects\127a.jpg,95,0,96,,,,,f,2.157002400024794,0.15299549995688722,None,,,,,,96,0,95,484.8215352999978,,,,,,,,,,,,,,,,,,,,,,,484.8050326000084,484.8215352999978,485.30604950001,,,,,,,,,,,,,,,,,,,485.30865060002543,485.322576400009,485.322576400009,485.322576400009,488.3165590999997,indoor,f,2.157002400024794,0.15299549995688722,488.31660250003915,488.3166138000088,None,,,,,,,,,,,,,,,00061,001,2026-01-19_17h44.07.535,MST_task,2024.2.0,59.79051796101555,2026-01-19 17h44.20.594177 +0530,
,Objects\068a.jpg,96,0,97,,,,,j,1.0693952000001445,0.17513779998989776,None,,,,,,97,0,96,488.3331518000341,,,,,,,,,,,,,,,,,,,,,,,488.31668119999813,488.3331518000341,488.8184850999969,,,,,,,,,,,,,,,,,,,488.82110930001363,488.83495680004125,488.83495680004125,488.83495680004125,491.82887130003655,indoor,j,1.0693952000001445,0.17513779998989776,491.8289134000079,491.8289248000365,None,,,,,,,,,,,,,,,00061,001,2026-01-19_17h44.07.535,MST_task,2024.2.0,59.79051796101555,2026-01-19 17h44.20.594177 +0530,
,Objects\331a.jpg,97,0,98,,,,,j,2.7642554999911226,0.14367540000239387,None,,,,,,98,0,97,491.84545720001915,,,,,,,,,,,,,,,,,,,,,,,491.8289935000357,491.84545720001915,492.3306567000109,,,,,,,,,,,,,,,,,,,492.33702690002974,492.3472030000412,492.3472030000412,492.3472030000412,495.3410473000258,indoor,j,2.7642554999911226,0.14367540000239387,495.34112490003463,495.34114480001153,None,,,,,,,,,,,,,,,00061,001,2026-01-19_17h44.07.535,MST_task,2024.2.0,59.79051796101555,2026-01-19 17h44.20.594177 +0530,
,Objects\273a.jpg,98,0,99,,,,,j,2.395767599984538,0.11937680002301931,None,,,,,,99,0,98,495.3578705000109,,,,,,,,,,,,,,,,,,,,,,,495.34171599999536,495.3578705000109,495.8428439000272,,,,,,,,,,,,,,,,,,,495.85303510003723,495.87631600000896,495.87631600000896,495.87631600000896,498.8534623000305,shoe,j,2.395767599984538,0.11937680002301931,498.85554990003584,498.8555684000021,None,,,,,,,,,,,,,,,00061,001,2026-01-19_17h44.07.535,MST_task,2024.2.0,59.79051796101555,2026-01-19 17h44.20.594177 +0530,
,Objects\352a.jpg,99,0,100,,,,,f,1.7483579999534413,0.15168850001646206,None,,,,,,100,0,99,498.8700469000032,,,,,,,,,,,,,,,,,,,,,,,498.8556382000097,498.8700469000032,499.35559540003305,,,,,,,,,,,,,,,,,,,499.3628199000377,499.37169780000113,499.37169780000113,499.37169780000113,502.3657622000319,shoe,f,1.7483579999534413,0.15168850001646206,502.36607330001425,502.36608649999835,None,,,,,499.37169780000113,,,,,,,,,,00061,001,2026-01-19_17h44.07.535,MST_task,2024.2.0,59.79051796101555,2026-01-19 17h44.20.594177 +0530,
,Objects\076a.jpg,100,0,101,,,,,f,1.418554200034123,0.13686609995784238,None,,,,,,101,0,100,502.38226540002506,,,,,,,,,,,,,,,,,,,,,,,502.36615790001815,502.38226540002506,502.86755870003253,,,,,,,,,,,,,,,,,,,502.87610310001764,502.90079390001483,502.90079390001483,502.90079390001483,505.8779309000238,shoe,f,1.418554200034123,0.13686609995784238,505.87798320001457,505.87799440004164,None,,,,,,,,,,,,,,,00061,001,2026-01-19_17h44.07.535,MST_task,2024.2.0,59.79051796101555,2026-01-19 17h44.20.594177 +0530,
,Objects\322a.jpg,101,0,102,,,,,f,1.7784384000115097,0.10363680002046749,None,,,,,,102,0,101,505.89477479999186,,,,,,,,,,,,,,,,,,,,,,,505.878524300002,505.89477479999186,506.37973460002104,,,,,,,,,,,,,,,,,,,506.3882985000382,506.4132147000055,506.4132147000055,506.4132147000055,509.3903688000282,shoe,f,1.7784384000115097,0.10363680002046749,509.3904230000335,509.3904475000454,None,,,,,,,,,,,,,,,00061,001,2026-01-19_17h44.07.535,MST_task,2024.2.0,59.79051796101555,2026-01-19 17h44.20.594177 +0530,
,Objects\185a.jpg,102,0,103,,,,,f,1.5056401999900118,0.16757739998865873,None,,,,,,103,0,102,509.40695020003477,,,,,,,,,,,,,,,,,,,,,,,509.3905225000344,509.40695020003477,509.8922863000189,,,,,,,,,,,,,,,,,,,509.90082490001805,509.92575370002305,509.92575370002305,509.92575370002305,512.903229699994,shoe,f,1.5056401999900118,0.16757739998865873,512.9032791000209,512.9032917000004,None,,,,,,,,,,,,,,,00061,001,2026-01-19_17h44.07.535,MST_task,2024.2.0,59.79051796101555,2026-01-19 17h44.20.594177 +0530,
,Objects\358a.jpg,103,0,104,,,,,f,1.2735932999639772,0.14384190004784614,None,,,,,,104,0,103,512.9199224000331,,,,,,,,,,,,,,,,,,,,,,,512.9034383000107,512.9199224000331,513.4044565000222,,,,,,,,,,,,,,,,,,,513.4128532000468,513.4378481000313,513.4378481000313,513.4378481000313,516.4148230000283,shoe,f,1.2735932999639772,0.14384190004784614,516.4148767000297,516.4148888000054,None,,,,,,,,,,,,,,,00061,001,2026-01-19_17h44.07.535,MST_task,2024.2.0,59.79051796101555,2026-01-19 17h44.20.594177 +0530,
,Objects\324a.jpg,104,0,105,,,,,f,1.146650700015016,0.14396019995911047,None,,,,,,105,0,104,516.4316660999903,,,,,,,,,,,,,,,,,,,,,,,516.4149564999971,516.4316660999903,516.916645499994,,,,,,,,,,,,,,,,,,,516.9241738000419,516.9329419000424,516.9329419000424,516.9329419000424,519.9272154000355,shoe,f,1.146650700015016,0.14396019995911047,519.9273012999911,519.9273255000007,None,,,,,,,,,,,,,,,00061,001,2026-01-19_17h44.07.535,MST_task,2024.2.0,59.79051796101555,2026-01-19 17h44.20.594177 +0530,
,Objects\219a.jpg,105,0,106,,,,,None,,,j,0.47054240002762526,None,,,,106,0,105,519.9439955000416,,,,,,,,,,,,,,,,,,,,,,,519.9275106000132,519.9439955000416,520.4290216999943,,,,,,,,,,,,,,,,,,,520.439582800027,520.4624079000205,520.4624079000205,520.4624079000205,523.4395510000177,indoor,None,,,523.4411332000163,523.9419254999957,j,523.4566836000304,523.4566836000304,0.47054240002762526,None,,,,,,,,,,,00061,001,2026-01-19_17h44.07.535,MST_task,2024.2.0,59.79051796101555,2026-01-19 17h44.20.594177 +0530,
,Objects\126a.jpg,106,0,107,,,,,j,1.8120114000048488,0.12780020001810044,None,,,,,,107,0,106,523.9581150000449,,,,,,,,,,,,,,,,,,,,,,,523.9420153000392,523.9581150000449,524.4431148000294,,,,,,,,,,,,,,,,,,,524.4458337000106,524.4596243000124,524.4596243000124,524.4596243000124,527.4536069000023,indoor,j,1.8120114000048488,0.12780020001810044,527.4538084000233,527.453825500037,None,,,,,,,,,,,,,,,00061,001,2026-01-19_17h44.07.535,MST_task,2024.2.0,59.79051796101555,2026-01-19 17h44.20.594177 +0530,
,Objects\240a.jpg,107,0,108,,,,,None,,,f,0.5848420000402257,None,,,,108,0,107,527.4701982000261,,,,,,,,,,,,,,,,,,,,,,,527.4539019000367,527.4701982000261,527.95572670002,,,,,,,,,,,,,,,,,,,527.9644623000058,527.9887075000443,527.9887075000443,527.9887075000443,530.9669365000445,indoor,None,,,530.9669743000413,531.5688552000211,f,530.9826198000228,530.9826198000228,0.5848420000402257,None,,,,,,,,,,,00061,001,2026-01-19_17h44.07.535,MST_task,2024.2.0,59.79051796101555,2026-01-19 17h44.20.594177 +0530,
,Objects\081a.jpg,108,0,109,,,,,j,2.6008902000030503,0.13532870000926778,None,,,,,,109,0,108,531.5846141999937,,,,,,,,,,,,,,,,,,,,,,,531.5689478000277,531.5846141999937,532.0699823000468,,,,,,,,,,,,,,,,,,,532.0866214000271,532.1030631000176,532.1030631000176,532.1030631000176,535.0803747000173,indoor,j,2.6008902000030503,0.13532870000926778,535.0804285000195,535.0804553999915,None,,,,,,,,,,,,,,,00061,001,2026-01-19_17h44.07.535,MST_task,2024.2.0,59.79051796101555,2026-01-19 17h44.20.594177 +0530,
,Objects\359a.jpg,109,0,110,,,,,f,2.0555335999815725,0.16729750001104549,None,,,,,,110,0,109,535.0971962999902,,,,,,,,,,,,,,,,,,,,,,,535.0805489000049,535.0971962999902,535.5823406000272,,,,,,,,,,,,,,,,,,,535.5989501000149,535.6165488000261,535.6165488000261,535.6165488000261,538.5927840000368,indoor,f,2.0555335999815725,0.16729750001104549,538.5928259000066,538.592837800039,None,,,,,,,,,,,,,,,00061,001,2026-01-19_17h44.07.535,MST_task,2024.2.0,59.79051796101555,2026-01-19 17h44.20.594177 +0530,
,Objects\204a.jpg,110,0,111,,,,,j,1.705399300029967,0.136838499980513,None,,,,,,111,0,110,538.6093843000126,,,,,,,,,,,,,,,,,,,,,,,538.592937700043,538.6093843000126,539.0946853000205,,,,,,,,,,,,,,,,,,,539.1018009000109,539.110560000001,539.110560000001,539.110560000001,542.1049111000029,indoor,j,1.705399300029967,0.136838499980513,542.1049539000378,542.1049656000105,None,,,,,,,,,,,,,,,00061,001,2026-01-19_17h44.07.535,MST_task,2024.2.0,59.79051796101555,2026-01-19 17h44.20.594177 +0530,
,Objects\227a.jpg,111,0,112,,,,,f,1.8238860999699682,0.16028680000454187,None,,,,,,112,0,111,542.1215101000271,,,,,,,,,,,,,,,,,,,,,,,542.1050355000189,542.1215101000271,542.6067452999996,,,,,,,,,,,,,,,,,,,542.6129582000431,542.6232400000445,542.6232400000445,542.6232400000445,545.6171891000122,indoor,f,1.8238860999699682,0.16028680000454187,545.6173837000388,545.6174099000054,None,,,,,,,,,,,,,,,00061,001,2026-01-19_17h44.07.535,MST_task,2024.2.0,59.79051796101555,2026-01-19 17h44.20.594177 +0530,
,Objects\148a.jpg,112,0,113,,,,,f,2.2793545000022277,0.16814760002307594,None,,,,,,113,0,112,545.6338772000163,,,,,,,,,,,,,,,,,,,,,,,545.6174843000481,545.6338772000163,546.1191315000178,,,,,,,,,,,,,,,,,,,546.1300328000216,546.1522525000037,546.1522525000037,546.1522525000037,549.1301305000088,shoe,f,2.2793545000022277,0.16814760002307594,549.1324525999953,549.1324716000236,None,,,,,,,,,,,,,,,00061,001,2026-01-19_17h44.07.535,MST_task,2024.2.0,59.79051796101555,2026-01-19 17h44.20.594177 +0530,
,Objects\021a.jpg,113,0,114,,,,,None,,,j,0.21324649994494393,None,,,,114,0,113,549.1462075000163,,,,,,,,,,,,,,,,,,,,,,,549.1325418000342,549.1462075000163,549.6315628000302,,,,,,,,,,,,,,,,,,,549.6344516000245,549.6481509000296,549.6481509000296,549.6481509000296,552.6419923999929,shoe,None,,,552.642033000011,552.876716000028,j,552.6584050999954,552.6584050999954,0.21324649994494393,None,549.6481509000296,,,,,,,,,,00061,001,2026-01-19_17h44.07.535,MST_task,2024.2.0,59.79051796101555,2026-01-19 17h44.20.594177 +0530,
,Objects\153a.jpg,114,0,115,,,,,None,,,f,1.234788200003095,None,,,,115,0,114,552.8927153000259,,,,,,,,,,,,,,,,,,,,,,,552.876805900014,552.8927153000259,553.3779562000418,,,,,,,,,,,,,,,,,,,553.3809354000259,553.3943865000037,553.3943865000037,553.3943865000037,556.3884649000247,shoe,None,,,556.3885205000406,557.6433678000467,f,556.4049620000296,556.4049620000296,1.234788200003095,None,,,,,,,,,,,00061,001,2026-01-19_17h44.07.535,MST_task,2024.2.0,59.79051796101555,2026-01-19 17h44.20.594177 +0530,
,Objects\343a.jpg,115,0,116,,,,,f,2.1672775000333786,0.15077969996491447,None,,,,,,116,0,115,557.6593645000248,,,,,,,,,,,,,,,,,,,,,,,557.6434582000365,557.6593645000248,558.1443325,,,,,,,,,,,,,,,,,,,558.1492269000155,558.1610753000132,558.1610753000132,558.1610753000132,561.1549247000366,shoe,f,2.1672775000333786,0.15077969996491447,561.1549667000072,561.1549786000396,None,,,,,,,,,,,,,,,00061,001,2026-01-19_17h44.07.535,MST_task,2024.2.0,59.79051796101555,2026-01-19 17h44.20.594177 +0530,
,Objects\095a.jpg,116,0,117,,,,,None,,,f,1.1236901999800466,None,,,,117,0,116,561.1718327000272,,,,,,,,,,,,,,,,,,,,,,,561.1550458000274,561.1718327000272,561.6568318000063,,,,,,,,,,,,,,,,,,,561.6660231000278,561.6903779000277,561.6903779000277,561.6903779000277,564.6674160000402,shoe,None,,,564.6674582000123,565.8220331000048,f,564.6840743999928,564.6840743999928,1.1236901999800466,None,,,,,,,,,,,00061,001,2026-01-19_17h44.07.535,MST_task,2024.2.0,59.79051796101555,2026-01-19 17h44.20.594177 +0530,
,Objects\287a.jpg,117,0,118,,,,,f,2.203948499984108,0.16050890000769868,None,,,,,,118,0,117,565.8380477000028,,,,,,,,,,,,,,,,,,,,,,,565.822176799993,565.8380477000028,566.3234863000107,,,,,,,,,,,,,,,,,,,566.3298637000262,566.3395941000199,566.3395941000199,566.3395941000199,569.3336931000231,shoe,f,2.203948499984108,0.16050890000769868,569.3337352999952,569.3337485000375,None,,,,,,,,,,,,,,,00061,001,2026-01-19_17h44.07.535,MST_task,2024.2.0,59.79051796101555,2026-01-19 17h44.20.594177 +0530,
,Objects\231a.jpg,118,0,119,,,,,j,1.563528899976518,0.1365613000234589,None,,,,,,119,0,118,569.3503078999929,,,,,,,,,,,,,,,,,,,,,,,569.3338185000466,569.3503078999929,569.8353849000414,,,,,,,,,,,,,,,,,,,569.8416439000284,569.8519373000017,569.8519373000017,569.8519373000017,572.8469666000456,shoe,j,1.563528899976518,0.1365613000234589,572.8470209999941,572.847034400038,None,,,,,,,,,,,,,,,00061,001,2026-01-19_17h44.07.535,MST_task,2024.2.0,59.79051796101555,2026-01-19 17h44.20.594177 +0530,
,Objects\222a.jpg,119,0,120,,,,,j,2.466478599992115,0.11930399999255314,None,,,,,,120,0,119,572.8629107000306,,,,,,,,,,,,,,,,,,,,,,,572.8471135,572.8629107000306,573.347573600011,,,,,,,,,,,,,,,,,,,573.3557148000109,573.3810618999996,573.3810618999996,573.3810618999996,576.3581956000417,indoor,j,2.466478599992115,0.11930399999255314,576.3595754000125,576.3595941000385,None,,,,,,,,,,,,,,,00061,001,2026-01-19_17h44.07.535,MST_task,2024.2.0,59.79051796101555,2026-01-19 17h44.20.594177 +0530,
,Objects\129a.jpg,120,0,121,,,,,f,2.8743484999868087,None,None,,,,,,121,0,120,576.3747817000258,,,,,,,,,,,,,,,,,,,,,,,576.3596676000161,576.3747817000258,576.8601657000254,,,,,,,,,,,,,,,,,,,576.8684767000377,576.8932384999935,576.8932384999935,576.8932384999935,579.8703655000427,indoor,f,2.8743484999868087,None,579.8704065000056,579.8704182000365,None,,,,,,,,,,,,,,,00061,001,2026-01-19_17h44.07.535,MST_task,2024.2.0,59.79051796101555,2026-01-19 17h44.20.594177 +0530,
,Objects\175a.jpg,121,0,122,,,,,f,2.626653000013903,0.1836590999737382,None,,,,,,122,0,121,579.8872743000393,,,,,,,,,,,,,,,,,,,,,,,579.870485100022,579.8872743000393,580.3722155000432,,,,,,,,,,,,,,,,,,,580.3748246000032,580.3889095000341,580.3889095000341,580.3889095000341,583.3827928000246,indoor,f,2.626653000013903,0.1836590999737382,583.3828491000459,583.3828787000384,None,,,,,,,,,,,,,,,00061,001,2026-01-19_17h44.07.535,MST_task,2024.2.0,59.79051796101555,2026-01-19 17h44.20.594177 +0530,
,Objects\235a.jpg,122,0,123,,,,,f,1.8339532999671064,0.1913977000513114,None,,,,,,123,0,122,583.3993887000252,,,,,,,,,,,,,,,,,,,,,,,583.3829761000234,583.3993887000252,583.8846013000002,,,,,,,,,,,,,,,,,,,583.8934905999922,583.9178273000289,583.9178273000289,583.9178273000289,586.894992800022,indoor,f,1.8339532999671064,0.1913977000513114,586.8950358000002,586.8950472000288,None,,,,,,,,,,,,,,,00061,001,2026-01-19_17h44.07.535,MST_task,2024.2.0,59.79051796101555,2026-01-19 17h44.20.594177 +0530,
,Objects\063a.jpg,123,0,124,,,,,f,1.1942095999838784,0.17675889999372885,None,,,,,,124,0,123,586.911794100015,,,,,,,,,,,,,,,,,,,,,,,586.8951204000041,586.911794100015,587.3968174000038,,,,,,,,,,,,,,,,,,,587.4043884000275,587.4135207000072,587.4135207000072,587.4135207000072,590.4072255000356,indoor,f,1.1942095999838784,0.17675889999372885,590.4072680000099,590.4072801000439,None,,,,,,,,,,,,,,,00061,001,2026-01-19_17h44.07.535,MST_task,2024.2.0,59.79051796101555,2026-01-19 17h44.20.594177 +0530,
,Objects\179a.jpg,124,0,125,,,,,f,1.3536379000288434,0.18406709999544546,None,,,,,,125,0,124,590.4241084000096,,,,,,,,,,,,,,,,,,,,,,,590.4076143000275,590.4241084000096,590.9090739000239,,,,,,,,,,,,,,,,,,,590.9120650000405,590.9258706000401,590.9258706000401,590.9258706000401,593.9195850000251,indoor,f,1.3536379000288434,0.18406709999544546,593.9196311000269,593.9196431000018,None,,,,,,,,,,,,,,,00061,001,2026-01-19_17h44.07.535,MST_task,2024.2.0,59.79051796101555,2026-01-19 17h44.20.594177 +0530,
,Objects\031a.jpg,125,0,126,,,,,None,,,f,0.9826731999637559,None,,,,126,0,125,593.9363871000241,,,,,,,,,,,,,,,,,,,,,,,593.9199723000056,593.9363871000241,594.4214219000423,,,,,,,,,,,,,,,,,,,594.4322970000212,594.4549046000466,594.4549046000466,594.4549046000466,597.4319790000445,indoor,None,,,597.4321713999962,598.436034000013,f,597.448567799991,597.448567799991,0.9826731999637559,None,,,,,,,,,,,00061,001,2026-01-19_17h44.07.535,MST_task,2024.2.0,59.79051796101555,2026-01-19 17h44.20.594177 +0530,
,Objects\136a.jpg,126,0,127,,,,,f,1.5983749000006355,0.14266919996589422,None,,,,,,127,0,126,598.4521073999931,,,,,,,,,,,,,,,,,,,,,,,598.4361283000326,598.4521073999931,598.9373083999963,,,,,,,,,,,,,,,,,,,598.9419638999971,598.9538182000397,598.9538182000397,598.9538182000397,601.9479413999943,shoe,f,1.5983749000006355,0.14266919996589422,601.9495140000363,601.9495337000117,None,,,,,,,,,,,,,,,00061,001,2026-01-19_17h44.07.535,MST_task,2024.2.0,59.79051796101555,2026-01-19 17h44.20.594177 +0530,
,Objects\334a.jpg,127,0,128,,,,,j,2.637693400029093,0.11974069999996573,None,,,,,,128,0,127,601.9645083000069,,,,,,,,,,,,,,,,,,,,,,,601.9496661000303,601.9645083000069,602.4499263000325,,,,,,,,,,,,,,,,,,,602.452620600001,602.4662357000052,602.4662357000052,602.4662357000052,605.4599771000212,shoe,j,2.637693400029093,0.11974069999996573,605.4600168000325,605.460029400012,None,,,,,602.4662357000052,,,,,,,,,,00061,001,2026-01-19_17h44.07.535,MST_task,2024.2.0,59.79051796101555,2026-01-19 17h44.20.594177 +0530,
,Objects\218a.jpg,128,0,129,,,,,j,1.3396926000132225,0.15363740001339465,None,,,,,,129,0,128,605.4770399000263,,,,,,,,,,,,,,,,,,,,,,,605.4601036999957,605.4770399000263,605.9619086000021,,,,,,,,,,,,,,,,,,,605.9765168000013,605.9953825999983,605.9953825999983,605.9953825999983,608.9725788999931,shoe,j,1.3396926000132225,0.15363740001339465,608.9726202000165,608.9726316000451,None,,,,,,,,,,,,,,,00061,001,2026-01-19_17h44.07.535,MST_task,2024.2.0,59.79051796101555,2026-01-19 17h44.20.594177 +0530,
,Objects\149a.jpg,129,0,130,,,,,j,1.1310770999989472,0.11998889996903017,None,,,,,,130,0,129,608.9891613000073,,,,,,,,,,,,,,,,,,,,,,,608.9727470999933,608.9891613000073,609.4743703000131,,,,,,,,,,,,,,,,,,,609.4887915000436,609.5080018000444,609.5080018000444,609.5080018000444,612.4847589000128,shoe,j,1.1310770999989472,0.11998889996903017,612.4848120000097,612.4848237000406,None,,,,,,,,,,,,,,,00061,001,2026-01-19_17h44.07.535,MST_task,2024.2.0,59.79051796101555,2026-01-19 17h44.20.594177 +0530,
,Objects\094a.jpg,130,0,131,,,,,None,,,f,0.5852234999765642,None,,,,131,0,130,612.5015585999936,,,,,,,,,,,,,,,,,,,,,,,612.4851905000396,612.5015585999936,612.9865036000265,,,,,,,,,,,,,,,,,,,612.9898092999938,613.0031151000294,613.0031151000294,613.0031151000294,615.9968696000287,shoe,None,,,615.9969077000278,616.5996836000122,f,616.0137933000224,616.0137933000224,0.5852234999765642,None,,,,,,,,,,,00061,001,2026-01-19_17h44.07.535,MST_task,2024.2.0,59.79051796101555,2026-01-19 17h44.20.594177 +0530,
,Objects\170a.jpg,131,0,132,,,,,f,2.2888939999975264,0.14459270000224933,None,,,,,,132,0,131,616.6159451000276,,,,,,,,,,,,,,,,,,,,,,,616.5998243000358,616.6159451000276,617.1010372000164,,,,,,,,,,,,,,,,,,,617.1040807000245,617.1180533000152,617.1180533000152,617.1180533000152,620.1114140000427,shoe,f,2.2888939999975264,0.14459270000224933,620.1114573000232,620.1114694999997,None,,,,,,,,,,,,,,,00061,001,2026-01-19_17h44.07.535,MST_task,2024.2.0,59.79051796101555,2026-01-19 17h44.20.594177 +0530,
,Objects\167a.jpg,132,0,133,,,,,f,2.929369499965105,None,None,,,,,,133,0,132,620.128003699996,,,,,,,,,,,,,,,,,,,,,,,620.1115399000118,620.128003699996,620.6132628000341,,,,,,,,,,,,,,,,,,,620.6241960999905,620.6464478000416,620.6464478000416,620.6464478000416,623.6237444000435,shoe,f,2.929369499965105,None,623.6237982000457,623.6238266000291,None,,,,,,,,,,,,,,,00061,001,2026-01-19_17h44.07.535,MST_task,2024.2.0,59.79051796101555,2026-01-19 17h44.20.594177 +0530,
,Objects\049a.jpg,133,0,134,,,,,f,2.193642500031274,0.16786609997507185,None,,,,,,134,0,133,623.6405805000104,,,,,,,,,,,,,,,,,,,,,,,623.6239005000098,623.6405805000104,624.1255843000254,,,,,,,,,,,,,,,,,,,624.1291017000331,624.1422934000148,624.1422934000148,624.1422934000148,627.1358887000242,indoor,f,2.193642500031274,0.16786609997507185,627.1371568000177,627.1371752000414,None,,,,,,,,,,,,,,,00061,001,2026-01-19_17h44.07.535,MST_task,2024.2.0,59.79051796101555,2026-01-19 17h44.20.594177 +0530,
,Objects\121a.jpg,134,0,135,,,,,f,2.224277700006496,0.16772139997920021,None,,,,,,135,0,134,627.1528332000016,,,,,,,,,,,,,,,,,,,,,,,627.1377847000258,627.1528332000016,627.6376912000123,,,,,,,,,,,,,,,,,,,627.6469713000115,627.6715599000454,627.6715599000454,627.6715599000454,630.6484597999952,indoor,f,2.224277700006496,0.16772139997920021,630.64850260003,630.6485143000027,None,,,,,,,,,,,,,,,00061,001,2026-01-19_17h44.07.535,MST_task,2024.2.0,59.79051796101555,2026-01-19 17h44.20.594177 +0530,
,Objects\338a.jpg,135,0,136,,,,,f,2.168650000006892,0.15207019995432347,None,,,,,,136,0,135,630.6650691000395,,,,,,,,,,,,,,,,,,,,,,,630.6485968999914,630.6650691000395,631.150222700031,,,,,,,,,,,,,,,,,,,631.1569122000365,631.1666449999902,631.1666449999902,631.1666449999902,634.1612439000164,indoor,f,2.168650000006892,0.15207019995432347,634.1612886000075,634.161300900043,None,,,,,,,,,,,,,,,00061,001,2026-01-19_17h44.07.535,MST_task,2024.2.0,59.79051796101555,2026-01-19 17h44.20.594177 +0530,
,Objects\061a.jpg,136,0,137,,,,,j,1.1924671999877319,0.12770190002629533,None,,,,,,137,0,136,634.177363099996,,,,,,,,,,,,,,,,,,,,,,,634.1613705999916,634.177363099996,634.6625596000231,,,,,,,,,,,,,,,,,,,634.6770034999936,634.695793699997,634.695793699997,634.695793699997,637.6729223000002,indoor,j,1.1924671999877319,0.12770190002629533,637.6729651000351,637.6729807000374,None,,,,,,,,,,,,,,,00061,001,2026-01-19_17h44.07.535,MST_task,2024.2.0,59.79051796101555,2026-01-19 17h44.20.594177 +0530,
,Objects\131a.jpg,137,0,138,,,,,j,2.3523104999912903,0.17621710000094026,None,,,,,,138,0,137,637.6894791999948,,,,,,,,,,,,,,,,,,,,,,,637.6730533000082,637.6894791999948,638.1748325999943,,,,,,,,,,,,,,,,,,,638.1780496000429,638.1912153000012,638.1912153000012,638.1912153000012,641.1855972000048,indoor,j,2.3523104999912903,0.17621710000094026,641.185638600029,641.185650600004,None,,,,,,,,,,,,,,,00061,001,2026-01-19_17h44.07.535,MST_task,2024.2.0,59.79051796101555,2026-01-19 17h44.20.594177 +0530,
,Objects\278a.jpg,138,0,139,,,,,None,,,f,0.3818936999887228,None,,,,139,0,138,641.2020181000116,,,,,,,,,,,,,,,,,,,,,,,641.1857182999956,641.2020181000116,641.6871821000241,,,,,,,,,,,,,,,,,,,641.6967758000246,641.7202277000179,641.7202277000179,641.7202277000179,644.6973686999991,indoor,None,,,644.6974180000252,645.0995583999902,f,644.7141971000237,644.7141971000237,0.3818936999887228,None,,,,,,,,,,,00061,001,2026-01-19_17h44.07.535,MST_task,2024.2.0,59.79051796101555,2026-01-19 17h44.20.594177 +0530,
,Objects\084a.jpg,139,0,140,,,,,f,1.4151051999651827,0.16730010003084317,None,,,,,,140,0,139,645.1156297000125,,,,,,,,,,,,,,,,,,,,,,,645.0996444000048,645.1156297000125,645.6006906999974,,,,,,,,,,,,,,,,,,,645.6086619000416,645.6168064000085,645.6168064000085,645.6168064000085,648.6112399999984,indoor,f,1.4151051999651827,0.16730010003084317,648.6112961000181,648.6113082999946,None,,,,,,,,,,,,,,,00061,001,2026-01-19_17h44.07.535,MST_task,2024.2.0,59.79051796101555,2026-01-19 17h44.20.594177 +0530,
,Objects\201a.jpg,140,0,141,,,,,f,1.933164799993392,0.16014089999953285,None,,,,,,141,0,140,648.6279300000169,,,,,,,,,,,,,,,,,,,,,,,648.6115239000064,648.6279300000169,649.1128951000283,,,,,,,,,,,,,,,,,,,649.1207710000454,649.1464867000468,649.1464867000468,649.1464867000468,652.1237909999909,shoe,f,1.933164799993392,0.16014089999953285,652.125731600041,652.125749800005,None,,,,,,,,,,,,,,,00061,001,2026-01-19_17h44.07.535,MST_task,2024.2.0,59.79051796101555,2026-01-19 17h44.20.594177 +0530,
,Objects\269a.jpg,141,0,142,,,,,None,,,f,0.818550799973309,None,,,,142,0,141,652.1400903000031,,,,,,,,,,,,,,,,,,,,,,,652.1258206000202,652.1400903000031,652.626060300041,,,,,,,,,,,,,,,,,,,652.6357252000016,652.6585339000449,652.6585339000449,652.6585339000449,655.635718400008,shoe,None,,,655.6357689000433,656.4726281000185,f,655.6525067000184,655.6525067000184,0.818550799973309,None,652.6585339000449,,,,,,,,,,00061,001,2026-01-19_17h44.07.535,MST_task,2024.2.0,59.79051796101555,2026-01-19 17h44.20.594177 +0530,
,Objects\221a.jpg,142,0,143,,,,,None,,,j,1.9420761000365019,None,,,,143,0,142,656.4887844000477,,,,,,,,,,,,,,,,,,,,,,,656.4727151000407,656.4887844000477,656.9737440000172,,,,,,,,,,,,,,,,,,,656.9820464000222,657.0078815000015,657.0078815000015,657.0078815000015,659.9843542000162,shoe,None,,,659.9843924000161,661.958715100016,j,660.0010873000138,660.0010873000138,1.9420761000365019,None,,,,,,,,,,,00061,001,2026-01-19_17h44.07.535,MST_task,2024.2.0,59.79051796101555,2026-01-19 17h44.20.594177 +0530,
,Objects\176a.jpg,143,0,144,,,,,j,2.171010100049898,0.10369929997250438,None,,,,,,144,0,143,661.9744612000068,,,,,,,,,,,,,,,,,,,,,,,661.9588059000089,661.9744612000068,662.4599176000338,,,,,,,,,,,,,,,,,,,662.4694156000041,662.4931098000379,662.4931098000379,662.4931098000379,665.470143100014,shoe,j,2.171010100049898,0.10369929997250438,665.4701991000329,665.4702114000102,None,,,,,,,,,,,,,,,00061,001,2026-01-19_17h44.07.535,MST_task,2024.2.0,59.79051796101555,2026-01-19 17h44.20.594177 +0530,
,Objects\355a.jpg,144,0,145,,,,,f,2.2499603000469506,0.1839674999937415,None,,,,,,145,0,144,665.4869462000206,,,,,,,,,,,,,,,,,,,,,,,665.4713481999934,665.4869462000206,665.9719468000112,,,,,,,,,,,,,,,,,,,665.9802494000178,666.0053900000057,666.0053900000057,666.0053900000057,668.982950900041,shoe,f,2.2499603000469506,0.1839674999937415,668.9829931000131,668.9830051000463,None,,,,,,,,,,,,,,,00061,001,2026-01-19_17h44.07.535,MST_task,2024.2.0,59.79051796101555,2026-01-19 17h44.20.594177 +0530,
,Objects\246a.jpg,145,0,146,,,,,f,1.6348053999827243,0.16172000003280118,None,,,,,,146,0,145,668.9991595000029,,,,,,,,,,,,,,,,,,,,,,,668.9830733000417,668.9991595000029,669.4843417000375,,,,,,,,,,,,,,,,,,,669.4922288000234,669.5004327000352,669.5004327000352,669.5004327000352,672.4949892000295,shoe,f,1.6348053999827243,0.16172000003280118,672.495043300034,672.495055300009,None,,,,,,,,,,,,,,,00061,001,2026-01-19_17h44.07.535,MST_task,2024.2.0,59.79051796101555,2026-01-19 17h44.20.594177 +0530,
,Objects\004a.jpg,146,0,147,,,,,None,,,j,None,None,,,,147,0,146,672.511686700047,,,,,,,,,,,,,,,,,,,,,,,672.4954065000056,672.511686700047,672.9966357999947,,,,,,,,,,,,,,,,,,,672.9998553000041,673.013390200038,673.013390200038,673.013390200038,676.0070286000264,shoe,None,,,676.0070834000362,676.158297499991,j,676.0239625000395,676.0239625000395,None,None,,,,,,,,,,,00061,001,2026-01-19_17h44.07.535,MST_task,2024.2.0,59.79051796101555,2026-01-19 17h44.20.594177 +0530,
,Objects\143a.jpg,147,0,148,,,,,j,2.41852879995713,0.1601154000381939,None,,,,,,148,0,147,676.1743790000328,,,,,,,,,,,,,,,,,,,,,,,676.1583869000315,676.1743790000328,676.6594463000074,,,,,,,,,,,,,,,,,,,676.6701930999989,676.6926968999906,676.6926968999906,676.6926968999906,679.669856499997,indoor,j,2.41852879995713,0.1601154000381939,679.6718844000134,679.6719000000157,None,,,,,,,,,,,,,,,00061,001,2026-01-19_17h44.07.535,MST_task,2024.2.0,59.79051796101555,2026-01-19 17h44.20.594177 +0530,
,Objects\301a.jpg,148,0,149,,,,,None,,,f,0.9846974000101909,None,,,,149,0,148,679.686875000014,,,,,,,,,,,,,,,,,,,,,,,679.6719677000074,679.686875000014,680.1719223000109,,,,,,,,,,,,,,,,,,,680.1746419999981,680.1883937999955,680.1883937999955,680.1883937999955,683.1822015999933,indoor,None,,,683.1822469000472,684.1862477000104,f,683.1989870000398,683.1989870000398,0.9846974000101909,None,680.1883937999955,,,,,,,,,,00061,001,2026-01-19_17h44.07.535,MST_task,2024.2.0,59.79051796101555,2026-01-19 17h44.20.594177 +0530,
,Objects\118a.jpg,149,0,150,,,,,None,,,j,0.03809250000631437,None,,,,150,0,149,684.20250210003,,,,,,,,,,,,,,,,,,,,,,,684.1863484000205,684.20250210003,684.6877184000332,,,,,,,,,,,,,,,,,,,684.6909022000036,684.7044621999958,684.7044621999958,684.7044621999958,687.6980711999931,indoor,None,,,687.6982535000425,687.7657421000185,j,687.7146555000218,687.7146555000218,0.03809250000631437,None,,,,,,,,,,,00061,001,2026-01-19_17h44.07.535,MST_task,2024.2.0,59.79051796101555,2026-01-19 17h44.20.594177 +0530,
,Objects\023a.jpg,150,0,151,,,,,f,1.6267910999595188,0.16879540000809357,None,,,,,,151,0,150,687.7815752000315,,,,,,,,,,,,,,,,,,,,,,,687.7658310999977,687.7815752000315,688.2666448000236,,,,,,,,,,,,,,,,,,,688.2773178000352,688.3001310999971,688.3001310999971,688.3001310999971,691.2777242000448,indoor,f,1.6267910999595188,0.16879540000809357,691.2777815000154,691.2777945999987,None,,,,,,,,,,,,,,,00061,001,2026-01-19_17h44.07.535,MST_task,2024.2.0,59.79051796101555,2026-01-19 17h44.20.594177 +0530,
,Objects\233a.jpg,151,0,152,,,,,j,1.036038899968844,0.15250630001537502,None,,,,,,152,0,151,691.2952891000314,,,,,,,,,,,,,,,,,,,,,,,691.2778671000269,691.2952891000314,691.7793373000459,,,,,,,,,,,,,,,,,,,691.7867377999937,691.795198900043,691.795198900043,691.795198900043,694.7896592000034,indoor,j,1.036038899968844,0.15250630001537502,694.7899917000323,694.7900057000224,None,,,,,,,,,,,,,,,00061,001,2026-01-19_17h44.07.535,MST_task,2024.2.0,59.79051796101555,2026-01-19 17h44.20.594177 +0530,
,Objects\319a.jpg,152,0,153,,,,,f,1.4429985999595374,0.15193570003611967,None,,,,,,153,0,152,694.8061795000103,,,,,,,,,,,,,,,,,,,,,,,694.7900763000362,694.8061795000103,695.2914668000303,,,,,,,,,,,,,,,,,,,695.2994122999953,695.3245931999991,695.3245931999991,695.3245931999991,698.3017831000034,indoor,f,1.4429985999595374,0.15193570003611967,698.3018372000079,698.301849200041,None,,,,,,,,,,,,,,,00061,001,2026-01-19_17h44.07.535,MST_task,2024.2.0,59.79051796101555,2026-01-19 17h44.20.594177 +0530,
,Objects\069a.jpg,153,0,154,,,,,j,1.9796907000127248,0.11973209999268875,None,,,,,,154,0,153,698.3185467000003,,,,,,,,,,,,,,,,,,,,,,,698.3019169000327,698.3185467000003,698.8039119000314,,,,,,,,,,,,,,,,,,,698.8108084000414,698.8204235000303,698.8204235000303,698.8204235000303,701.8140329000307,indoor,j,1.9796907000127248,0.11973209999268875,701.8140845000162,701.8140960000455,None,,,,,,,,,,,,,,,00061,001,2026-01-19_17h44.07.535,MST_task,2024.2.0,59.79051796101555,2026-01-19 17h44.20.594177 +0530,
,Objects\096a.jpg,154,0,155,,,,,None,,,j,0.22472900000866503,None,,,,155,0,154,701.8308843999985,,,,,,,,,,,,,,,,,,,,,,,701.8141628000303,701.8308843999985,702.3158381000394,,,,,,,,,,,,,,,,,,,702.3206763000344,702.3327015000395,702.3327015000395,702.3327015000395,705.3264720000443,shoe,None,,,705.3283976000384,705.5781842000433,j,705.3430618999992,705.3430618999992,0.22472900000866503,None,,,,,,,,,,,00061,001,2026-01-19_17h44.07.535,MST_task,2024.2.0,59.79051796101555,2026-01-19 17h44.20.594177 +0530,
,Objects\165a.jpg,155,0,156,,,,,f,1.1276324999635108,0.16026030003558844,None,,,,,,156,0,155,705.5939474000479,,,,,,,,,,,,,,,,,,,,,,,705.5782810000237,705.5939474000479,706.0791435000137,,,,,,,,,,,,,,,,,,,706.0819195000222,706.0957884000381,706.0957884000381,706.0957884000381,709.0895152000012,shoe,f,1.1276324999635108,0.16026030003558844,709.0895683999988,709.0895806000335,None,,,,,,,,,,,,,,,00061,001,2026-01-19_17h44.07.535,MST_task,2024.2.0,59.79051796101555,2026-01-19 17h44.20.594177 +0530,
,Objects\161a.jpg,156,0,157,,,,,f,0.8792848999728449,0.20927520003169775,None,,,,,,157,0,156,709.1064764000475,,,,,,,,,,,,,,,,,,,,,,,709.0896855000174,709.1064764000475,709.5913116000011,,,,,,,,,,,,,,,,,,,709.5945766000077,709.608235599997,709.608235599997,709.608235599997,712.6018131000455,shoe,f,0.8792848999728449,0.20927520003169775,712.6018536000047,712.6018657000386,None,,,,,,,,,,,,,,,00061,001,2026-01-19_17h44.07.535,MST_task,2024.2.0,59.79051796101555,2026-01-19 17h44.20.594177 +0530,
,Objects\206a.jpg,157,0,158,,,,,j,1.6783504000050016,0.12099429999943823,None,,,,,,158,0,157,712.6186524000368,,,,,,,,,,,,,,,,,,,,,,,712.6019337000325,712.6186524000368,713.1036285000155,,,,,,,,,,,,,,,,,,,713.1105263000354,713.1205989000155,713.1205989000155,713.1205989000155,716.1141251000226,shoe,j,1.6783504000050016,0.12099429999943823,716.1141968000447,716.1142145000049,None,,,,,,,,,,,,,,,00061,001,2026-01-19_17h44.07.535,MST_task,2024.2.0,59.79051796101555,2026-01-19 17h44.20.594177 +0530,
,Objects\225a.jpg,158,0,159,,,,,f,2.4238612000481226,0.1913586999871768,None,,,,,,159,0,158,716.1309645000147,,,,,,,,,,,,,,,,,,,,,,,716.1144370000111,716.1309645000147,716.6159429000109,,,,,,,,,,,,,,,,,,,716.623073900002,716.6323526999913,716.6323526999913,716.6323526999913,719.6264085000148,shoe,f,2.4238612000481226,0.1913586999871768,719.626468500006,719.6264803000377,None,,,,,,,,,,,,,,,00061,001,2026-01-19_17h44.07.535,MST_task,2024.2.0,59.79051796101555,2026-01-19 17h44.20.594177 +0530,
,Objects\276a.jpg,159,0,160,,,,,f,1.2216850999975577,0.18426999996881932,None,,,,,,160,0,159,719.6434427000349,,,,,,,,,,,,,,,,,,,,,,,719.6265499000438,719.6434427000349,720.128477899998,,,,,,,,,,,,,,,,,,,720.1318228000309,720.1451972000068,720.1451972000068,720.1451972000068,723.1389606000157,shoe,f,1.2216850999975577,0.18426999996881932,723.1392793999985,723.1392918000347,None,,,,,,,,,,,,,,,00061,001,2026-01-19_17h44.07.535,MST_task,2024.2.0,59.79051796101555,2026-01-19 17h44.20.594177 +0530,
,Objects\251a.jpg,160,0,161,,,,,f,2.0460882000043057,0.15963480004575104,None,,,,,,161,0,160,723.1554452000419,,,,,,,,,,,,,,,,,,,,,,,723.139358800021,723.1554452000419,723.6406571000116,,,,,,,,,,,,,,,,,,,723.6468855999992,723.6571841000114,723.6571841000114,723.6571841000114,726.6511461000191,shoe,f,2.0460882000043057,0.15963480004575104,726.6511902000057,726.6512029000442,None,,,,,,,,,,,,,,,00061,001,2026-01-19_17h44.07.535,MST_task,2024.2.0,59.79051796101555,2026-01-19 17h44.20.594177 +0530,
,Objects\017a.jpg,161,0,162,,,,,None,,,f,1.0275396999786608,None,,,,162,0,161,726.6677367000375,,,,,,,,,,,,,,,,,,,,,,,726.6512773000286,726.6677367000375,727.1529334000079,,,,,,,,,,,,,,,,,,,727.1623919000267,727.186176999996,727.186176999996,727.186176999996,730.1635201000026,indoor,None,,,730.1648772000335,731.2183695000131,f,730.1801713000168,730.1801713000168,1.0275396999786608,None,,,,,,,,,,,00061,001,2026-01-19_17h44.07.535,MST_task,2024.2.0,59.79051796101555,2026-01-19 17h44.20.594177 +0530,
,Objects\141a.jpg,162,0,163,,,,,None,,,f,0.42965350003214553,None,,,,163,0,162,731.2345077000209,,,,,,,,,,,,,,,,,,,,,,,731.2184723000391,731.2345077000209,731.7190829000319,,,,,,,,,,,,,,,,,,,731.7220627000206,731.7357582999975,731.7357582999975,731.7357582999975,734.729442800046,indoor,None,,,734.729485000018,735.1816789000295,f,734.7460192000144,734.7460192000144,0.42965350003214553,None,,,,,,,,,,,00061,001,2026-01-19_17h44.07.535,MST_task,2024.2.0,59.79051796101555,2026-01-19 17h44.20.594177 +0530,
,Objects\293a.jpg,163,0,164,,,,,f,1.1317185999942012,0.1846512000192888,None,,,,,,164,0,163,735.1977336000418,,,,,,,,,,,,,,,,,,,,,,,735.1817650000448,735.1977336000418,735.6827857000171,,,,,,,,,,,,,,,,,,,735.6887130000396,735.6993278000155,735.6993278000155,735.6993278000155,738.6932242000476,indoor,f,1.1317185999942012,0.1846512000192888,738.6932732000132,738.6932854999905,None,,,,,,,,,,,,,,,00061,001,2026-01-19_17h44.07.535,MST_task,2024.2.0,59.79051796101555,2026-01-19 17h44.20.594177 +0530,
,Objects\368a.jpg,164,0,165,,,,,f,2.1141291999956593,0.17637579998699948,None,,,,,,165,0,164,738.7100629000342,,,,,,,,,,,,,,,,,,,,,,,738.693796800042,738.7100629000342,739.1950172000215,,,,,,,,,,,,,,,,,,,739.2101878999965,739.2287232000381,739.2287232000381,739.2287232000381,742.205858100031,indoor,f,2.1141291999956593,0.17637579998699948,742.2059142999933,742.2059264000272,None,,,,,,,,,,,,,,,00061,001,2026-01-19_17h44.07.535,MST_task,2024.2.0,59.79051796101555,2026-01-19 17h44.20.594177 +0530,
,Objects\138a.jpg,165,0,166,,,,,j,0.9789446999784559,0.13620549999177456,None,,,,,,166,0,165,742.222327800002,,,,,,,,,,,,,,,,,,,,,,,742.2059954000288,742.222327800002,742.7072963000392,,,,,,,,,,,,,,,,,,,742.7147993000108,742.7240810000221,742.7240810000221,742.7240810000221,745.7178451000364,indoor,j,0.9789446999784559,0.13620549999177456,745.717887900013,745.7179003999918,None,,,,,,,,,,,,,,,00061,001,2026-01-19_17h44.07.535,MST_task,2024.2.0,59.79051796101555,2026-01-19 17h44.20.594177 +0530,
,Objects\050a.jpg,166,0,167,,,,,j,1.5788102999795228,0.12023140001110733,None,,,,,,167,0,166,745.7346197000006,,,,,,,,,,,,,,,,,,,,,,,745.7183714000275,745.7346197000006,746.219619200041,,,,,,,,,,,,,,,,,,,746.2222096000332,746.2365380999981,746.2365380999981,746.2365380999981,749.2300905000302,indoor,j,1.5788102999795228,0.12023140001110733,749.230134500016,749.2301463999902,None,,,,,,,,,,,,,,,00061,001,2026-01-19_17h44.07.535,MST_task,2024.2.0,59.79051796101555,2026-01-19 17h44.20.594177 +0530,
,Objects\019a.jpg,167,0,168,,,,,None,,,f,0.8010254999971949,None,,,,168,0,167,749.2469286000123,,,,,,,,,,,,,,,,,,,,,,,749.2302150000469,749.2469286000123,749.7318899999955,,,,,,,,,,,,,,,,,,,749.7427223999985,749.7654893000145,749.7654893000145,749.7654893000145,752.7428155000089,indoor,None,,,752.7428530000034,753.5628660999937,f,752.7591054000077,752.7591054000077,0.8010254999971949,None,,,,,,,,,,,00061,001,2026-01-19_17h44.07.535,MST_task,2024.2.0,59.79051796101555,2026-01-19 17h44.20.594177 +0530,
,Objects\307a.jpg,168,0,169,,,,,j,1.6385708999587223,0.14460580004379153,None,,,,,,169,0,168,753.5789213000098,,,,,,,,,,,,,,,,,,,,,,,753.5629555000341,753.5789213000098,754.0637022000155,,,,,,,,,,,,,,,,,,,754.0678974000039,754.0804813000141,754.0804813000141,754.0804813000141,757.0742761000292,shoe,j,1.6385708999587223,0.14460580004379153,757.0762617000146,757.0762801000383,None,,,,,,,,,,,,,,,00061,001,2026-01-19_17h44.07.535,MST_task,2024.2.0,59.79051796101555,2026-01-19 17h44.20.594177 +0530,
,Objects\160a.jpg,169,0,170,,,,,f,1.8231068999739364,0.222961799998302,None,,,,,,170,0,169,757.091055100027,,,,,,,,,,,,,,,,,,,,,,,757.0763494000421,757.091055100027,757.5764241000288,,,,,,,,,,,,,,,,,,,757.5796888000332,757.5927716000006,757.5927716000006,757.5927716000006,760.586563000048,shoe,f,1.8231068999739364,0.222961799998302,760.5866197000141,760.586633400002,None,,,,,757.5927716000006,,,,,,,,,,00061,001,2026-01-19_17h44.07.535,MST_task,2024.2.0,59.79051796101555,2026-01-19 17h44.20.594177 +0530,
,Objects\057a.jpg,170,0,171,,,,,f,1.3972659999853931,0.16012040001805872,None,,,,,,171,0,170,760.6034799000481,,,,,,,,,,,,,,,,,,,,,,,760.5868645000155,760.6034799000481,761.0883593000472,,,,,,,,,,,,,,,,,,,761.0983701000223,761.1218109000474,761.1218109000474,761.1218109000474,764.099119200022,shoe,f,1.3972659999853931,0.16012040001805872,764.0991604000446,764.0991727000219,None,,,,,,,,,,,,,,,00061,001,2026-01-19_17h44.07.535,MST_task,2024.2.0,59.79051796101555,2026-01-19 17h44.20.594177 +0530,
,Objects\114a.jpg,171,0,172,,,,,f,1.0460582000087015,0.15164779999759048,None,,,,,,172,0,171,764.1155387000181,,,,,,,,,,,,,,,,,,,,,,,764.0992400000105,764.1155387000181,764.6010202000034,,,,,,,,,,,,,,,,,,,764.6104209999903,764.6339841000154,764.6339841000154,764.6339841000154,767.6111613000394,shoe,f,1.0460582000087015,0.15164779999759048,767.6112024000031,767.6112142000347,None,,,,,,,,,,,,,,,00061,001,2026-01-19_17h44.07.535,MST_task,2024.2.0,59.79051796101555,2026-01-19 17h44.20.594177 +0530,
,Objects\092a.jpg,172,0,173,,,,,f,1.941941900004167,0.08848999999463558,None,,,,,,173,0,172,767.6280715000466,,,,,,,,,,,,,,,,,,,,,,,767.6114340000204,767.6280715000466,768.113521500025,,,,,,,,,,,,,,,,,,,768.1165383000043,768.1296635000035,768.1296635000035,768.1296635000035,771.1234878000105,shoe,f,1.941941900004167,0.08848999999463558,771.1235330000054,771.1235453000409,None,,,,,,,,,,,,,,,00061,001,2026-01-19_17h44.07.535,MST_task,2024.2.0,59.79051796101555,2026-01-19 17h44.20.594177 +0530,
,Objects\001a.jpg,173,0,174,,,,,f,1.3969807000248693,0.16114829998696223,None,,,,,,174,0,173,771.1402786000399,,,,,,,,,,,,,,,,,,,,,,,771.1236610999913,771.1402786000399,771.6254020000342,,,,,,,,,,,,,,,,,,,771.628699199995,771.6420408000122,771.6420408000122,771.6420408000122,774.6357517000288,shoe,f,1.3969807000248693,0.16114829998696223,774.6357963000191,774.6358087999979,None,,,,,,,,,,,,,,,00061,001,2026-01-19_17h44.07.535,MST_task,2024.2.0,59.79051796101555,2026-01-19 17h44.20.594177 +0530,
,Objects\024a.jpg,174,0,175,,,,,f,0.9488561999751255,0.15216520003741607,None,,,,,,175,0,174,774.652552900021,,,,,,,,,,,,,,,,,,,,,,,774.6360308000003,774.652552900021,775.1376040000468,,,,,,,,,,,,,,,,,,,775.1406726000132,775.1542828000383,775.1542828000383,775.1542828000383,778.1481294000405,shoe,f,0.9488561999751255,0.15216520003741607,778.1483344000299,778.148347600014,None,,,,,,,,,,,,,,,00061,001,2026-01-19_17h44.07.535,MST_task,2024.2.0,59.79051796101555,2026-01-19 17h44.20.594177 +0530,
,Objects\200a.jpg,175,0,176,,,,,f,1.7731139999814332,0.1361324000172317,None,,,,,,176,0,175,778.1647316000308,,,,,,,,,,,,,,,,,,,,,,,778.148469000007,778.1647316000308,778.6500695000286,,,,,,,,,,,,,,,,,,,778.6579014000017,778.6664730000193,778.6664730000193,778.6664730000193,781.6606614000048,indoor,f,1.7731139999814332,0.1361324000172317,781.662569600041,781.6625868999981,None,,,,,,,,,,,,,,,00061,001,2026-01-19_17h44.07.535,MST_task,2024.2.0,59.79051796101555,2026-01-19 17h44.20.594177 +0530,
,Objects\145a.jpg,176,0,177,,,,,j,1.9740196999628097,0.13476390001596883,None,,,,,,177,0,176,781.677092500031,,,,,,,,,,,,,,,,,,,,,,,781.6626539000426,781.677092500031,782.1624626000412,,,,,,,,,,,,,,,,,,,782.1703581000329,782.1784294000245,782.1784294000245,782.1784294000245,785.1727419000235,indoor,j,1.9740196999628097,0.13476390001596883,785.1730492000352,785.1730662999908,None,,,,,782.1784294000245,,,,,,,,,,00061,001,2026-01-19_17h44.07.535,MST_task,2024.2.0,59.79051796101555,2026-01-19 17h44.20.594177 +0530,
,Objects\060a.jpg,177,0,178,,,,,f,1.5321365999989212,0.16004439996322617,None,,,,,,178,0,177,785.1894686000305,,,,,,,,,,,,,,,,,,,,,,,785.173135399993,785.1894686000305,785.674528100004,,,,,,,,,,,,,,,,,,,785.6775848999969,785.6910472000018,785.6910472000018,785.6910472000018,788.685043000034,indoor,f,1.5321365999989212,0.16004439996322617,788.6850846000016,788.6850963000325,None,,,,,,,,,,,,,,,00061,001,2026-01-19_17h44.07.535,MST_task,2024.2.0,59.79051796101555,2026-01-19 17h44.20.594177 +0530,
,Objects\268a.jpg,178,0,179,,,,,None,,,f,0.6890344000421464,None,,,,179,0,178,788.7016361000133,,,,,,,,,,,,,,,,,,,,,,,788.6851623000111,788.7016361000133,789.1866302000126,,,,,,,,,,,,,,,,,,,789.2018453000346,789.2202007000451,789.2202007000451,789.2202007000451,792.1974638000247,indoor,None,,,792.1975062999991,792.9168935000198,f,792.2140065000276,792.2140065000276,0.6890344000421464,None,,,,,,,,,,,00061,001,2026-01-19_17h44.07.535,MST_task,2024.2.0,59.79051796101555,2026-01-19 17h44.20.594177 +0530,
,Objects\013a.jpg,179,0,180,,,,,None,,,f,2.2977850000024773,None,,,,180,0,179,792.9331160000293,,,,,,,,,,,,,,,,,,,,,,,792.9169836000074,792.9331160000293,793.4183228000184,,,,,,,,,,,,,,,,,,,793.4264689999982,793.4342883999925,793.4342883999925,793.4342883999925,796.428831600002,indoor,None,,,796.428881400032,798.7546999999904,f,796.4454227000242,796.4454227000242,2.2977850000024773,None,,,,,,,,,,,00061,001,2026-01-19_17h44.07.535,MST_task,2024.2.0,59.79051796101555,2026-01-19 17h44.20.594177 +0530,
,Objects\059a.jpg,180,0,181,,,,,f,2.8231472999905236,None,None,,,,,,181,0,180,798.7706578000216,,,,,,,,,,,,,,,,,,,,,,,798.754792599997,798.7706578000216,799.2557942999993,,,,,,,,,,,,,,,,,,,799.2586699000094,799.2725885999971,799.2725885999971,799.2725885999971,802.2662993000122,indoor,f,2.8231472999905236,None,802.266343299998,802.266355800035,None,,,,,,,,,,,,,,,00061,001,2026-01-19_17h44.07.535,MST_task,2024.2.0,59.79051796101555,2026-01-19 17h44.20.594177 +0530,
,Objects\142a.jpg,181,0,182,,,,,f,1.7906231000088155,0.1682862999732606,None,,,,,,182,0,181,802.2831047000363,,,,,,,,,,,,,,,,,,,,,,,802.2664242000319,802.2831047000363,802.7678758000256,,,,,,,,,,,,,,,,,,,802.7706639000098,802.7845183000318,802.7845183000318,802.7845183000318,805.7781120000291,indoor,f,1.7906231000088155,0.1682862999732606,805.7781538999989,805.778165900032,None,,,,,,,,,,,,,,,00061,001,2026-01-19_17h44.07.535,MST_task,2024.2.0,59.79051796101555,2026-01-19 17h44.20.594177 +0530,
,Objects\169a.jpg,182,0,183,,,,,None,,,j,2.252332000003662,None,,,,183,0,182,805.794958500017,,,,,,,,,,,,,,,,,,,,,,,805.778238400002,805.794958500017,806.2798956000479,,,,,,,,,,,,,,,,,,,806.2841038000188,806.2970277999993,806.2970277999993,806.2970277999993,809.2905671000481,shoe,None,,,809.2925979000283,811.56579100003,j,809.3072401999962,809.3072401999962,2.252332000003662,None,,,,,,,,,,,00061,001,2026-01-19_17h44.07.535,MST_task,2024.2.0,59.79051796101555,2026-01-19 17h44.20.594177 +0530,
