thisN,thisTrialN,thisRepN,key_resp_3.keys,key_resp_3.rt,key_resp_3.duration,trials.thisRepN,trials.thisTrialN,trials.thisN,thisRow.t,notes,intro_page.started,text.started,key_resp.started,intro_page.stopped,key_resp.keys,key_resp.rt,key_resp.duration,instructions.started,text_2.started,key_resp_2.started,instructions.stopped,key_resp_2.keys,key_resp_2.rt,key_resp_2.duration,demo1.started,image_1.started,image_2.started,text_7.started,key_resp_6.started,text_9.started,demo1.stopped,key_resp_6.keys,key_resp_6.rt,key_resp_6.duration,demo3.started,image_5.started,image_6.started,text_11.started,text_12.started,key_resp_8.started,demo3.stopped,key_resp_8.keys,key_resp_8.rt,key_resp_8.duration,demo_conclusion.started,text_13.started,key_resp_9.started,demo_conclusion.stopped,key_resp_9.keys,key_resp_9.rt,key_resp_9.duration,start_test.started,text_6.started,key_resp_5.started,start_test.stopped,key_resp_5.keys,key_resp_5.rt,key_resp_5.duration,ISI.started,text_4.started,text_4.stopped,ISI.stopped,routine_1.started,image.started,text_3.started,key_resp_3.started,routine_1.stopped,image_path,position_of_stimuli,trials.key_resp_3.keys,trials.key_resp_3.rt,trials.key_resp_3.duration,End_page.started,text_5.started,key_resp_4.started,End_page.stopped,key_resp_4.keys,key_resp_4.rt,key_resp_4.duration,participant,session,date,expName,psychopyVersion,frameRate,expStart,
,,,,,,,,,,,0.0017834999998740386,0.0040239000009023584,0.0040239000009023584,2.99595330000011,space,2.9763985999998113,None,,,,,,,,,,,,,,,,,,,,,,,,,,,,,,,,,,,,,,,,,,,,,,,,,,,,,,,,,,,,,,,00032,001,2025-11-17_19h45.14.102,MST_test,2024.2.0,59.82918766970906,2025-11-17 19h45.20.667287 +0530,
,,,,,,,,,,,,,,,,,,2.996033300001727,3.0094521999999415,3.0094521999999415,16.35721829999966,space,13.330741199999466,None,,,,,,,,,,,,,,,,,,,,,,,,,,,,,,,,,,,,,,,,,,,,,,,,,,,,,,,,00032,001,2025-11-17_19h45.14.102,MST_test,2024.2.0,59.82918766970906,2025-11-17 19h45.20.667287 +0530,
,,,,,,,,,,,,,,,,,,,,,,,,,16.357325500001025,16.37597580000147,16.37597580000147,16.37597580000147,16.37597580000147,16.37597580000147,27.007554800002254,space,10.619929600001342,None,,,,,,,,,,,,,,,,,,,,,,,,,,,,,,,,,,,,,,,,,,,,,,00032,001,2025-11-17_19h45.14.102,MST_test,2024.2.0,59.82918766970906,2025-11-17 19h45.20.667287 +0530,
,,,,,,,,,,,,,,,,,,,,,,,,,,,,,,,,,,,27.007642000000487,27.022613000001,27.022613000001,27.022613000001,27.022613000001,27.022613000001,31.741116299999703,space,4.701206999998249,None,,,,,,,,,,,,,,,,,,,,,,,,,,,,,,,,,,,,00032,001,2025-11-17_19h45.14.102,MST_test,2024.2.0,59.82918766970906,2025-11-17 19h45.20.667287 +0530,
,,,,,,,,,,,,,,,,,,,,,,,,,,,,,,,,,,,,,,,,,,,,,31.741209499999968,31.755444700000226,31.755444700000226,59.29061200000069,space,27.52811880000081,None,,,,,,,,,,,,,,,,,,,,,,,,,,,,,00032,001,2025-11-17_19h45.14.102,MST_test,2024.2.0,59.82918766970906,2025-11-17 19h45.20.667287 +0530,
,,,,,,,,,,,,,,,,,,,,,,,,,,,,,,,,,,,,,,,,,,,,,,,,,,,,59.290727499999775,59.31267690000095,59.31267690000095,118.79108600000109,space,59.46760989999893,None,,,,,,,,,,,,,,,,,,,,,,00032,001,2025-11-17_19h45.14.102,MST_test,2024.2.0,59.82918766970906,2025-11-17 19h45.20.667287 +0530,
0,0,1,s,6.034949500000948,None,1,0,0,118.80522050000218,,,,,,,,,,,,,,,,,,,,,,,,,,,,,,,,,,,,,,,,,,,,,,,,,,118.79807490000167,118.80522050000218,119.30547310000111,119.28993780000019,119.30155000000013,119.30547310000111,119.30547310000111,119.30547310000111,125.35771830000158,Objects\032a.jpg,post,s,6.034949500000948,None,,,,,,,,00032,001,2025-11-17_19h45.14.102,MST_test,2024.2.0,59.82918766970906,2025-11-17 19h45.20.667287 +0530,
1,0,2,o,3.89983360000042,None,2,0,1,125.37217080000119,,,,,,,,,,,,,,,,,,,,,,,,,,,,,,,,,,,,,,,,,,,,,,,,,,125.35810310000306,125.37217080000119,125.87228360000154,125.85655039999983,125.86424640000041,125.87228360000154,125.87228360000154,125.87228360000154,129.7742228999996,Objects\378a.jpg,pre,o,3.89983360000042,None,,,,,,,,00032,001,2025-11-17_19h45.14.102,MST_test,2024.2.0,59.82918766970906,2025-11-17 19h45.20.667287 +0530,
2,0,3,s,6.664542400001665,None,3,0,2,129.7888288000031,,,,,,,,,,,,,,,,,,,,,,,,,,,,,,,,,,,,,,,,,,,,,,,,,,129.77461030000268,129.7888288000031,130.2916929000021,130.27330989999973,130.28923030000078,130.2916929000021,130.2916929000021,130.2916929000021,136.95829740000045,Objects\160b.jpg,post,s,6.664542400001665,None,,,,,,,,00032,001,2025-11-17_19h45.14.102,MST_test,2024.2.0,59.82918766970906,2025-11-17 19h45.20.667287 +0530,
3,0,4,o,3.0990706000011414,None,4,0,3,136.9720436000025,,,,,,,,,,,,,,,,,,,,,,,,,,,,,,,,,,,,,,,,,,,,,,,,,,136.95868239999982,136.9720436000025,137.47248709999985,137.45691760000045,137.46383880000212,137.47248709999985,137.47248709999985,137.47248709999985,140.5747752999996,Objects\239a.jpg,post,o,3.0990706000011414,None,,,,,,,,00032,001,2025-11-17_19h45.14.102,MST_test,2024.2.0,59.82918766970906,2025-11-17 19h45.20.667287 +0530,
4,0,5,s,6.110865200000262,None,5,0,4,140.58890950000205,,,,,,,,,,,,,,,,,,,,,,,,,,,,,,,,,,,,,,,,,,,,,,,,,,140.57514400000218,140.58890950000205,141.09301940000296,141.0730868999999,141.09037440000247,141.09301940000296,141.09301940000296,141.09301940000296,147.2079580000027,Objects\010b.jpg,pre,s,6.110865200000262,None,,,,,,,,00032,001,2025-11-17_19h45.14.102,MST_test,2024.2.0,59.82918766970906,2025-11-17 19h45.20.667287 +0530,
5,0,6,o,4.574888000002829,None,6,0,5,147.22192020000148,,,,,,,,,,,,,,,,,,,,,,,,,,,,,,,,,,,,,,,,,,,,,,,,,,147.2083617999997,147.22192020000148,147.7252085,147.70693519999986,147.72278650000226,147.7252085,147.7252085,147.7252085,152.3083136000023,Objects\031b.jpg,mid,o,4.574888000002829,None,,,,,,,,00032,001,2025-11-17_19h45.14.102,MST_test,2024.2.0,59.82918766970906,2025-11-17 19h45.20.667287 +0530,
6,0,7,o,5.477170199999819,None,7,0,6,152.32215400000132,,,,,,,,,,,,,,,,,,,,,,,,,,,,,,,,,,,,,,,,,,,,,,,,,,152.3086574000008,152.32215400000132,152.82271690000198,152.80663570000252,152.8151633000016,152.82271690000198,152.82271690000198,152.82271690000198,158.30780230000164,Objects\256a.jpg,pre,o,5.477170199999819,None,,,,,,,,00032,001,2025-11-17_19h45.14.102,MST_test,2024.2.0,59.82918766970906,2025-11-17 19h45.20.667287 +0530,
7,0,8,s,7.601899100001901,None,8,0,7,158.32191310000053,,,,,,,,,,,,,,,,,,,,,,,,,,,,,,,,,,,,,,,,,,,,,,,,,,158.30816960000084,158.32191310000053,158.825790400002,158.80662860000302,158.82306990000143,158.825790400002,158.825790400002,158.825790400002,166.4412936000008,Objects\198b.jpg,mid,s,7.601899100001901,None,,,,,,,,00032,001,2025-11-17_19h45.14.102,MST_test,2024.2.0,59.82918766970906,2025-11-17 19h45.20.667287 +0530,
8,0,9,n,2.2607681000008597,None,9,0,8,166.4555290999997,,,,,,,,,,,,,,,,,,,,,,,,,,,,,,,,,,,,,,,,,,,,,,,,,,166.44164440000168,166.4555290999997,166.95901460000096,166.93996880000122,166.95652340000015,166.95901460000096,166.95901460000096,166.95901460000096,169.22377400000187,Foils\090a.jpg,none,n,2.2607681000008597,None,,,,,,,,00032,001,2025-11-17_19h45.14.102,MST_test,2024.2.0,59.82918766970906,2025-11-17 19h45.20.667287 +0530,
9,0,10,o,3.624498199998925,None,10,0,9,169.23872520000077,,,,,,,,,,,,,,,,,,,,,,,,,,,,,,,,,,,,,,,,,,,,,,,,,,169.22411430000284,169.23872520000077,169.73929280000084,169.72307170000204,169.73129920000065,169.73929280000084,169.73929280000084,169.73929280000084,173.37421410000024,Objects\229a.jpg,mid,o,3.624498199998925,None,,,,,,,,00032,001,2025-11-17_19h45.14.102,MST_test,2024.2.0,59.82918766970906,2025-11-17 19h45.20.667287 +0530,
10,0,11,s,2.4952010000015434,None,11,0,10,173.38883720000013,,,,,,,,,,,,,,,,,,,,,,,,,,,,,,,,,,,,,,,,,,,,,,,,,,173.37459520000266,173.38883720000013,173.892316700003,173.8733181000025,173.88949070000308,173.892316700003,173.892316700003,173.892316700003,176.39136920000237,Objects\194b.jpg,pre,s,2.4952010000015434,None,,,,,,,,00032,001,2025-11-17_19h45.14.102,MST_test,2024.2.0,59.82918766970906,2025-11-17 19h45.20.667287 +0530,
11,0,12,s,2.9320755999979156,None,12,0,11,176.40554650000195,,,,,,,,,,,,,,,,,,,,,,,,,,,,,,,,,,,,,,,,,,,,,,,,,,176.3918088999999,176.40554650000195,176.91137580000213,176.89010140000028,176.90863810000155,176.91137580000213,176.91137580000213,176.91137580000213,179.85724010000195,Objects\105b.jpg,post,s,2.9320755999979156,None,,,,,,,,00032,001,2025-11-17_19h45.14.102,MST_test,2024.2.0,59.82918766970906,2025-11-17 19h45.20.667287 +0530,
12,0,13,o,7.27148920000036,None,13,0,12,179.8719060000003,,,,,,,,,,,,,,,,,,,,,,,,,,,,,,,,,,,,,,,,,,,,,,,,,,179.8576377999998,179.8719060000003,180.37228450000111,180.35675080000146,180.3641932999999,180.37228450000111,180.37228450000111,180.37228450000111,187.65745919999972,Objects\190a.jpg,mid,o,7.27148920000036,None,,,,,,,,00032,001,2025-11-17_19h45.14.102,MST_test,2024.2.0,59.82918766970906,2025-11-17 19h45.20.667287 +0530,
13,0,14,o,10.951716299998225,None,14,0,13,187.67207450000205,,,,,,,,,,,,,,,,,,,,,,,,,,,,,,,,,,,,,,,,,,,,,,,,,,187.65778780000255,187.67207450000205,188.1721630000029,188.15667870000107,188.16532709999956,188.1721630000029,188.1721630000029,188.1721630000029,199.1406640000023,Objects\219a.jpg,post,o,10.951716299998225,None,,,,,,,,00032,001,2025-11-17_19h45.14.102,MST_test,2024.2.0,59.82918766970906,2025-11-17 19h45.20.667287 +0530,
14,0,15,n,2.946660300000076,None,15,0,14,199.1553942999999,,,,,,,,,,,,,,,,,,,,,,,,,,,,,,,,,,,,,,,,,,,,,,,,,,199.14099999999962,199.1553942999999,199.65841920000094,199.64035250000234,199.65599629999997,199.65841920000094,199.65841920000094,199.65841920000094,202.6069834000009,Objects\302b.jpg,pre,n,2.946660300000076,None,,,,,,,,00032,001,2025-11-17_19h45.14.102,MST_test,2024.2.0,59.82918766970906,2025-11-17 19h45.20.667287 +0530,
15,0,16,s,11.589482100000168,None,16,0,15,202.62188590000005,,,,,,,,,,,,,,,,,,,,,,,,,,,,,,,,,,,,,,,,,,,,,,,,,,202.60720130000118,202.62188590000005,203.1261962000026,203.1064991000021,203.12395079999988,203.1261962000026,203.1261962000026,203.1261962000026,214.72445979999975,Objects\131b.jpg,post,s,11.589482100000168,None,,,,,,,,00032,001,2025-11-17_19h45.14.102,MST_test,2024.2.0,59.82918766970906,2025-11-17 19h45.20.667287 +0530,
16,0,17,n,2.7309042000015324,None,17,0,16,214.73869940000077,,,,,,,,,,,,,,,,,,,,,,,,,,,,,,,,,,,,,,,,,,,,,,,,,,214.72486250000293,214.73869940000077,215.24065809999956,215.2232655000007,215.23825660000148,215.24065809999956,215.24065809999956,215.24065809999956,217.9746094000002,Foils\033a.jpg,none,n,2.7309042000015324,None,,,,,,,,00032,001,2025-11-17_19h45.14.102,MST_test,2024.2.0,59.82918766970906,2025-11-17 19h45.20.667287 +0530,
17,0,18,o,1.9705714999981865,None,18,0,17,217.98864030000186,,,,,,,,,,,,,,,,,,,,,,,,,,,,,,,,,,,,,,,,,,,,,,,,,,217.9749546000021,217.98864030000186,218.4889249000007,218.47305920000144,218.47861000000194,218.4889249000007,218.4889249000007,218.4889249000007,220.47429750000083,Objects\109a.jpg,pre,o,1.9705714999981865,None,,,,,,,,00032,001,2025-11-17_19h45.14.102,MST_test,2024.2.0,59.82918766970906,2025-11-17 19h45.20.667287 +0530,
18,0,19,o,3.622589300000982,None,19,0,18,220.4887512000023,,,,,,,,,,,,,,,,,,,,,,,,,,,,,,,,,,,,,,,,,,,,,,,,,,220.4746754000007,220.4887512000023,220.98890060000122,220.97300200000245,220.9794354000005,220.98890060000122,220.98890060000122,220.98890060000122,224.62430470000254,Objects\180a.jpg,post,o,3.622589300000982,None,,,,,,,,00032,001,2025-11-17_19h45.14.102,MST_test,2024.2.0,59.82918766970906,2025-11-17 19h45.20.667287 +0530,
19,0,20,o,4.0425701000021945,None,20,0,19,224.63882500000182,,,,,,,,,,,,,,,,,,,,,,,,,,,,,,,,,,,,,,,,,,,,,,,,,,224.62459149999995,224.63882500000182,225.16120260000025,225.12344740000117,225.15872650000165,225.16120260000025,225.16120260000025,225.16120260000025,229.2079463000009,Objects\060b.jpg,mid,o,4.0425701000021945,None,,,,,,,,00032,001,2025-11-17_19h45.14.102,MST_test,2024.2.0,59.82918766970906,2025-11-17 19h45.20.667287 +0530,
20,0,21,o,3.273775999998179,None,21,0,20,229.22201900000073,,,,,,,,,,,,,,,,,,,,,,,,,,,,,,,,,,,,,,,,,,,,,,,,,,229.20832840000003,229.22201900000073,229.72220410000227,229.70685870000307,229.714863600002,229.72220410000227,229.72220410000227,229.72220410000227,233.0080536000023,Objects\342a.jpg,pre,o,3.273775999998179,None,,,,,,,,00032,001,2025-11-17_19h45.14.102,MST_test,2024.2.0,59.82918766970906,2025-11-17 19h45.20.667287 +0530,
21,0,22,s,2.780556699999579,None,22,0,21,233.02198260000296,,,,,,,,,,,,,,,,,,,,,,,,,,,,,,,,,,,,,,,,,,,,,,,,,,233.00845250000202,233.02198260000296,233.5273898000014,233.5069469000009,233.5249557999996,233.5273898000014,233.5273898000014,233.5273898000014,236.324301800003,Objects\282b.jpg,pre,s,2.780556699999579,None,,,,,,,,00032,001,2025-11-17_19h45.14.102,MST_test,2024.2.0,59.82918766970906,2025-11-17 19h45.20.667287 +0530,
22,0,23,o,2.444558799998049,None,23,0,22,236.33871960000033,,,,,,,,,,,,,,,,,,,,,,,,,,,,,,,,,,,,,,,,,,,,,,,,,,236.32467800000086,236.33871960000033,236.8393068000005,236.8231083999999,236.83197790000122,236.8393068000005,236.8393068000005,236.8393068000005,239.29075270000249,Objects\265a.jpg,post,o,2.444558799998049,None,,,,,,,,00032,001,2025-11-17_19h45.14.102,MST_test,2024.2.0,59.82918766970906,2025-11-17 19h45.20.667287 +0530,
23,0,24,o,2.4141032000006817,None,24,0,23,239.30542680000144,,,,,,,,,,,,,,,,,,,,,,,,,,,,,,,,,,,,,,,,,,,,,,,,,,239.2910763,239.30542680000144,239.8059897000021,239.7901226000031,239.79721110000173,239.8059897000021,239.8059897000021,239.8059897000021,242.22425190000286,Objects\251a.jpg,post,o,2.4141032000006817,None,,,,,,,,00032,001,2025-11-17_19h45.14.102,MST_test,2024.2.0,59.82918766970906,2025-11-17 19h45.20.667287 +0530,
24,0,25,s,3.036994300000515,None,25,0,24,242.23894260000088,,,,,,,,,,,,,,,,,,,,,,,,,,,,,,,,,,,,,,,,,,,,,,,,,,242.2246303000029,242.23894260000088,242.74373150000247,242.7232882999997,242.7409832000012,242.74373150000247,242.74373150000247,242.74373150000247,245.79086150000148,Objects\161b.jpg,pre,s,3.036994300000515,None,,,,,,,,00032,001,2025-11-17_19h45.14.102,MST_test,2024.2.0,59.82918766970906,2025-11-17 19h45.20.667287 +0530,
25,0,26,n,1.8017079999990528,None,26,0,25,245.8054327000027,,,,,,,,,,,,,,,,,,,,,,,,,,,,,,,,,,,,,,,,,,,,,,,,,,245.79119960000025,245.8054327000027,246.30671580000126,246.28973770000084,246.30429110000114,246.30671580000126,246.30671580000126,246.30671580000126,248.12397190000047,Foils\097a.jpg,none,n,1.8017079999990528,None,,,,,,,,00032,001,2025-11-17_19h45.14.102,MST_test,2024.2.0,59.82918766970906,2025-11-17 19h45.20.667287 +0530,
26,0,27,n,6.999503299997741,None,27,0,26,248.13869429999977,,,,,,,,,,,,,,,,,,,,,,,,,,,,,,,,,,,,,,,,,,,,,,,,,,248.12436620000153,248.13869429999977,248.64438840000003,248.62325220000275,248.64200900000287,248.64438840000003,248.64438840000003,248.64438840000003,255.6576660000028,Objects\067b.jpg,mid,n,6.999503299997741,None,,,,,,,,00032,001,2025-11-17_19h45.14.102,MST_test,2024.2.0,59.82918766970906,2025-11-17 19h45.20.667287 +0530,
27,0,28,o,2.1277241999996477,None,28,0,27,255.6719262000006,,,,,,,,,,,,,,,,,,,,,,,,,,,,,,,,,,,,,,,,,,,,,,,,,,255.65802950000216,255.6719262000006,256.1724334000028,256.15687530000287,256.1641469999995,256.1724334000028,256.1724334000028,256.1724334000028,258.3084106999995,Objects\350a.jpg,post,o,2.1277241999996477,None,,,,,,,,00032,001,2025-11-17_19h45.14.102,MST_test,2024.2.0,59.82918766970906,2025-11-17 19h45.20.667287 +0530,
28,0,29,o,3.9494927000014286,None,29,0,28,258.3219723000002,,,,,,,,,,,,,,,,,,,,,,,,,,,,,,,,,,,,,,,,,,,,,,,,,,258.3087172000014,258.3219723000002,258.82246450000093,258.8067407000017,258.8137827000028,258.82246450000093,258.82246450000093,258.82246450000093,262.77427499999976,Objects\360a.jpg,mid,o,3.9494927000014286,None,,,,,,,,00032,001,2025-11-17_19h45.14.102,MST_test,2024.2.0,59.82918766970906,2025-11-17 19h45.20.667287 +0530,
29,0,30,n,2.5771034999997937,None,30,0,29,262.78874700000233,,,,,,,,,,,,,,,,,,,,,,,,,,,,,,,,,,,,,,,,,,,,,,,,,,262.7745599000009,262.78874700000233,263.2911174000001,263.27344070000254,263.2884888000008,263.2911174000001,263.2911174000001,263.2911174000001,265.8740398000009,Foils\082a.jpg,none,n,2.5771034999997937,None,,,,,,,,00032,001,2025-11-17_19h45.14.102,MST_test,2024.2.0,59.82918766970906,2025-11-17 19h45.20.667287 +0530,
30,0,31,s,2.2014328999975987,None,31,0,30,265.8891758999998,,,,,,,,,,,,,,,,,,,,,,,,,,,,,,,,,,,,,,,,,,,,,,,,,,265.8743912000027,265.8891758999998,266.3941319000005,266.37321320000046,266.39148620000196,266.3941319000005,266.3941319000005,266.3941319000005,268.60742010000104,Objects\288b.jpg,post,s,2.2014328999975987,None,,,,,,,,00032,001,2025-11-17_19h45.14.102,MST_test,2024.2.0,59.82918766970906,2025-11-17 19h45.20.667287 +0530,
31,0,32,s,1.8643430000010994,None,32,0,31,268.6220002000009,,,,,,,,,,,,,,,,,,,,,,,,,,,,,,,,,,,,,,,,,,,,,,,,,,268.60774380000294,268.6220002000009,269.12398640000174,269.1067643000024,269.1213276000017,269.12398640000174,269.12398640000174,269.12398640000174,270.99069370000143,Objects\089b.jpg,post,s,1.8643430000010994,None,,,,,,,,00032,001,2025-11-17_19h45.14.102,MST_test,2024.2.0,59.82918766970906,2025-11-17 19h45.20.667287 +0530,
32,0,33,s,7.358850699998584,None,33,0,32,271.00542640000276,,,,,,,,,,,,,,,,,,,,,,,,,,,,,,,,,,,,,,,,,,,,,,,,,,270.9909112000023,271.00542640000276,271.5092631000007,271.48997600000075,271.50651389999985,271.5092631000007,271.5092631000007,271.5092631000007,278.874010800002,Objects\164b.jpg,pre,s,7.358850699998584,None,,,,,,,,00032,001,2025-11-17_19h45.14.102,MST_test,2024.2.0,59.82918766970906,2025-11-17 19h45.20.667287 +0530,
33,0,34,s,3.166723099999217,None,34,0,33,278.88876900000105,,,,,,,,,,,,,,,,,,,,,,,,,,,,,,,,,,,,,,,,,,,,,,,,,,278.8743168000001,278.88876900000105,279.39002280000204,279.3732947000026,279.38765369999965,279.39002280000204,279.39002280000204,279.39002280000204,282.573743500001,Objects\147b.jpg,pre,s,3.166723099999217,None,,,,,,,,00032,001,2025-11-17_19h45.14.102,MST_test,2024.2.0,59.82918766970906,2025-11-17 19h45.20.667287 +0530,
34,0,35,s,2.052674599999591,None,35,0,34,282.58874670000296,,,,,,,,,,,,,,,,,,,,,,,,,,,,,,,,,,,,,,,,,,,,,,,,,,282.57404339999994,282.58874670000296,283.09494180000183,283.0729299000013,283.09258430000045,283.09494180000183,283.09494180000183,283.09494180000183,285.1579305000014,Objects\275b.jpg,mid,s,2.052674599999591,None,,,,,,,,00032,001,2025-11-17_19h45.14.102,MST_test,2024.2.0,59.82918766970906,2025-11-17 19h45.20.667287 +0530,
35,0,36,o,1.875550699998712,None,36,0,35,285.17199470000196,,,,,,,,,,,,,,,,,,,,,,,,,,,,,,,,,,,,,,,,,,,,,,,,,,285.15824780000185,285.17199470000196,285.6722759000004,285.656624700001,285.6633488000007,285.6722759000004,285.6722759000004,285.6722759000004,287.55783990000054,Objects\097a.jpg,pre,o,1.875550699998712,None,,,,,,,,00032,001,2025-11-17_19h45.14.102,MST_test,2024.2.0,59.82918766970906,2025-11-17 19h45.20.667287 +0530,
36,0,37,s,1.751908199999889,None,37,0,36,287.57196470000054,,,,,,,,,,,,,,,,,,,,,,,,,,,,,,,,,,,,,,,,,,,,,,,,,,287.5581968000006,287.57196470000054,288.0996473000014,288.05683470000076,288.0966687,288.0996473000014,288.0996473000014,288.0996473000014,289.85793340000237,Objects\227b.jpg,mid,s,1.751908199999889,None,,,,,,,,00032,001,2025-11-17_19h45.14.102,MST_test,2024.2.0,59.82918766970906,2025-11-17 19h45.20.667287 +0530,
37,0,38,o,2.2230822000019543,None,38,0,37,289.8719458000014,,,,,,,,,,,,,,,,,,,,,,,,,,,,,,,,,,,,,,,,,,,,,,,,,,289.85833060000004,289.8719458000014,290.3726690000003,290.3566315999997,290.36662790000264,290.3726690000003,290.3726690000003,290.3726690000003,292.60755580000114,Objects\100a.jpg,pre,o,2.2230822000019543,None,,,,,,,,00032,001,2025-11-17_19h45.14.102,MST_test,2024.2.0,59.82918766970906,2025-11-17 19h45.20.667287 +0530,
38,0,39,n,3.017390400000295,None,39,0,38,292.62191350000285,,,,,,,,,,,,,,,,,,,,,,,,,,,,,,,,,,,,,,,,,,,,,,,,,,292.6079718000001,292.62191350000285,293.12320060000275,293.10680050000155,293.12082420000297,293.12320060000275,293.12320060000275,293.12320060000275,296.15748540000277,Foils\026a.jpg,none,n,3.017390400000295,None,,,,,,,,00032,001,2025-11-17_19h45.14.102,MST_test,2024.2.0,59.82918766970906,2025-11-17 19h45.20.667287 +0530,
39,0,40,n,1.5924625000006927,None,40,0,39,296.171921000001,,,,,,,,,,,,,,,,,,,,,,,,,,,,,,,,,,,,,,,,,,,,,,,,,,296.15787530000307,296.171921000001,296.6750009000025,296.6566851000025,296.6725187000011,296.6750009000025,296.6750009000025,296.6750009000025,298.2737460999997,Foils\105a.jpg,none,n,1.5924625000006927,None,,,,,,,,00032,001,2025-11-17_19h45.14.102,MST_test,2024.2.0,59.82918766970906,2025-11-17 19h45.20.667287 +0530,
40,0,41,o,2.6625908999994863,None,41,0,40,298.2887367000003,,,,,,,,,,,,,,,,,,,,,,,,,,,,,,,,,,,,,,,,,,,,,,,,,,298.273998800003,298.2887367000003,298.78892730000007,298.7730847000021,298.7799885000022,298.78892730000007,298.78892730000007,298.78892730000007,301.4579776000028,Objects\039a.jpg,post,o,2.6625908999994863,None,,,,,,,,00032,001,2025-11-17_19h45.14.102,MST_test,2024.2.0,59.82918766970906,2025-11-17 19h45.20.667287 +0530,
41,0,42,s,3.651062999997521,None,42,0,41,301.4719311000008,,,,,,,,,,,,,,,,,,,,,,,,,,,,,,,,,,,,,,,,,,,,,,,,,,301.45830170000045,301.4719311000008,301.9768309000028,301.9566863,301.9744271000018,301.9768309000028,301.9768309000028,301.9768309000028,305.6415414000003,Objects\175b.jpg,post,s,3.651062999997521,None,,,,,,,,00032,001,2025-11-17_19h45.14.102,MST_test,2024.2.0,59.82918766970906,2025-11-17 19h45.20.667287 +0530,
42,0,43,n,1.2472718999997596,None,43,0,42,305.65556910000305,,,,,,,,,,,,,,,,,,,,,,,,,,,,,,,,,,,,,,,,,,,,,,,,,,305.6419362000015,305.65556910000305,306.1572120000019,306.14000600000145,306.15476310000304,306.1572120000019,306.1572120000019,306.1572120000019,307.40823020000244,Foils\017a.jpg,none,n,1.2472718999997596,None,,,,,,,,00032,001,2025-11-17_19h45.14.102,MST_test,2024.2.0,59.82918766970906,2025-11-17 19h45.20.667287 +0530,
43,0,44,n,3.4650786999991396,None,44,0,43,307.42225619999954,,,,,,,,,,,,,,,,,,,,,,,,,,,,,,,,,,,,,,,,,,,,,,,,,,307.4086238000018,307.42225619999954,307.9231155000016,307.90689660000135,307.9207814000001,307.9231155000016,307.9231155000016,307.9231155000016,311.3914407000011,Foils\018a.jpg,none,n,3.4650786999991396,None,,,,,,,,00032,001,2025-11-17_19h45.14.102,MST_test,2024.2.0,59.82918766970906,2025-11-17 19h45.20.667287 +0530,
44,0,45,s,4.751728200000798,None,45,0,44,311.40566730000137,,,,,,,,,,,,,,,,,,,,,,,,,,,,,,,,,,,,,,,,,,,,,,,,,,311.39177910000217,311.40566730000137,311.90791960000206,311.8901122999996,311.90562280000086,311.90791960000206,311.90791960000206,311.90791960000206,316.67404259999967,Objects\252b.jpg,pre,s,4.751728200000798,None,,,,,,,,00032,001,2025-11-17_19h45.14.102,MST_test,2024.2.0,59.82918766970906,2025-11-17 19h45.20.667287 +0530,
45,0,46,o,2.087883399999555,None,46,0,45,316.6887932000027,,,,,,,,,,,,,,,,,,,,,,,,,,,,,,,,,,,,,,,,,,,,,,,,,,316.67436310000267,316.6887932000027,317.18891129999975,317.17323880000185,317.18131450000146,317.18891129999975,317.18891129999975,317.18891129999975,319.29083639999953,Objects\024a.jpg,mid,o,2.087883399999555,None,,,,,,,,00032,001,2025-11-17_19h45.14.102,MST_test,2024.2.0,59.82918766970906,2025-11-17 19h45.20.667287 +0530,
46,0,47,n,4.541993800001364,None,47,0,46,319.3054172000011,,,,,,,,,,,,,,,,,,,,,,,,,,,,,,,,,,,,,,,,,,,,,,,,,,319.2911786000004,319.3054172000011,319.8055705000006,319.78976700000203,319.80270850000306,319.8055705000006,319.8055705000006,319.8055705000006,324.35792800000127,Foils\050a.jpg,none,n,4.541993800001364,None,,,,,,,,00032,001,2025-11-17_19h45.14.102,MST_test,2024.2.0,59.82918766970906,2025-11-17 19h45.20.667287 +0530,
47,0,48,n,1.4953294999977516,None,48,0,47,324.37194660000023,,,,,,,,,,,,,,,,,,,,,,,,,,,,,,,,,,,,,,,,,,,,,,,,,,324.35832930000106,324.37194660000023,324.8774835000004,324.8566406000027,324.8751037000002,324.8774835000004,324.8774835000004,324.8774835000004,326.3747140000014,Foils\058a.jpg,none,n,1.4953294999977516,None,,,,,,,,00032,001,2025-11-17_19h45.14.102,MST_test,2024.2.0,59.82918766970906,2025-11-17 19h45.20.667287 +0530,
48,0,49,s,1.5533830000022135,None,49,0,48,326.3887689000003,,,,,,,,,,,,,,,,,,,,,,,,,,,,,,,,,,,,,,,,,,,,,,,,,,326.37506550000035,326.3887689000003,326.8910051000021,326.87322210000275,326.8883330000026,326.8910051000021,326.8910051000021,326.8910051000021,328.4574563000024,Objects\371b.jpg,mid,s,1.5533830000022135,None,,,,,,,,00032,001,2025-11-17_19h45.14.102,MST_test,2024.2.0,59.82918766970906,2025-11-17 19h45.20.667287 +0530,
49,0,50,o,1.6318019999998796,None,50,0,49,328.4719470000018,,,,,,,,,,,,,,,,,,,,,,,,,,,,,,,,,,,,,,,,,,,,,,,,,,328.4577766000002,328.4719470000018,328.97245810000095,328.9567023000018,328.96432280000226,328.97245810000095,328.97245810000095,328.97245810000095,330.6079086000027,Objects\029a.jpg,post,o,1.6318019999998796,None,,,,,,,,00032,001,2025-11-17_19h45.14.102,MST_test,2024.2.0,59.82918766970906,2025-11-17 19h45.20.667287 +0530,
50,0,51,o,3.505754599998909,None,51,0,50,330.6219426000025,,,,,,,,,,,,,,,,,,,,,,,,,,,,,,,,,,,,,,,,,,,,,,,,,,330.60827040000004,330.6219426000025,331.12228230000255,331.10662870000306,331.1138247000017,331.12228230000255,331.12228230000255,331.12228230000255,334.64100990000225,Objects\047a.jpg,mid,o,3.505754599998909,None,,,,,,,,00032,001,2025-11-17_19h45.14.102,MST_test,2024.2.0,59.82918766970906,2025-11-17 19h45.20.667287 +0530,
51,0,52,s,1.3905465999996522,None,52,0,51,334.65535269999964,,,,,,,,,,,,,,,,,,,,,,,,,,,,,,,,,,,,,,,,,,,,,,,,,,334.64137409999967,334.65535269999964,335.1571674000006,335.1398590000026,335.15481080000245,335.1571674000006,335.1571674000006,335.1571674000006,336.55799540000226,Objects\123b.jpg,post,s,1.3905465999996522,None,,,,,,,,00032,001,2025-11-17_19h45.14.102,MST_test,2024.2.0,59.82918766970906,2025-11-17 19h45.20.667287 +0530,
52,0,53,s,1.553005800000392,None,53,0,52,336.57197630000155,,,,,,,,,,,,,,,,,,,,,,,,,,,,,,,,,,,,,,,,,,,,,,,,,,336.55836160000035,336.57197630000155,337.0750982000027,337.0565506000021,337.07273700000223,337.0750982000027,337.0750982000027,337.0750982000027,338.64138970000204,Objects\151b.jpg,post,s,1.553005800000392,None,,,,,,,,00032,001,2025-11-17_19h45.14.102,MST_test,2024.2.0,59.82918766970906,2025-11-17 19h45.20.667287 +0530,
53,0,54,o,1.5756012999991071,None,54,0,53,338.6554575000009,,,,,,,,,,,,,,,,,,,,,,,,,,,,,,,,,,,,,,,,,,,,,,,,,,338.64179409999997,338.6554575000009,339.15601660000175,339.1400083000008,339.14813420000064,339.15601660000175,339.15601660000175,339.15601660000175,340.74137690000134,Objects\262a.jpg,post,o,1.5756012999991071,None,,,,,,,,00032,001,2025-11-17_19h45.14.102,MST_test,2024.2.0,59.82918766970906,2025-11-17 19h45.20.667287 +0530,
54,0,55,s,1.8957770000015444,None,55,0,54,340.755396200002,,,,,,,,,,,,,,,,,,,,,,,,,,,,,,,,,,,,,,,,,,,,,,,,,,340.74175749999995,340.755396200002,341.25995239999975,341.2400465000028,341.2572868000025,341.25995239999975,341.25995239999975,341.25995239999975,343.15784260000146,Objects\172b.jpg,mid,s,1.8957770000015444,None,,,,,,,,00032,001,2025-11-17_19h45.14.102,MST_test,2024.2.0,59.82918766970906,2025-11-17 19h45.20.667287 +0530,
55,0,56,s,1.5390057000004163,None,56,0,55,343.1719277000011,,,,,,,,,,,,,,,,,,,,,,,,,,,,,,,,,,,,,,,,,,,,,,,,,,343.15820440000243,343.1719277000011,343.6734784,343.65641010000036,343.671100800002,343.6734784,343.6734784,343.6734784,345.2245886000019,Objects\014b.jpg,pre,s,1.5390057000004163,None,,,,,,,,00032,001,2025-11-17_19h45.14.102,MST_test,2024.2.0,59.82918766970906,2025-11-17 19h45.20.667287 +0530,
56,0,57,s,2.9588211000009323,None,57,0,56,345.23887990000003,,,,,,,,,,,,,,,,,,,,,,,,,,,,,,,,,,,,,,,,,,,,,,,,,,345.2249722000015,345.23887990000003,345.7412576000024,345.7234137000014,345.73847990000286,345.7412576000024,345.7412576000024,345.7412576000024,348.7079408000027,Objects\272b.jpg,pre,s,2.9588211000009323,None,,,,,,,,00032,001,2025-11-17_19h45.14.102,MST_test,2024.2.0,59.82918766970906,2025-11-17 19h45.20.667287 +0530,
57,0,58,s,1.8696467000008852,None,58,0,57,348.72212050000235,,,,,,,,,,,,,,,,,,,,,,,,,,,,,,,,,,,,,,,,,,,,,,,,,,348.70844299999953,348.72212050000235,349.2224053000027,349.20670710000195,349.2140986000013,349.2224053000027,349.2224053000027,349.2224053000027,351.1078462000005,Objects\013a.jpg,mid,s,1.8696467000008852,None,,,,,,,,00032,001,2025-11-17_19h45.14.102,MST_test,2024.2.0,59.82918766970906,2025-11-17 19h45.20.667287 +0530,
58,0,59,s,1.3820005999987188,None,59,0,58,351.12213410000186,,,,,,,,,,,,,,,,,,,,,,,,,,,,,,,,,,,,,,,,,,,,,,,,,,351.10827260000224,351.12213410000186,351.6223011000002,351.60667509999985,351.61371860000145,351.6223011000002,351.6223011000002,351.6223011000002,353.0080350999997,Objects\084a.jpg,mid,s,1.3820005999987188,None,,,,,,,,00032,001,2025-11-17_19h45.14.102,MST_test,2024.2.0,59.82918766970906,2025-11-17 19h45.20.667287 +0530,
59,0,60,s,1.5576421000005212,None,60,0,59,353.0221781,,,,,,,,,,,,,,,,,,,,,,,,,,,,,,,,,,,,,,,,,,,,,,,,,,353.00837590000083,353.0221781,353.52591080000275,353.506770400003,353.52305720000004,353.52591080000275,353.52591080000275,353.52591080000275,355.09123850000105,Objects\280b.jpg,pre,s,1.5576421000005212,None,,,,,,,,00032,001,2025-11-17_19h45.14.102,MST_test,2024.2.0,59.82918766970906,2025-11-17 19h45.20.667287 +0530,
60,0,61,n,1.0856937999997172,None,61,0,60,355.10557520000293,,,,,,,,,,,,,,,,,,,,,,,,,,,,,,,,,,,,,,,,,,,,,,,,,,355.0915994999996,355.10557520000293,355.60630890000175,355.59017550000135,355.6037075000022,355.60630890000175,355.60630890000175,355.60630890000175,356.7077011000001,Foils\f5.jpg,none,n,1.0856937999997172,None,,,,,,,,00032,001,2025-11-17_19h45.14.102,MST_test,2024.2.0,59.82918766970906,2025-11-17 19h45.20.667287 +0530,
61,0,62,n,1.4531571000006807,None,62,0,61,356.7221485000009,,,,,,,,,,,,,,,,,,,,,,,,,,,,,,,,,,,,,,,,,,,,,,,,,,356.70807140000034,356.7221485000009,357.22251360000155,357.2059203000026,357.2155030000031,357.22251360000155,357.22251360000155,357.22251360000155,358.6913343000015,Foils\f7.jpg,none,n,1.4531571000006807,None,,,,,,,,00032,001,2025-11-17_19h45.14.102,MST_test,2024.2.0,59.82918766970906,2025-11-17 19h45.20.667287 +0530,
62,0,63,n,0.94491669999843,None,63,0,62,358.70559400000275,,,,,,,,,,,,,,,,,,,,,,,,,,,,,,,,,,,,,,,,,,,,,,,,,,358.6917253000029,358.70559400000275,359.2105976000021,359.190145200002,359.20788110000285,359.2105976000021,359.2105976000021,359.2105976000021,360.15837570000076,Foils\020b.jpg,none,n,0.94491669999843,None,,,,,,,,00032,001,2025-11-17_19h45.14.102,MST_test,2024.2.0,59.82918766970906,2025-11-17 19h45.20.667287 +0530,
63,0,64,s,2.7307025999980397,None,64,0,63,360.1721467000025,,,,,,,,,,,,,,,,,,,,,,,,,,,,,,,,,,,,,,,,,,,,,,,,,,360.1587905000015,360.1721467000025,360.672722000003,360.6566864000015,360.6651985000026,360.672722000003,360.672722000003,360.672722000003,363.4078348000003,Objects\290a.jpg,mid,s,2.7307025999980397,None,,,,,,,,00032,001,2025-11-17_19h45.14.102,MST_test,2024.2.0,59.82918766970906,2025-11-17 19h45.20.667287 +0530,
64,0,65,n,1.3755725000009988,None,65,0,64,363.4220548000012,,,,,,,,,,,,,,,,,,,,,,,,,,,,,,,,,,,,,,,,,,,,,,,,,,363.408103400001,363.4220548000012,363.9243290000013,363.9067571000014,363.9215686000025,363.9243290000013,363.9243290000013,363.9243290000013,365.30827970000246,Foils\010a.jpg,none,n,1.3755725000009988,None,,,,,,,,00032,001,2025-11-17_19h45.14.102,MST_test,2024.2.0,59.82918766970906,2025-11-17 19h45.20.667287 +0530,
65,0,66,n,3.0750537999992957,None,66,0,65,365.32219140000234,,,,,,,,,,,,,,,,,,,,,,,,,,,,,,,,,,,,,,,,,,,,,,,,,,365.3086448000031,365.32219140000234,365.82520040000236,365.80676230000245,365.8227259000014,365.82520040000236,365.82520040000236,365.82520040000236,368.9081763000031,Objects\065b.jpg,mid,n,3.0750537999992957,None,,,,,,,,00032,001,2025-11-17_19h45.14.102,MST_test,2024.2.0,59.82918766970906,2025-11-17 19h45.20.667287 +0530,
66,0,67,s,1.386455500000011,None,67,0,66,368.92216420000113,,,,,,,,,,,,,,,,,,,,,,,,,,,,,,,,,,,,,,,,,,,,,,,,,,368.90850350000255,368.92216420000113,369.42529640000066,369.4067969000025,369.4228045000018,369.42529640000066,369.42529640000066,369.42529640000066,370.8246231000012,Objects\019b.jpg,mid,s,1.386455500000011,None,,,,,,,,00032,001,2025-11-17_19h45.14.102,MST_test,2024.2.0,59.82918766970906,2025-11-17 19h45.20.667287 +0530,
67,0,68,n,4.371746999997413,None,68,0,67,370.8388500000001,,,,,,,,,,,,,,,,,,,,,,,,,,,,,,,,,,,,,,,,,,,,,,,,,,370.82503910000014,370.8388500000001,371.34375,371.32340430000113,371.34093340000254,371.34375,371.34375,371.34375,375.7246363000013,Foils\106a.jpg,none,n,4.371746999997413,None,,,,,,,,00032,001,2025-11-17_19h45.14.102,MST_test,2024.2.0,59.82918766970906,2025-11-17 19h45.20.667287 +0530,
68,0,69,o,1.6733755999994173,None,69,0,68,375.7389909000012,,,,,,,,,,,,,,,,,,,,,,,,,,,,,,,,,,,,,,,,,,,,,,,,,,375.72496110000066,375.7389909000012,376.2422516000006,376.22315570000137,376.2397535000018,376.2422516000006,376.2422516000006,376.2422516000006,377.92459620000227,Objects\015b.jpg,post,o,1.6733755999994173,None,,,,,,,,00032,001,2025-11-17_19h45.14.102,MST_test,2024.2.0,59.82918766970906,2025-11-17 19h45.20.667287 +0530,
69,0,70,s,2.9806314000015846,None,70,0,69,377.9389623999996,,,,,,,,,,,,,,,,,,,,,,,,,,,,,,,,,,,,,,,,,,,,,,,,,,377.92499020000105,377.9389623999996,378.4393471000003,378.4233235000029,378.43184960000144,378.4393471000003,378.4393471000003,378.4393471000003,381.4242994000015,Objects\289a.jpg,mid,s,2.9806314000015846,None,,,,,,,,00032,001,2025-11-17_19h45.14.102,MST_test,2024.2.0,59.82918766970906,2025-11-17 19h45.20.667287 +0530,
70,0,71,o,1.3360477999995055,None,71,0,70,381.4388652000016,,,,,,,,,,,,,,,,,,,,,,,,,,,,,,,,,,,,,,,,,,,,,,,,,,381.42454949999956,381.4388652000016,381.939377900002,381.92348960000163,381.93012269999963,381.939377900002,381.939377900002,381.939377900002,383.2904466,Objects\101a.jpg,post,o,1.3360477999995055,None,,,,,,,,00032,001,2025-11-17_19h45.14.102,MST_test,2024.2.0,59.82918766970906,2025-11-17 19h45.20.667287 +0530,
71,0,72,s,2.6559854000006453,None,72,0,71,383.3055372000017,,,,,,,,,,,,,,,,,,,,,,,,,,,,,,,,,,,,,,,,,,,,,,,,,,383.29076669999995,383.3055372000017,383.8119779000008,383.79009900000165,383.8091469000028,383.8119779000008,383.8119779000008,383.8119779000008,386.47459580000213,Objects\273b.jpg,mid,s,2.6559854000006453,None,,,,,,,,00032,001,2025-11-17_19h45.14.102,MST_test,2024.2.0,59.82918766970906,2025-11-17 19h45.20.667287 +0530,
72,0,73,s,2.5362701999983983,None,73,0,72,386.48897950000173,,,,,,,,,,,,,,,,,,,,,,,,,,,,,,,,,,,,,,,,,,,,,,,,,,386.4750292000026,386.48897950000173,386.9963916000015,386.9732707000003,386.9938207000014,386.9963916000015,386.9963916000015,386.9963916000015,389.5410824000028,Objects\153b.jpg,mid,s,2.5362701999983983,None,,,,,,,,00032,001,2025-11-17_19h45.14.102,MST_test,2024.2.0,59.82918766970906,2025-11-17 19h45.20.667287 +0530,
73,0,74,s,1.355942900001537,None,74,0,73,389.5554953000028,,,,,,,,,,,,,,,,,,,,,,,,,,,,,,,,,,,,,,,,,,,,,,,,,,389.54144820000147,389.5554953000028,390.055960200003,390.0401133000014,390.04789730000266,390.055960200003,390.055960200003,390.055960200003,391.42447990000073,Objects\258a.jpg,post,s,1.355942900001537,None,,,,,,,,00032,001,2025-11-17_19h45.14.102,MST_test,2024.2.0,59.82918766970906,2025-11-17 19h45.20.667287 +0530,
74,0,75,o,2.616853400002583,None,75,0,74,391.43888230000084,,,,,,,,,,,,,,,,,,,,,,,,,,,,,,,,,,,,,,,,,,,,,,,,,,391.4247503000006,391.43888230000084,391.93944300000294,391.9234445000002,391.9338620000017,391.93944300000294,391.93944300000294,391.93944300000294,394.5581968000006,Objects\281a.jpg,mid,o,2.616853400002583,None,,,,,,,,00032,001,2025-11-17_19h45.14.102,MST_test,2024.2.0,59.82918766970906,2025-11-17 19h45.20.667287 +0530,
75,0,76,s,1.3916776000005484,None,76,0,75,394.57191070000044,,,,,,,,,,,,,,,,,,,,,,,,,,,,,,,,,,,,,,,,,,,,,,,,,,394.5585702999997,394.57191070000044,395.07650840000133,395.0566891000017,395.07375930000126,395.07650840000133,395.07650840000133,395.07650840000133,396.47435770000084,Objects\223b.jpg,post,s,1.3916776000005484,None,,,,,,,,00032,001,2025-11-17_19h45.14.102,MST_test,2024.2.0,59.82918766970906,2025-11-17 19h45.20.667287 +0530,
76,0,77,o,2.39886370000022,None,77,0,76,396.4889476000026,,,,,,,,,,,,,,,,,,,,,,,,,,,,,,,,,,,,,,,,,,,,,,,,,,396.474692900003,396.4889476000026,396.98934040000313,396.9731396999996,396.9808625000005,396.98934040000313,396.98934040000313,396.98934040000313,399.3912373000021,Objects\207a.jpg,post,o,2.39886370000022,None,,,,,,,,00032,001,2025-11-17_19h45.14.102,MST_test,2024.2.0,59.82918766970906,2025-11-17 19h45.20.667287 +0530,
77,0,78,s,1.2083159000030719,None,78,0,77,399.4053555999999,,,,,,,,,,,,,,,,,,,,,,,,,,,,,,,,,,,,,,,,,,,,,,,,,,399.3915693000017,399.4053555999999,399.9152181000027,399.88995910000085,399.912522300001,399.9152181000027,399.9152181000027,399.9152181000027,401.14114990000235,Objects\023b.jpg,post,s,1.2083159000030719,None,,,,,,,,00032,001,2025-11-17_19h45.14.102,MST_test,2024.2.0,59.82918766970906,2025-11-17 19h45.20.667287 +0530,
78,0,79,n,3.1399596000010206,None,79,0,78,401.1554008000021,,,,,,,,,,,,,,,,,,,,,,,,,,,,,,,,,,,,,,,,,,,,,,,,,,401.1415650000017,401.1554008000021,401.6555929000024,401.6399874000017,401.6458997000009,401.6555929000024,401.6555929000024,401.6555929000024,404.80794270000115,Objects\225a.jpg,post,n,3.1399596000010206,None,,,,,,,,00032,001,2025-11-17_19h45.14.102,MST_test,2024.2.0,59.82918766970906,2025-11-17 19h45.20.667287 +0530,
79,0,80,s,2.252792400002363,None,80,0,79,404.8219601000019,,,,,,,,,,,,,,,,,,,,,,,,,,,,,,,,,,,,,,,,,,,,,,,,,,404.8082780000004,404.8219601000019,405.3275254,405.30644790000224,405.324832600003,405.3275254,405.3275254,405.3275254,407.5912411999998,Objects\264b.jpg,post,s,2.252792400002363,None,,,,,,,,00032,001,2025-11-17_19h45.14.102,MST_test,2024.2.0,59.82918766970906,2025-11-17 19h45.20.667287 +0530,
80,0,81,o,1.5695126999999047,None,81,0,80,407.6055766999998,,,,,,,,,,,,,,,,,,,,,,,,,,,,,,,,,,,,,,,,,,,,,,,,,,407.5916341000011,407.6055766999998,408.1059736999996,408.0898137000004,408.09871060000296,408.1059736999996,408.1059736999996,408.1059736999996,409.69129729999986,Objects\027a.jpg,mid,o,1.5695126999999047,None,,,,,,,,00032,001,2025-11-17_19h45.14.102,MST_test,2024.2.0,59.82918766970906,2025-11-17 19h45.20.667287 +0530,
81,0,82,s,2.6275550999998813,None,82,0,81,409.70548340000096,,,,,,,,,,,,,,,,,,,,,,,,,,,,,,,,,,,,,,,,,,,,,,,,,,409.69172400000025,409.70548340000096,410.20795670000007,410.19020250000176,410.205519500003,410.20795670000007,410.20795670000007,410.20795670000007,412.841717700001,Foils\057a.jpg,none,s,2.6275550999998813,None,,,,,,,,00032,001,2025-11-17_19h45.14.102,MST_test,2024.2.0,59.82918766970906,2025-11-17 19h45.20.667287 +0530,
82,0,83,s,1.461721600000601,None,83,0,82,412.8555245999996,,,,,,,,,,,,,,,,,,,,,,,,,,,,,,,,,,,,,,,,,,,,,,,,,,412.8420896000025,412.8555245999996,413.35851790000015,413.33983920000173,413.3558324000005,413.35851790000015,413.35851790000015,413.35851790000015,414.8247497000011,Objects\210b.jpg,pre,s,1.461721600000601,None,,,,,,,,00032,001,2025-11-17_19h45.14.102,MST_test,2024.2.0,59.82918766970906,2025-11-17 19h45.20.667287 +0530,
83,0,84,o,3.893190799997683,None,84,0,83,414.8388613999996,,,,,,,,,,,,,,,,,,,,,,,,,,,,,,,,,,,,,,,,,,,,,,,,,,414.82511689999956,414.8388613999996,415.3424303000029,415.32357520000005,415.3395952999999,415.3424303000029,415.3424303000029,415.3424303000029,419.2414545000029,Objects\249b.jpg,mid,o,3.893190799997683,None,,,,,,,,00032,001,2025-11-17_19h45.14.102,MST_test,2024.2.0,59.82918766970906,2025-11-17 19h45.20.667287 +0530,
84,0,85,n,2.3752889999996114,None,85,0,84,419.25548980000167,,,,,,,,,,,,,,,,,,,,,,,,,,,,,,,,,,,,,,,,,,,,,,,,,,419.24179450000156,419.25548980000167,419.7568054000003,419.7401955000023,419.7542738000011,419.7568054000003,419.7568054000003,419.7568054000003,422.1411637000019,Foils\073a.jpg,none,n,2.3752889999996114,None,,,,,,,,00032,001,2025-11-17_19h45.14.102,MST_test,2024.2.0,59.82918766970906,2025-11-17 19h45.20.667287 +0530,
85,0,86,s,1.2175334999992629,None,86,0,85,422.15537100000074,,,,,,,,,,,,,,,,,,,,,,,,,,,,,,,,,,,,,,,,,,,,,,,,,,422.1414633000022,422.15537100000074,422.6584614000021,422.640135200003,422.6561615999999,422.6584614000021,422.6584614000021,422.6584614000021,423.8912679000023,Objects\140b.jpg,post,s,1.2175334999992629,None,,,,,,,,00032,001,2025-11-17_19h45.14.102,MST_test,2024.2.0,59.82918766970906,2025-11-17 19h45.20.667287 +0530,
86,0,87,o,1.0859724000001734,None,87,0,86,423.9054864999998,,,,,,,,,,,,,,,,,,,,,,,,,,,,,,,,,,,,,,,,,,,,,,,,,,423.89165680000224,423.9054864999998,424.40562750000026,424.3900992000017,424.39742730000216,424.40562750000026,424.40562750000026,424.40562750000026,425.5077990000027,Objects\007a.jpg,pre,o,1.0859724000001734,None,,,,,,,,00032,001,2025-11-17_19h45.14.102,MST_test,2024.2.0,59.82918766970906,2025-11-17 19h45.20.667287 +0530,
87,0,88,o,1.1180382999991707,None,88,0,87,425.52194520000194,,,,,,,,,,,,,,,,,,,,,,,,,,,,,,,,,,,,,,,,,,,,,,,,,,425.5081100000025,425.52194520000194,426.02210000000196,426.00654040000154,426.01320080000005,426.02210000000196,426.02210000000196,426.02210000000196,427.157455200002,Objects\135a.jpg,post,o,1.1180382999991707,None,,,,,,,,00032,001,2025-11-17_19h45.14.102,MST_test,2024.2.0,59.82918766970906,2025-11-17 19h45.20.667287 +0530,
88,0,89,s,2.0706491000019014,None,89,0,88,427.1720004000017,,,,,,,,,,,,,,,,,,,,,,,,,,,,,,,,,,,,,,,,,,,,,,,,,,427.1577004000028,427.1720004000017,427.67725340000106,427.65690950000135,427.67476800000077,427.67725340000106,427.67725340000106,427.67725340000106,429.7576254000014,Objects\166b.jpg,pre,s,2.0706491000019014,None,,,,,,,,00032,001,2025-11-17_19h45.14.102,MST_test,2024.2.0,59.82918766970906,2025-11-17 19h45.20.667287 +0530,
89,0,90,n,0.9991827000012563,None,90,0,89,429.77190690000134,,,,,,,,,,,,,,,,,,,,,,,,,,,,,,,,,,,,,,,,,,,,,,,,,,429.75799180000104,429.77190690000134,430.27760040000067,430.2567620000009,430.2753612000015,430.27760040000067,430.27760040000067,430.27760040000067,431.29141470000104,Foils\081a.jpg,none,n,0.9991827000012563,None,,,,,,,,00032,001,2025-11-17_19h45.14.102,MST_test,2024.2.0,59.82918766970906,2025-11-17 19h45.20.667287 +0530,
90,0,91,o,1.2818181000002369,None,91,0,90,431.30543650000254,,,,,,,,,,,,,,,,,,,,,,,,,,,,,,,,,,,,,,,,,,,,,,,,,,431.29174070000226,431.30543650000254,431.81030230000033,431.79044350000186,431.8078784999998,431.81030230000033,431.81030230000033,431.81030230000033,433.10805679999976,Objects\016b.jpg,pre,o,1.2818181000002369,None,,,,,,,,00032,001,2025-11-17_19h45.14.102,MST_test,2024.2.0,59.82918766970906,2025-11-17 19h45.20.667287 +0530,
91,0,92,n,1.340381999998499,None,92,0,91,433.1219607000021,,,,,,,,,,,,,,,,,,,,,,,,,,,,,,,,,,,,,,,,,,,,,,,,,,433.1083479000008,433.1219607000021,433.6236917000024,433.60669100000086,433.62097429999994,433.6236917000024,433.6236917000024,433.6236917000024,434.9741893999999,Foils\049a.jpg,none,n,1.340381999998499,None,,,,,,,,00032,001,2025-11-17_19h45.14.102,MST_test,2024.2.0,59.82918766970906,2025-11-17 19h45.20.667287 +0530,
92,0,93,s,1.2112636999991082,None,93,0,92,434.98868570000195,,,,,,,,,,,,,,,,,,,,,,,,,,,,,,,,,,,,,,,,,,,,,,,,,,434.97456840000086,434.98868570000195,435.48907210000107,435.47329150000223,435.4822230000027,435.48907210000107,435.48907210000107,435.48907210000107,436.70785810000234,Objects\363a.jpg,mid,s,1.2112636999991082,None,,,,,,,,00032,001,2025-11-17_19h45.14.102,MST_test,2024.2.0,59.82918766970906,2025-11-17 19h45.20.667287 +0530,
93,0,94,o,1.133636900001875,None,94,0,93,436.72203400000217,,,,,,,,,,,,,,,,,,,,,,,,,,,,,,,,,,,,,,,,,,,,,,,,,,436.7081945000027,436.72203400000217,437.22249880000163,437.2069150999996,437.2154453000003,437.22249880000163,437.22249880000163,437.22249880000163,438.35774780000065,Objects\365a.jpg,pre,o,1.133636900001875,None,,,,,,,,00032,001,2025-11-17_19h45.14.102,MST_test,2024.2.0,59.82918766970906,2025-11-17 19h45.20.667287 +0530,
94,0,95,o,1.2349025000003166,None,95,0,94,438.3718364000015,,,,,,,,,,,,,,,,,,,,,,,,,,,,,,,,,,,,,,,,,,,,,,,,,,438.3580639000029,438.3718364000015,438.8725845000008,438.85654200000135,438.86978720000116,438.8725845000008,438.8725845000008,438.8725845000008,440.12428490000093,Objects\125b.jpg,pre,o,1.2349025000003166,None,,,,,,,,00032,001,2025-11-17_19h45.14.102,MST_test,2024.2.0,59.82918766970906,2025-11-17 19h45.20.667287 +0530,
95,0,96,o,1.1148486000020057,None,96,0,95,440.1387707000031,,,,,,,,,,,,,,,,,,,,,,,,,,,,,,,,,,,,,,,,,,,,,,,,,,440.1246514000013,440.1387707000031,440.6414031000022,440.6229846999995,440.63806340000156,440.6414031000022,440.6414031000022,440.6414031000022,441.7581616000025,Objects\238a.jpg,pre,o,1.1148486000020057,None,,,,,,,,00032,001,2025-11-17_19h45.14.102,MST_test,2024.2.0,59.82918766970906,2025-11-17 19h45.20.667287 +0530,
96,0,97,s,2.127220900001703,None,97,0,96,441.7721182000023,,,,,,,,,,,,,,,,,,,,,,,,,,,,,,,,,,,,,,,,,,,,,,,,,,441.7584773000017,441.7721182000023,442.2769999000011,442.2567369000026,442.27424090000204,442.2769999000011,442.2769999000011,442.2769999000011,444.40806800000064,Objects\204b.jpg,mid,s,2.127220900001703,None,,,,,,,,00032,001,2025-11-17_19h45.14.102,MST_test,2024.2.0,59.82918766970906,2025-11-17 19h45.20.667287 +0530,
97,0,98,s,1.501907999998366,None,98,0,97,444.42204400000264,,,,,,,,,,,,,,,,,,,,,,,,,,,,,,,,,,,,,,,,,,,,,,,,,,444.40844110000035,444.42204400000264,444.9262325000018,444.906641900001,444.92385790000117,444.9262325000018,444.9262325000018,444.9262325000018,446.44140250000055,Objects\111b.jpg,post,s,1.501907999998366,None,,,,,,,,00032,001,2025-11-17_19h45.14.102,MST_test,2024.2.0,59.82918766970906,2025-11-17 19h45.20.667287 +0530,
98,0,99,s,5.138256000002002,None,99,0,98,446.4553983000005,,,,,,,,,,,,,,,,,,,,,,,,,,,,,,,,,,,,,,,,,,,,,,,,,,446.4418141000024,446.4553983000005,446.961544400001,446.9402093000026,446.9585095000002,446.961544400001,446.961544400001,446.961544400001,452.1075395000007,Objects\326b.jpg,pre,s,5.138256000002002,None,,,,,,,,00032,001,2025-11-17_19h45.14.102,MST_test,2024.2.0,59.82918766970906,2025-11-17 19h45.20.667287 +0530,
99,0,100,o,0.9567653999984032,None,100,0,99,452.1220721999998,,,,,,,,,,,,,,,,,,,,,,,,,,,,,,,,,,,,,,,,,,,,,,,,,,452.10793150000245,452.1220721999998,452.62270050000006,452.60683190000054,452.6155168000005,452.62270050000006,452.62270050000006,452.62270050000006,453.5912515000018,Objects\379a.jpg,mid,o,0.9567653999984032,None,,,,,,,,00032,001,2025-11-17_19h45.14.102,MST_test,2024.2.0,59.82918766970906,2025-11-17 19h45.20.667287 +0530,
100,0,101,o,1.153918899999553,None,101,0,100,453.60563280000133,,,,,,,,,,,,,,,,,,,,,,,,,,,,,,,,,,,,,,,,,,,,,,,,,,453.5916548000023,453.60563280000133,454.10608010000215,454.09020240000245,454.0986922000011,454.10608010000215,454.10608010000215,454.10608010000215,455.2740991000028,Objects\367a.jpg,mid,o,1.153918899999553,None,,,,,,,,00032,001,2025-11-17_19h45.14.102,MST_test,2024.2.0,59.82918766970906,2025-11-17 19h45.20.667287 +0530,
101,0,102,n,3.0070570000025327,None,102,0,101,455.2887057000007,,,,,,,,,,,,,,,,,,,,,,,,,,,,,,,,,,,,,,,,,,,,,,,,,,455.27449830000114,455.2887057000007,455.78993750000154,455.7730424000001,455.7872786000007,455.78993750000154,455.78993750000154,455.78993750000154,458.80757300000187,Foils\093b.jpg,none,n,3.0070570000025327,None,,,,,,,,00032,001,2025-11-17_19h45.14.102,MST_test,2024.2.0,59.82918766970906,2025-11-17 19h45.20.667287 +0530,
102,0,103,o,1.2259560999991663,None,103,0,102,458.82177290000254,,,,,,,,,,,,,,,,,,,,,,,,,,,,,,,,,,,,,,,,,,,,,,,,,,458.80790210000123,458.82177290000254,459.32227330000023,459.3071682000009,459.315024800002,459.32227330000023,459.32227330000023,459.32227330000023,460.55797950000124,Objects\122a.jpg,pre,o,1.2259560999991663,None,,,,,,,,00032,001,2025-11-17_19h45.14.102,MST_test,2024.2.0,59.82918766970906,2025-11-17 19h45.20.667287 +0530,
103,0,104,s,1.7740344000012556,None,104,0,103,460.5720067000002,,,,,,,,,,,,,,,,,,,,,,,,,,,,,,,,,,,,,,,,,,,,,,,,,,460.55838680000306,460.5720067000002,461.07816620000085,461.05641190000097,461.07550430000265,461.07816620000085,461.07816620000085,461.07816620000085,462.85801379999975,Objects\344b.jpg,pre,s,1.7740344000012556,None,,,,,,,,00032,001,2025-11-17_19h45.14.102,MST_test,2024.2.0,59.82918766970906,2025-11-17 19h45.20.667287 +0530,
104,0,105,n,1.9248800000023039,None,105,0,104,462.87190340000234,,,,,,,,,,,,,,,,,,,,,,,,,,,,,,,,,,,,,,,,,,,,,,,,,,462.85842700000285,462.87190340000234,463.37526570000045,463.35669410000264,463.3726562000011,463.37526570000045,463.37526570000045,463.37526570000045,465.3078645000023,Objects\095b.jpg,post,n,1.9248800000023039,None,,,,,,,,00032,001,2025-11-17_19h45.14.102,MST_test,2024.2.0,59.82918766970906,2025-11-17 19h45.20.667287 +0530,
105,0,106,o,1.0240763000001607,None,106,0,105,465.3220543000025,,,,,,,,,,,,,,,,,,,,,,,,,,,,,,,,,,,,,,,,,,,,,,,,,,465.3082589000005,465.3220543000025,465.827673900003,465.8065357000014,465.82529820000127,465.827673900003,465.827673900003,465.827673900003,466.8577284000021,Objects\253b.jpg,pre,o,1.0240763000001607,None,,,,,,,,00032,001,2025-11-17_19h45.14.102,MST_test,2024.2.0,59.82918766970906,2025-11-17 19h45.20.667287 +0530,
106,0,107,o,0.9280091000000539,None,107,0,106,466.8720590000012,,,,,,,,,,,,,,,,,,,,,,,,,,,,,,,,,,,,,,,,,,,,,,,,,,466.8580619000022,466.8720590000012,467.37228680000044,467.3565809000029,467.36309900000197,467.37228680000044,467.37228680000044,467.37228680000044,468.3064551000025,Objects\276a.jpg,pre,o,0.9280091000000539,None,,,,,,,,00032,001,2025-11-17_19h45.14.102,MST_test,2024.2.0,59.82918766970906,2025-11-17 19h45.20.667287 +0530,
107,0,108,o,2.949658699999418,None,108,0,107,468.3219121000002,,,,,,,,,,,,,,,,,,,,,,,,,,,,,,,,,,,,,,,,,,,,,,,,,,468.3065878000016,468.3219121000002,468.8223481000023,468.8067504000028,468.8134377000024,468.8223481000023,468.8223481000023,468.8223481000023,471.7749866000013,Objects\118a.jpg,pre,o,2.949658699999418,None,,,,,,,,00032,001,2025-11-17_19h45.14.102,MST_test,2024.2.0,59.82918766970906,2025-11-17 19h45.20.667287 +0530,
108,0,109,o,1.0747540000011213,None,109,0,108,471.78898290000143,,,,,,,,,,,,,,,,,,,,,,,,,,,,,,,,,,,,,,,,,,,,,,,,,,471.775341200002,471.78898290000143,472.289434600003,472.27330040000015,472.2805315000005,472.289434600003,472.289434600003,472.289434600003,473.3745071000012,Objects\336a.jpg,post,o,1.0747540000011213,None,,,,,,,,00032,001,2025-11-17_19h45.14.102,MST_test,2024.2.0,59.82918766970906,2025-11-17 19h45.20.667287 +0530,
109,0,110,n,1.3125114000031317,None,110,0,109,473.388981600001,,,,,,,,,,,,,,,,,,,,,,,,,,,,,,,,,,,,,,,,,,,,,,,,,,473.37489760000244,473.388981600001,473.8918365000027,473.87343890000193,473.88897610000276,473.8918365000027,473.8918365000027,473.8918365000027,475.2082244000012,Foils\101b.jpg,none,n,1.3125114000031317,None,,,,,,,,00032,001,2025-11-17_19h45.14.102,MST_test,2024.2.0,59.82918766970906,2025-11-17 19h45.20.667287 +0530,
110,0,111,s,2.7041130999969027,None,111,0,110,475.2221415000022,,,,,,,,,,,,,,,,,,,,,,,,,,,,,,,,,,,,,,,,,,,,,,,,,,475.2085270999996,475.2221415000022,475.7240350000029,475.70696730000054,475.7215204000022,475.7240350000029,475.7240350000029,475.7240350000029,478.44140379999953,Objects\002b.jpg,post,s,2.7041130999969027,None,,,,,,,,00032,001,2025-11-17_19h45.14.102,MST_test,2024.2.0,59.82918766970906,2025-11-17 19h45.20.667287 +0530,
111,0,112,o,1.6800397000006342,None,112,0,111,478.4557270000005,,,,,,,,,,,,,,,,,,,,,,,,,,,,,,,,,,,,,,,,,,,,,,,,,,478.4417966000001,478.4557270000005,478.9561754999995,478.9401457000022,478.9479371000016,478.9561754999995,478.9561754999995,478.9561754999995,480.64106170000014,Objects\277a.jpg,pre,o,1.6800397000006342,None,,,,,,,,00032,001,2025-11-17_19h45.14.102,MST_test,2024.2.0,59.82918766970906,2025-11-17 19h45.20.667287 +0530,
112,0,113,n,0.8692186000007496,None,113,0,112,480.65555630000017,,,,,,,,,,,,,,,,,,,,,,,,,,,,,,,,,,,,,,,,,,,,,,,,,,480.6413735000024,480.65555630000017,481.15855830000146,481.14019680000274,481.1557970000031,481.15855830000146,481.15855830000146,481.15855830000146,482.0417755000017,Foils\009a.jpg,none,n,0.8692186000007496,None,,,,,,,,00032,001,2025-11-17_19h45.14.102,MST_test,2024.2.0,59.82918766970906,2025-11-17 19h45.20.667287 +0530,
113,0,114,o,1.1918043999976362,None,114,0,113,482.0557015000013,,,,,,,,,,,,,,,,,,,,,,,,,,,,,,,,,,,,,,,,,,,,,,,,,,482.0421464000028,482.0557015000013,482.55612250000195,482.5400283000017,482.54909580000094,482.55612250000195,482.55612250000195,482.55612250000195,483.75808060000054,Objects\261a.jpg,pre,o,1.1918043999976362,None,,,,,,,,00032,001,2025-11-17_19h45.14.102,MST_test,2024.2.0,59.82918766970906,2025-11-17 19h45.20.667287 +0530,
114,0,115,n,1.9056218000005174,None,115,0,114,483.7722433000017,,,,,,,,,,,,,,,,,,,,,,,,,,,,,,,,,,,,,,,,,,,,,,,,,,483.7585844000023,483.7722433000017,484.27466950000235,484.25689710000006,484.27182130000074,484.27466950000235,484.27466950000235,484.27466950000235,486.19140280000283,Foils\065a.jpg,none,n,1.9056218000005174,None,,,,,,,,00032,001,2025-11-17_19h45.14.102,MST_test,2024.2.0,59.82918766970906,2025-11-17 19h45.20.667287 +0530,
115,0,116,s,2.33391489999849,None,116,0,115,486.205525100002,,,,,,,,,,,,,,,,,,,,,,,,,,,,,,,,,,,,,,,,,,,,,,,,,,486.19175160000304,486.205525100002,486.70985400000063,486.69031689999974,486.70729380000193,486.70985400000063,486.70985400000063,486.70985400000063,489.05790750000233,Objects\181b.jpg,pre,s,2.33391489999849,None,,,,,,,,00032,001,2025-11-17_19h45.14.102,MST_test,2024.2.0,59.82918766970906,2025-11-17 19h45.20.667287 +0530,
116,0,117,s,1.3085639999990235,None,117,0,116,489.07225649999964,,,,,,,,,,,,,,,,,,,,,,,,,,,,,,,,,,,,,,,,,,,,,,,,,,489.0582957000006,489.07225649999964,489.5757082000018,489.55671020000227,489.57318990000203,489.5757082000018,489.5757082000018,489.5757082000018,490.8915663000007,Foils\066a.jpg,none,s,1.3085639999990235,None,,,,,,,,00032,001,2025-11-17_19h45.14.102,MST_test,2024.2.0,59.82918766970906,2025-11-17 19h45.20.667287 +0530,
117,0,118,s,5.022047599999496,None,118,0,117,490.90566860000035,,,,,,,,,,,,,,,,,,,,,,,,,,,,,,,,,,,,,,,,,,,,,,,,,,490.89191420000134,490.90566860000035,491.40583960000004,491.39008620000095,491.39618490000066,491.40583960000004,491.40583960000004,491.40583960000004,496.4408485000022,Objects\141a.jpg,mid,s,5.022047599999496,None,,,,,,,,00032,001,2025-11-17_19h45.14.102,MST_test,2024.2.0,59.82918766970906,2025-11-17 19h45.20.667287 +0530,
118,0,119,n,1.957751099998859,None,119,0,118,496.45541010000306,,,,,,,,,,,,,,,,,,,,,,,,,,,,,,,,,,,,,,,,,,,,,,,,,,496.44119320000027,496.45541010000306,496.9577567000015,496.940150800001,496.95548220000273,496.9577567000015,496.9577567000015,496.9577567000015,498.9244776000014,Foils\113a.jpg,none,n,1.957751099998859,None,,,,,,,,00032,001,2025-11-17_19h45.14.102,MST_test,2024.2.0,59.82918766970906,2025-11-17 19h45.20.667287 +0530,
119,0,120,n,3.3886621999990894,None,120,0,119,498.938665200003,,,,,,,,,,,,,,,,,,,,,,,,,,,,,,,,,,,,,,,,,,,,,,,,,,498.9248437999995,498.938665200003,499.4389227000029,499.4229637999997,499.4365682000025,499.4389227000029,499.4389227000029,499.4389227000029,502.84104450000086,Foils\034a.jpg,none,n,3.3886621999990894,None,,,,,,,,00032,001,2025-11-17_19h45.14.102,MST_test,2024.2.0,59.82918766970906,2025-11-17 19h45.20.667287 +0530,
120,0,121,s,2.3602595000011206,None,121,0,120,502.85534689999986,,,,,,,,,,,,,,,,,,,,,,,,,,,,,,,,,,,,,,,,,,,,,,,,,,502.8413604000016,502.85534689999986,503.35553340000115,503.3397206000009,503.3461150000003,503.35553340000115,503.35553340000115,503.35553340000115,505.72397320000164,Objects\091a.jpg,mid,s,2.3602595000011206,None,,,,,,,,00032,001,2025-11-17_19h45.14.102,MST_test,2024.2.0,59.82918766970906,2025-11-17 19h45.20.667287 +0530,
121,0,122,o,2.228773100003309,None,122,0,121,505.73870370000077,,,,,,,,,,,,,,,,,,,,,,,,,,,,,,,,,,,,,,,,,,,,,,,,,,505.724345300001,505.73870370000077,506.23890830000164,506.22327150000274,506.2290771000007,506.23890830000164,506.23890830000164,506.23890830000164,508.4741759000026,Objects\156a.jpg,post,o,2.228773100003309,None,,,,,,,,00032,001,2025-11-17_19h45.14.102,MST_test,2024.2.0,59.82918766970906,2025-11-17 19h45.20.667287 +0530,
122,0,123,s,1.3221427999997104,None,123,0,122,508.4886561000021,,,,,,,,,,,,,,,,,,,,,,,,,,,,,,,,,,,,,,,,,,,,,,,,,,508.47448989999975,508.4886561000021,508.9934224000026,508.9731764999997,508.9911960000027,508.9934224000026,508.9934224000026,508.9934224000026,510.32418710000275,Objects\182b.jpg,mid,s,1.3221427999997104,None,,,,,,,,00032,001,2025-11-17_19h45.14.102,MST_test,2024.2.0,59.82918766970906,2025-11-17 19h45.20.667287 +0530,
123,0,124,o,1.0603349999983038,None,124,0,123,510.3388177000015,,,,,,,,,,,,,,,,,,,,,,,,,,,,,,,,,,,,,,,,,,,,,,,,,,510.3244573000011,510.3388177000015,510.8393974000028,510.82323330000145,510.8324554000028,510.8393974000028,510.8393974000028,510.8393974000028,511.906835400001,Objects\381a.jpg,pre,o,1.0603349999983038,None,,,,,,,,00032,001,2025-11-17_19h45.14.102,MST_test,2024.2.0,59.82918766970906,2025-11-17 19h45.20.667287 +0530,
124,0,125,n,1.3546996999975818,None,125,0,124,511.9219625000005,,,,,,,,,,,,,,,,,,,,,,,,,,,,,,,,,,,,,,,,,,,,,,,,,,511.9070759000024,511.9219625000005,512.424866100002,512.4070312000003,512.4221173000005,512.424866100002,512.424866100002,512.424866100002,513.7911323000008,Foils\074a.jpg,none,n,1.3546996999975818,None,,,,,,,,00032,001,2025-11-17_19h45.14.102,MST_test,2024.2.0,59.82918766970906,2025-11-17 19h45.20.667287 +0530,
125,0,126,s,1.3857043999996677,None,126,0,125,513.8053362999999,,,,,,,,,,,,,,,,,,,,,,,,,,,,,,,,,,,,,,,,,,,,,,,,,,513.7914809000031,513.8053362999999,514.3059313000012,514.289785500001,514.2955860000002,514.3059313000012,514.3059313000012,514.3059313000012,515.7077156000014,Objects\270a.jpg,pre,s,1.3857043999996677,None,,,,,,,,00032,001,2025-11-17_19h45.14.102,MST_test,2024.2.0,59.82918766970906,2025-11-17 19h45.20.667287 +0530,
126,0,127,o,1.3333987000005436,None,127,0,126,515.7219372,,,,,,,,,,,,,,,,,,,,,,,,,,,,,,,,,,,,,,,,,,,,,,,,,,515.7080884000025,515.7219372,516.2223379999996,516.2063158000019,516.2127959000027,516.2223379999996,516.2223379999996,516.2223379999996,517.5579552000017,Objects\314a.jpg,mid,o,1.3333987000005436,None,,,,,,,,00032,001,2025-11-17_19h45.14.102,MST_test,2024.2.0,59.82918766970906,2025-11-17 19h45.20.667287 +0530,
127,0,128,s,1.6150416000018595,None,128,0,127,517.5719836999997,,,,,,,,,,,,,,,,,,,,,,,,,,,,,,,,,,,,,,,,,,,,,,,,,,517.5583047,517.5719836999997,518.0768151000011,518.056772400003,518.0740796999999,518.0768151000011,518.0768151000011,518.0768151000011,519.7082098999999,Objects\132b.jpg,mid,s,1.6150416000018595,None,,,,,,,,00032,001,2025-11-17_19h45.14.102,MST_test,2024.2.0,59.82918766970906,2025-11-17 19h45.20.667287 +0530,
128,0,129,o,1.8534381999998004,None,129,0,128,519.722163800001,,,,,,,,,,,,,,,,,,,,,,,,,,,,,,,,,,,,,,,,,,,,,,,,,,519.7086111999997,519.722163800001,520.2225165000018,520.2069776999997,520.2146823000003,520.2225165000018,520.2225165000018,520.2225165000018,522.0909216,Objects\218a.jpg,post,o,1.8534381999998004,None,,,,,,,,00032,001,2025-11-17_19h45.14.102,MST_test,2024.2.0,59.82918766970906,2025-11-17 19h45.20.667287 +0530,
129,0,130,n,2.1789185000016005,None,130,0,129,522.1055640000013,,,,,,,,,,,,,,,,,,,,,,,,,,,,,,,,,,,,,,,,,,,,,,,,,,522.0912425999995,522.1055640000013,522.6092287000029,522.5898508000028,522.6063554000029,522.6092287000029,522.6092287000029,522.6092287000029,524.7912259000004,Foils\121a.jpg,none,n,2.1789185000016005,None,,,,,,,,00032,001,2025-11-17_19h45.14.102,MST_test,2024.2.0,59.82918766970906,2025-11-17 19h45.20.667287 +0530,
130,0,131,s,1.3482154000012088,None,131,0,130,524.8055936000019,,,,,,,,,,,,,,,,,,,,,,,,,,,,,,,,,,,,,,,,,,,,,,,,,,524.7915458000025,524.8055936000019,525.3118205999999,525.2896928000009,525.3095018000022,525.3118205999999,525.3118205999999,525.3118205999999,526.674334000003,Objects\126b.jpg,mid,s,1.3482154000012088,None,,,,,,,,00032,001,2025-11-17_19h45.14.102,MST_test,2024.2.0,59.82918766970906,2025-11-17 19h45.20.667287 +0530,
131,0,132,s,1.2177113999969151,None,132,0,131,526.688709500002,,,,,,,,,,,,,,,,,,,,,,,,,,,,,,,,,,,,,,,,,,,,,,,,,,526.6746908000023,526.688709500002,527.193801100002,527.173147700003,527.1910549000022,527.193801100002,527.193801100002,527.193801100002,528.4246364999999,Objects\197b.jpg,post,s,1.2177113999969151,None,,,,,,,,00032,001,2025-11-17_19h45.14.102,MST_test,2024.2.0,59.82918766970906,2025-11-17 19h45.20.667287 +0530,
132,0,133,o,1.6651286999986041,None,133,0,132,528.4387198000004,,,,,,,,,,,,,,,,,,,,,,,,,,,,,,,,,,,,,,,,,,,,,,,,,,528.4249531000023,528.4387198000004,528.9393761000028,528.923197600001,528.9294848000027,528.9393761000028,528.9393761000028,528.9393761000028,530.607605600002,Objects\231a.jpg,post,o,1.6651286999986041,None,,,,,,,,00032,001,2025-11-17_19h45.14.102,MST_test,2024.2.0,59.82918766970906,2025-11-17 19h45.20.667287 +0530,
133,0,134,n,1.4535370000012335,None,134,0,133,530.6219459000022,,,,,,,,,,,,,,,,,,,,,,,,,,,,,,,,,,,,,,,,,,,,,,,,,,530.6079073000001,530.6219459000022,531.1271465999998,531.1068473000014,531.1242682000011,531.1271465999998,531.1271465999998,531.1271465999998,532.5911357000005,Foils\002a.jpg,none,n,1.4535370000012335,None,,,,,,,,00032,001,2025-11-17_19h45.14.102,MST_test,2024.2.0,59.82918766970906,2025-11-17 19h45.20.667287 +0530,
134,0,135,s,3.1062816999983625,None,135,0,134,532.6053595000012,,,,,,,,,,,,,,,,,,,,,,,,,,,,,,,,,,,,,,,,,,,,,,,,,,532.5915095000018,532.6053595000012,533.1059716000018,533.0898143000013,533.0968533000014,533.1059716000018,533.1059716000018,533.1059716000018,536.2243603999996,Objects\322a.jpg,pre,s,3.1062816999983625,None,,,,,,,,00032,001,2025-11-17_19h45.14.102,MST_test,2024.2.0,59.82918766970906,2025-11-17 19h45.20.667287 +0530,
135,0,136,s,1.4461784000013722,None,136,0,135,536.2387837000024,,,,,,,,,,,,,,,,,,,,,,,,,,,,,,,,,,,,,,,,,,,,,,,,,,536.2246909000023,536.2387837000024,536.7417631999997,536.7232471000025,536.7391249000029,536.7417631999997,536.7417631999997,536.7417631999997,538.1913091999995,Objects\121b.jpg,mid,s,1.4461784000013722,None,,,,,,,,00032,001,2025-11-17_19h45.14.102,MST_test,2024.2.0,59.82918766970906,2025-11-17 19h45.20.667287 +0530,
136,0,137,s,2.0257616999988386,None,137,0,136,538.2053704000027,,,,,,,,,,,,,,,,,,,,,,,,,,,,,,,,,,,,,,,,,,,,,,,,,,538.1916581000005,538.2053704000027,538.7059476000031,538.6899298000026,538.6986410000027,538.7059476000031,538.7059476000031,538.7059476000031,540.7409275999998,Foils\f6.jpg,none,s,2.0257616999988386,None,,,,,,,,00032,001,2025-11-17_19h45.14.102,MST_test,2024.2.0,59.82918766970906,2025-11-17 19h45.20.667287 +0530,
137,0,138,s,1.5265264000008756,None,138,0,137,540.7554699000029,,,,,,,,,,,,,,,,,,,,,,,,,,,,,,,,,,,,,,,,,,,,,,,,,,540.7412562999998,540.7554699000029,541.2609759000006,541.2399079000024,541.2583594999996,541.2609759000006,541.2609759000006,541.2609759000006,542.7915823000003,Objects\307b.jpg,mid,s,1.5265264000008756,None,,,,,,,,00032,001,2025-11-17_19h45.14.102,MST_test,2024.2.0,59.82918766970906,2025-11-17 19h45.20.667287 +0530,
138,0,139,o,1.0180025000008754,None,139,0,138,542.8054936000008,,,,,,,,,,,,,,,,,,,,,,,,,,,,,,,,,,,,,,,,,,,,,,,,,,542.7919737000011,542.8054936000008,543.3056109999998,543.289974000003,543.2968151000023,543.3056109999998,543.3056109999998,543.3056109999998,544.340927600002,Objects\171a.jpg,pre,o,1.0180025000008754,None,,,,,,,,00032,001,2025-11-17_19h45.14.102,MST_test,2024.2.0,59.82918766970906,2025-11-17 19h45.20.667287 +0530,
139,0,140,s,2.3290197999995144,None,140,0,139,544.3553922000028,,,,,,,,,,,,,,,,,,,,,,,,,,,,,,,,,,,,,,,,,,,,,,,,,,544.3411999000018,544.3553922000028,544.8588718000028,544.8401002999999,544.8561762999998,544.8588718000028,544.8588718000028,544.8588718000028,547.1910731999997,Objects\327b.jpg,post,s,2.3290197999995144,None,,,,,,,,00032,001,2025-11-17_19h45.14.102,MST_test,2024.2.0,59.82918766970906,2025-11-17 19h45.20.667287 +0530,
140,0,141,s,1.6325490999988688,None,141,0,140,547.2055586000024,,,,,,,,,,,,,,,,,,,,,,,,,,,,,,,,,,,,,,,,,,,,,,,,,,547.1913625000016,547.2055586000024,547.7076191000015,547.6900849000012,547.704838200003,547.7076191000015,547.7076191000015,547.7076191000015,549.3579516999998,Objects\070b.jpg,post,s,1.6325490999988688,None,,,,,,,,00032,001,2025-11-17_19h45.14.102,MST_test,2024.2.0,59.82918766970906,2025-11-17 19h45.20.667287 +0530,
141,0,142,o,1.4914262999991479,None,142,0,141,549.372109400003,,,,,,,,,,,,,,,,,,,,,,,,,,,,,,,,,,,,,,,,,,,,,,,,,,549.3583108000021,549.372109400003,549.8724548000027,549.8562610000008,549.8632279000012,549.8724548000027,549.8724548000027,549.8724548000027,551.3747483000006,Objects\309a.jpg,pre,o,1.4914262999991479,None,,,,,,,,00032,001,2025-11-17_19h45.14.102,MST_test,2024.2.0,59.82918766970906,2025-11-17 19h45.20.667287 +0530,
142,0,143,o,1.1065161999977136,None,143,0,142,551.3888804000017,,,,,,,,,,,,,,,,,,,,,,,,,,,,,,,,,,,,,,,,,,,,,,,,,,551.3750923000007,551.3888804000017,551.8891640000002,551.8729010000025,551.8797340000019,551.8891640000002,551.8891640000002,551.8891640000002,553.0080508000028,Objects\129a.jpg,mid,o,1.1065161999977136,None,,,,,,,,00032,001,2025-11-17_19h45.14.102,MST_test,2024.2.0,59.82918766970906,2025-11-17 19h45.20.667287 +0530,
143,0,144,s,1.3808447000010347,None,144,0,143,553.0221192000026,,,,,,,,,,,,,,,,,,,,,,,,,,,,,,,,,,,,,,,,,,,,,,,,,,553.0084096000028,553.0221192000026,553.5270219000013,553.5066643999999,553.5242005,553.5270219000013,553.5270219000013,553.5270219000013,554.9241841000003,Objects\254b.jpg,pre,s,1.3808447000010347,None,,,,,,,,00032,001,2025-11-17_19h45.14.102,MST_test,2024.2.0,59.82918766970906,2025-11-17 19h45.20.667287 +0530,
144,0,145,o,1.6607185000029858,None,145,0,144,554.9386973000001,,,,,,,,,,,,,,,,,,,,,,,,,,,,,,,,,,,,,,,,,,,,,,,,,,554.924525800001,554.9386973000001,555.4392738000024,555.4227557000013,555.4283692999998,555.4392738000024,555.4392738000024,555.4392738000024,557.1077656000016,Objects\217a.jpg,mid,o,1.6607185000029858,None,,,,,,,,00032,001,2025-11-17_19h45.14.102,MST_test,2024.2.0,59.82918766970906,2025-11-17 19h45.20.667287 +0530,
145,0,146,s,1.4988845000007132,None,146,0,145,557.1220590000012,,,,,,,,,,,,,,,,,,,,,,,,,,,,,,,,,,,,,,,,,,,,,,,,,,557.1081048000015,557.1220590000012,557.6250055000019,557.6065942000023,557.622295600002,557.6250055000019,557.6250055000019,557.6250055000019,559.1405183999996,Objects\233b.jpg,post,s,1.4988845000007132,None,,,,,,,,00032,001,2025-11-17_19h45.14.102,MST_test,2024.2.0,59.82918766970906,2025-11-17 19h45.20.667287 +0530,
146,0,147,s,1.8578214000008302,None,147,0,146,559.1554147000024,,,,,,,,,,,,,,,,,,,,,,,,,,,,,,,,,,,,,,,,,,,,,,,,,,559.1408738999999,559.1554147000024,559.6579191000019,559.639998300001,559.655598100002,559.6579191000019,559.6579191000019,559.6579191000019,561.5239129000001,Objects\189b.jpg,mid,s,1.8578214000008302,None,,,,,,,,00032,001,2025-11-17_19h45.14.102,MST_test,2024.2.0,59.82918766970906,2025-11-17 19h45.20.667287 +0530,
147,0,148,o,1.4450610999992932,None,148,0,147,561.5387398000021,,,,,,,,,,,,,,,,,,,,,,,,,,,,,,,,,,,,,,,,,,,,,,,,,,561.5241822000025,561.5387398000021,562.0388778000015,562.0232790000009,562.0312851000017,562.0388778000015,562.0388778000015,562.0388778000015,563.491186700001,Objects\170a.jpg,pre,o,1.4450610999992932,None,,,,,,,,00032,001,2025-11-17_19h45.14.102,MST_test,2024.2.0,59.82918766970906,2025-11-17 19h45.20.667287 +0530,
148,0,149,s,1.094338400002016,None,149,0,148,563.5054311000022,,,,,,,,,,,,,,,,,,,,,,,,,,,,,,,,,,,,,,,,,,,,,,,,,,563.4914846000029,563.5054311000022,564.0057108000001,563.9900174000031,564.0005672000007,564.0057108000001,564.0057108000001,564.0057108000001,565.1076157000025,Objects\178a.jpg,post,s,1.094338400002016,None,,,,,,,,00032,001,2025-11-17_19h45.14.102,MST_test,2024.2.0,59.82918766970906,2025-11-17 19h45.20.667287 +0530,
149,0,150,o,1.3581382999982452,None,150,0,149,565.122605200002,,,,,,,,,,,,,,,,,,,,,,,,,,,,,,,,,,,,,,,,,,,,,,,,,,565.1079701000017,565.122605200002,565.6221329,565.6065890999998,565.6139002000018,565.6221329,565.6221329,565.6221329,566.9909941000005,Objects\022a.jpg,mid,o,1.3581382999982452,None,,,,,,,,00032,001,2025-11-17_19h45.14.102,MST_test,2024.2.0,59.82918766970906,2025-11-17 19h45.20.667287 +0530,
,,,,,,,,,,,,,,,,,,,,,,,,,,,,,,,,,,,,,,,,,,,,,,,,,,,,,,,,,,,,,,,,,,,,,,,,,566.9912245000014,567.0056017000024,567.0056017000024,568.4907280000007,space,1.4787021999982244,None,00032,001,2025-11-17_19h45.14.102,MST_test,2024.2.0,59.82918766970906,2025-11-17 19h45.20.667287 +0530,
