Sl_no,image_path,thisN,thisTrialN,thisRepN,key_resp_5.keys,key_resp_7.keys,key_resp_7.rt,key_resp_7.duration,key_resp_5.rt,key_resp_5.duration,key_resp_9.keys,key_resp_9.rt,key_resp_9.duration,key_resp_8.keys,key_resp_8.rt,key_resp_8.duration,practice.thisRepN,practice.thisTrialN,practice.thisN,trials.thisRepN,trials.thisTrialN,trials.thisN,thisRow.t,notes,welcome_page.started,text.started,key_resp.started,welcome_page.stopped,key_resp.keys,key_resp.rt,key_resp.duration,instructions.started,ins.started,key_resp_2.started,instructions.stopped,key_resp_2.keys,key_resp_2.rt,key_resp_2.duration,objects_only_instruction.started,text_3.started,key_resp_3.started,objects_only_instruction.stopped,key_resp_3.keys,key_resp_3.rt,key_resp_3.duration,ISI.started,text_4.started,ISI.stopped,practice_block.started,image.started,key_resp_5.started,text_5.started,practice_block.stopped,practice.key_resp_5.keys,indoor_outdoor.started,text_7.started,key_resp_7.started,indoor_outdoor.stopped,practice.key_resp_7.keys,practice.key_resp_7.rt,practice.key_resp_7.duration,text_4.stopped,practice.key_resp_5.rt,practice.key_resp_5.duration,practice_to_main.started,text_2.started,key_resp_4.started,practice_to_main.stopped,key_resp_4.keys,key_resp_4.rt,key_resp_4.duration,objects.started,image_2.started,text_9.started,key_resp_9.started,objects.stopped,category,trials.key_resp_9.keys,trials.key_resp_9.rt,trials.key_resp_9.duration,encoding_task.started,encoding_task.stopped,trials.key_resp_8.keys,text_8.started,key_resp_8.started,trials.key_resp_8.rt,trials.key_resp_8.duration,end_experiment.started,text_6.started,key_resp_6.started,end_experiment.stopped,key_resp_6.keys,key_resp_6.rt,key_resp_6.duration,list_of_stimuli,encoding_task_accuracy,participant,session,date,expName,psychopyVersion,frameRate,expStart,
,,,,,,,,,,,,,,,,,,,,,,,,,0.0010910000000876607,0.0029572000003099674,0.0029572000003099674,3351.3144937000006,space,3351.2984159,None,,,,,,,,,,,,,,,,,,,,,,,,,,,,,,,,,,,,,,,,,,,,,,,,,,,,,,,,,,,,,,,,,,00062,001,2026-01-19_18h25.43.917,MST_task,2024.2.0,59.92473453334364,2026-01-19 18h25.51.184822 +0530,
,,,,,,,,,,,,,,,,,,,,,,,,,,,,,,,,3351.3145868,3351.3283115000004,3351.3283115000004,3375.5066276999996,space,24.1726835999998,None,,,,,,,,,,,,,,,,,,,,,,,,,,,,,,,,,,,,,,,,,,,,,,,,,,,,,,,,,,,00062,001,2026-01-19_18h25.43.917,MST_task,2024.2.0,59.92473453334364,2026-01-19 18h25.51.184822 +0530,
,,,,,,,,,,,,,,,,,,,,,,,,,,,,,,,,,,,,,,,3375.5067346999995,3375.5259656000007,3375.5259656000007,3408.3400788999998,space,32.8076516000001,None,,,,,,,,,,,,,,,,,,,,,,,,,,,,,,,,,,,,,,,,,,,,,,,,,,,,00062,001,2026-01-19_18h25.43.917,MST_task,2024.2.0,59.92473453334364,2026-01-19 18h25.51.184822 +0530,
3,practice_images/037a.jpg,0,0,1,None,f,4.260064800000691,None,,,,,,,,,1,0,0,,,,3408.3669765999994,,,,,,,,,,,,,,,,,,,,,,,3408.364397799999,3408.3669765999994,3408.8565150000004,3408.8806672,3408.9129485000003,3408.9129485000003,3408.9129485000003,3411.8562477999994,None,3411.8615598999995,3411.872575300001,3411.872575300001,3416.1398304999993,f,4.260064800000691,None,,,,,,,,,,,,,,,,,,,,,,,,,,,,,,,,,,,,00062,001,2026-01-19_18h25.43.917,MST_task,2024.2.0,59.92473453334364,2026-01-19 18h25.51.184822 +0530,
9,practice_images/180a.jpg,1,1,1,f,None,,,1.8746197000000393,0.16748240000015358,,,,,,,1,1,1,,,,3416.1564675,,,,,,,,,,,,,,,,,,,,,,,3416.1401388000004,3416.1564675,3416.6399788999997,3416.6561126999995,3416.6590195,3416.6590195,3416.6590195,3419.6561066999993,f,3419.6562296,,,3419.6562776,None,,,3416.6590195,1.8746197000000393,0.16748240000015358,,,,,,,,,,,,,,,,,,,,,,,,,,,,,,,,,00062,001,2026-01-19_18h25.43.917,MST_task,2024.2.0,59.92473453334364,2026-01-19 18h25.51.184822 +0530,
6,practice_images/158a.jpg,2,2,1,j,None,,,2.1460855999994237,0.18392860000130895,,,,,,,1,2,2,,,,3419.6724516000004,,,,,,,,,,,,,,,,,,,,,,,3419.6564915999998,3419.6724516000004,3420.1565032999997,3420.1753567999995,3420.178498099999,3420.178498099999,3420.178498099999,3423.1729719000004,j,3423.1731250000003,,,3423.1731895000003,None,,,3420.178498099999,2.1460855999994237,0.18392860000130895,,,,,,,,,,,,,,,,,,,,,,,,,,,,,,,,,00062,001,2026-01-19_18h25.43.917,MST_task,2024.2.0,59.92473453334364,2026-01-19 18h25.51.184822 +0530,
1,practice_images/013a.jpg,3,3,1,f,None,,,2.268889400000262,0.17567099999905622,,,,,,,1,3,3,,,,3423.189797599999,,,,,,,,,,,,,,,,,,,,,,,3423.1734705999997,3423.189797599999,3423.6729095,3423.6929305000003,3423.6958974,3423.6958974,3423.6958974,3426.689545800001,f,3426.6896819999993,,,3426.6897485,None,,,3423.6958974,2.268889400000262,0.17567099999905622,,,,,,,,,,,,,,,,,,,,,,,,,,,,,,,,,00062,001,2026-01-19_18h25.43.917,MST_task,2024.2.0,59.92473453334364,2026-01-19 18h25.51.184822 +0530,
2,practice_images/031a.jpg,4,4,1,f,None,,,2.504148299998633,0.15980670000135433,,,,,,,1,4,4,,,,3426.705969400001,,,,,,,,,,,,,,,,,,,,,,,3426.690017,3426.705969400001,3427.1894918000007,3427.2093730000006,3427.2125344999995,3427.2125344999995,3427.2125344999995,3430.2063917999994,f,3430.206529599999,,,3430.2065931000006,None,,,3427.2125344999995,2.504148299998633,0.15980670000135433,,,,,,,,,,,,,,,,,,,,,,,,,,,,,,,,,00062,001,2026-01-19_18h25.43.917,MST_task,2024.2.0,59.92473453334364,2026-01-19 18h25.51.184822 +0530,
10,practice_images/182a.jpg,5,5,1,f,None,,,2.3769243999995524,0.16045110000050045,,,,,,,1,5,5,,,,3430.2226268999993,,,,,,,,,,,,,,,,,,,,,,,3430.206862,3430.2226268999993,3430.7064946,3430.7298874,3430.7317264999992,3430.7317264999992,3430.7317264999992,3433.723135699999,f,3433.7291084,,,3433.7291533,None,,,3430.7317264999992,2.3769243999995524,0.16045110000050045,,,,,,,,,,,,,,,,,,,,,,,,,,,,,,,,,00062,001,2026-01-19_18h25.43.917,MST_task,2024.2.0,59.92473453334364,2026-01-19 18h25.51.184822 +0530,
4,practice_images/002b.jpg,6,6,1,j,None,,,2.2926208000008046,0.16787599999952363,,,,,,,1,6,6,,,,3433.7396541000007,,,,,,,,,,,,,,,,,,,,,,,3433.7293299000003,3433.7396541000007,3434.2228692,3434.2447220999993,3434.2478980000005,3434.2478980000005,3434.2478980000005,3437.2397525000006,j,3437.2398951999994,,,3437.2399603000003,None,,,3434.2478980000005,2.2926208000008046,0.16787599999952363,,,,,,,,,,,,,,,,,,,,,,,,,,,,,,,,,00062,001,2026-01-19_18h25.43.917,MST_task,2024.2.0,59.92473453334364,2026-01-19 18h25.51.184822 +0530,
5,practice_images/139a.jpg,7,7,1,f,None,,,1.44706799999949,0.20793290000074194,,,,,,,1,7,7,,,,3437.2558990000007,,,,,,,,,,,,,,,,,,,,,,,3437.2402285,3437.2558990000007,3437.7397878,3437.7561646000004,3437.7580996000006,3437.7580996000006,3437.7580996000006,3440.7565674000007,f,3440.7567119999994,,,3440.756777400001,None,,,3437.7580996000006,1.44706799999949,0.20793290000074194,,,,,,,,,,,,,,,,,,,,,,,,,,,,,,,,,00062,001,2026-01-19_18h25.43.917,MST_task,2024.2.0,59.92473453334364,2026-01-19 18h25.51.184822 +0530,
7,practice_images/166a.jpg,8,8,1,f,None,,,2.4399086000012176,0.19048889999976382,,,,,,,1,8,8,,,,3440.7729105999997,,,,,,,,,,,,,,,,,,,,,,,3440.7570504999994,3440.7729105999997,3441.2561367000008,3441.2748681000003,3441.2780343999993,3441.2780343999993,3441.2780343999993,3444.2731319999994,f,3444.2732726000004,,,3444.2733368,None,,,3441.2780343999993,2.4399086000012176,0.19048889999976382,,,,,,,,,,,,,,,,,,,,,,,,,,,,,,,,,00062,001,2026-01-19_18h25.43.917,MST_task,2024.2.0,59.92473453334364,2026-01-19 18h25.51.184822 +0530,
8,practice_images/178a.jpg,9,9,1,f,None,,,1.3159286999998585,0.17656949999945937,,,,,,,1,9,9,,,,3444.2891634,,,,,,,,,,,,,,,,,,,,,,,3444.2736268,3444.2891634,3444.7731813,3444.7894081999993,3444.7925707999993,3444.7925707999993,3444.7925707999993,3447.7897215000003,f,3447.7898646999993,,,3447.7899308999995,None,,,3444.7925707999993,1.3159286999998585,0.17656949999945937,,,,,,,,,,,,,,,,,,,,,,,,,,,,,,,,,00062,001,2026-01-19_18h25.43.917,MST_task,2024.2.0,59.92473453334364,2026-01-19 18h25.51.184822 +0530,
,,,,,,,,,,,,,,,,,,,,,,,,,,,,,,,,,,,,,,,,,,,,,,,,,,,,,,,,,,,,,,,,,3447.7901140000004,3447.8057681,3447.8057681,3456.373279300001,space,8.55910380000023,None,,,,,,,,,,,,,,,,,,,,,,,,,,00062,001,2026-01-19_18h25.43.917,MST_task,2024.2.0,59.92473453334364,2026-01-19 18h25.51.184822 +0530,
,Objects\338a.jpg,0,0,1,,,,,,,f,1.8266490999994858,0.16784430000006978,None,,,,,,1,0,0,3456.3891037999992,,,,,,,,,,,,,,,,,,,,,,,3456.3761385999996,3456.3891037999992,3456.8735528999996,,,,,,,,,,,,,,,,,,,,,,,,3456.8951057000004,3456.8980588000004,3456.8980588000004,3456.8980588000004,3459.889537,indoor,f,1.8266490999994858,0.16784430000006978,3459.8947897000007,3459.8948549000006,None,,,,,,,,,,,,,,00062,001,2026-01-19_18h25.43.917,MST_task,2024.2.0,59.92473453334364,2026-01-19 18h25.51.184822 +0530,
,Objects\314a.jpg,1,0,2,,,,,,,None,,,f,0.7180520000001707,None,,,,2,0,1,3459.9060698999992,,,,,,,,,,,,,,,,,,,,,,,3459.8951224,3459.9060698999992,3460.3897604000003,,,,,,,,,,,,,,3460.4277699999993,,,,,,,,,,3460.4252578000005,3460.4277699999993,3460.4277699999993,3460.4277699999993,3463.406459500001,indoor,None,,,3463.4066211,3464.1566118,f,3463.4224139000007,3463.4224139000007,0.7180520000001707,None,,,,,,,,,,00062,001,2026-01-19_18h25.43.917,MST_task,2024.2.0,59.92473453334364,2026-01-19 18h25.51.184822 +0530,
,Objects\233a.jpg,2,0,3,,,,,,,j,1.6868117999983951,0.19208440000147675,None,,,,,,3,0,2,3464.1731351999997,,,,,,,,,,,,,,,,,,,,,,,3464.1569511000007,3464.1731351999997,3464.656839099999,,,,,,,,,,,,,,3464.718278200001,,,,,,,,,,3464.715602200001,3464.718278200001,3464.718278200001,3464.718278200001,3467.6730904000005,indoor,j,1.6868117999983951,0.19208440000147675,3467.6732567999998,3467.6733207999996,None,,,,,,,,,,,,,,00062,001,2026-01-19_18h25.43.917,MST_task,2024.2.0,59.92473453334364,2026-01-19 18h25.51.184822 +0530,
,Objects\269a.jpg,3,0,4,,,,,,,f,1.99269170000116,0.17625889999908395,None,,,,,,4,0,3,3467.6894134000004,,,,,,,,,,,,,,,,,,,,,,,3467.6735989,3467.6894134000004,3468.1737853999994,,,,,,,,,,,,,,,,,,,,,,,,3468.193207200001,3468.1957809000005,3468.1957809000005,3468.1957809000005,3471.1896098999996,indoor,f,1.99269170000116,0.17625889999908395,3471.1897813999994,3471.1898441999992,None,,,,,,,,,,,,,,00062,001,2026-01-19_18h25.43.917,MST_task,2024.2.0,59.92473453334364,2026-01-19 18h25.51.184822 +0530,
,Objects\056a.jpg,4,0,5,,,,,,,f,2.5636455999992904,0.2405908000000636,None,,,,,,5,0,4,3471.2055661000004,,,,,,,,,,,,,,,,,,,,,,,3471.1902230999995,3471.2055661000004,3471.689862,,,,,,,,,,,,,,3471.7128349000004,,,,,,,,,,3471.7098827,3471.7128349000004,3471.7128349000004,3471.7128349000004,3474.7062154999994,indoor,f,2.5636455999992904,0.2405908000000636,3474.7063824000006,3474.7064471000003,None,,,,,,,,,,,,,,00062,001,2026-01-19_18h25.43.917,MST_task,2024.2.0,59.92473453334364,2026-01-19 18h25.51.184822 +0530,
,Objects\089a.jpg,5,0,6,,,,,,,f,2.231774400001086,0.1753367999990587,None,,,,,,6,0,5,3474.7225902,,,,,,,,,,,,,,,,,,,,,,,3474.706752700001,3474.7225902,3475.2070231999996,,,,,,,,,,,,,,,,,,,,,,,,3475.2260636,3475.2292651,3475.2292651,3475.2292651,3478.223278799999,indoor,f,2.231774400001086,0.1753367999990587,3478.223444099999,3478.223507399999,None,,,,,,,,,,,,,,00062,001,2026-01-19_18h25.43.917,MST_task,2024.2.0,59.92473453334364,2026-01-19 18h25.51.184822 +0530,
,Objects\105a.jpg,6,0,7,,,,,,,f,1.5739330000014888,0.19142610000017157,None,,,,,,7,0,6,3478.2394218,,,,,,,,,,,,,,,,,,,,,,,3478.2238124000005,3478.2394218,3478.7231827000005,,,,,,,,,,,,,,3478.7750590999995,,,,,,,,,,3478.772701000001,3478.7750590999995,3478.7750590999995,3478.7750590999995,3481.7397907000004,indoor,f,1.5739330000014888,0.19142610000017157,3481.7399574,3481.740023900001,None,,,,,,,,,,,,,,00062,001,2026-01-19_18h25.43.917,MST_task,2024.2.0,59.92473453334364,2026-01-19 18h25.51.184822 +0530,
,Objects\242a.jpg,7,0,8,,,,,,,None,,,j,0.4518533999998908,None,,,,8,0,7,3481.7561008000002,,,,,,,,,,,,,,,,,,,,,,,3481.7403095,3481.7561008000002,3482.2398501,,,,,,,,,,,,,,3482.3132391999998,,,,,,,,,,3482.3113244000006,3482.3132391999998,3482.3132391999998,3482.3132391999998,3485.256478800001,shoe,None,,,3485.2624707999994,3485.740257799999,j,3485.2725717000003,3485.2725717000003,0.4518533999998908,None,,,,,,,,,,00062,001,2026-01-19_18h25.43.917,MST_task,2024.2.0,59.92473453334364,2026-01-19 18h25.51.184822 +0530,
,Objects\298a.jpg,8,0,9,,,,,,,None,,,f,0.6676169000002119,None,,,,9,0,8,3485.7560282000004,,,,,,,,,,,,,,,,,,,,,,,3485.7406027000006,3485.7560282000004,3486.2398325000004,,,,,,,,,,,,,,3486.2644278,,,,,,,,,,3486.261765,3486.2644278,3486.2644278,3486.2644278,3489.2562774999997,shoe,None,,,3489.2564212000007,3489.9564395000007,f,3489.272774100001,3489.272774100001,0.6676169000002119,None,,,,,,,,,,00062,001,2026-01-19_18h25.43.917,MST_task,2024.2.0,59.92473453334364,2026-01-19 18h25.51.184822 +0530,
,Objects\323a.jpg,9,0,10,,,,,,,f,1.746681799999351,0.16802470000038738,None,,,,,,10,0,9,3489.9728339000003,,,,,,,,,,,,,,,,,,,,,,,3489.9567739999993,3489.9728339000003,3490.456669,,,,,,,,,,,,,,,,,,,,,,,,3490.4959217999995,3490.4984090000007,3490.4984090000007,3490.4984090000007,3493.4728193,shoe,f,1.746681799999351,0.16802470000038738,3493.4729933999997,3493.4730499000007,None,,,,,,,,,,,,,,00062,001,2026-01-19_18h25.43.917,MST_task,2024.2.0,59.92473453334364,2026-01-19 18h25.51.184822 +0530,
,Objects\138a.jpg,10,0,11,,,,,,,None,,,j,0.04653180000059365,None,,,,11,0,10,3493.4890244999997,,,,,,,,,,,,,,,,,,,,,,,3493.4733088000003,3493.4890244999997,3493.9729694000007,,,,,,,,,,,,,,3494.0333485,,,,,,,,,,3494.031062700001,3494.0333485,3494.0333485,3494.0333485,3496.9898114,shoe,None,,,3496.9899584000004,3497.0564497999994,j,3497.0061307000005,3497.0061307000005,0.04653180000059365,None,,,,,,,,,,00062,001,2026-01-19_18h25.43.917,MST_task,2024.2.0,59.92473453334364,2026-01-19 18h25.51.184822 +0530,
,Objects\211a.jpg,11,0,12,,,,,,,j,1.6772681999991619,0.1915394000006927,None,,,,,,12,0,11,3497.0726793999993,,,,,,,,,,,,,,,,,,,,,,,3497.0569000999994,3497.0726793999993,3497.5563118,,,,,,,,,,,,,,3497.5838071000007,,,,,,,,,,3497.5808162000003,3497.5838071000007,3497.5838071000007,3497.5838071000007,3500.572807899999,shoe,j,1.6772681999991619,0.1915394000006927,3500.572983700001,3500.573049899999,None,,,,,,,,,,,,,,00062,001,2026-01-19_18h25.43.917,MST_task,2024.2.0,59.92473453334364,2026-01-19 18h25.51.184822 +0530,
,Objects\003a.jpg,12,0,13,,,,,,,j,1.966780300001119,0.18398869999873568,None,,,,,,13,0,12,3500.5894185999996,,,,,,,,,,,,,,,,,,,,,,,3500.5733348999993,3500.5894185999996,3501.0733539000003,,,,,,,,,,,,,,,,,,,,,,,,3501.1387330000007,3501.1415981,3501.1415981,3501.1415981,3504.0898093999995,shoe,j,1.966780300001119,0.18398869999873568,3504.0899827999992,3504.0900463999997,None,,,,,,,,,,,,,,00062,001,2026-01-19_18h25.43.917,MST_task,2024.2.0,59.92473453334364,2026-01-19 18h25.51.184822 +0530,
,Objects\282a.jpg,13,0,14,,,,,,,j,1.4861729999993258,0.1679285999998683,None,,,,,,14,0,13,3504.106024399999,,,,,,,,,,,,,,,,,,,,,,,3504.0903363999996,3504.106024399999,3504.590312200001,,,,,,,,,,,,,,,,,,,,,,,,3504.6119362,3504.6143134999993,3504.6143134999993,3504.6143134999993,3507.6063798000005,shoe,j,1.4861729999993258,0.1679285999998683,3507.6065527,3507.6066149999997,None,,,,,,,,,,,,,,00062,001,2026-01-19_18h25.43.917,MST_task,2024.2.0,59.92473453334364,2026-01-19 18h25.51.184822 +0530,
,Objects\376a.jpg,14,0,15,,,,,,,f,2.7246123000004445,0.19982709999931103,None,,,,,,15,0,14,3507.6229520999996,,,,,,,,,,,,,,,,,,,,,,,3507.6069070000003,3507.6229520999996,3508.1061290000007,,,,,,,,,,,,,,3508.128603100001,,,,,,,,,,3508.1260658,3508.128603100001,3508.128603100001,3508.128603100001,3511.1234388000003,indoor,f,2.7246123000004445,0.19982709999931103,3511.128970500001,3511.1290443000007,None,,,,,,,,,,,,,,00062,001,2026-01-19_18h25.43.917,MST_task,2024.2.0,59.92473453334364,2026-01-19 18h25.51.184822 +0530,
,Objects\104a.jpg,15,0,16,,,,,,,f,2.5906067000014446,0.14351519999945594,None,,,,,,16,0,15,3511.1394200000004,,,,,,,,,,,,,,,,,,,,,,,3511.1293361,3511.1394200000004,3511.6232826000005,,,,,,,,,,,,,,3511.6704311999993,,,,,,,,,,3511.6677881000005,3511.6704311999993,3511.6704311999993,3511.6704311999993,3514.640201200001,indoor,f,2.5906067000014446,0.14351519999945594,3514.6403684000006,3514.6404334999997,None,,,,,,,,,,,,,,00062,001,2026-01-19_18h25.43.917,MST_task,2024.2.0,59.92473453334364,2026-01-19 18h25.51.184822 +0530,
,Objects\246a.jpg,16,0,17,,,,,,,f,2.083928800000649,0.19205289999990782,None,,,,,,17,0,16,3514.6560313,,,,,,,,,,,,,,,,,,,,,,,3514.6407074999997,3514.6560313,3515.1398474000007,,,,,,,,,,,,,,3515.160579799999,,,,,,,,,,3515.1581959999994,3515.160579799999,3515.160579799999,3515.160579799999,3518.1562540999994,indoor,f,2.083928800000649,0.19205289999990782,3518.1564224000003,3518.1564862999994,None,,,,,,,,,,,,,,00062,001,2026-01-19_18h25.43.917,MST_task,2024.2.0,59.92473453334364,2026-01-19 18h25.51.184822 +0530,
,Objects\366a.jpg,17,0,18,,,,,,,j,2.6693709999999555,0.16769100000055914,None,,,,,,18,0,17,3518.1724406000003,,,,,,,,,,,,,,,,,,,,,,,3518.156767900001,3518.1724406000003,3518.656071799999,,,,,,,,,,,,,,3518.6792025000004,,,,,,,,,,3518.6765363999993,3518.6792025000004,3518.6792025000004,3518.6792025000004,3521.6567941999992,indoor,j,2.6693709999999555,0.16769100000055914,3521.6569666000005,3521.6570356,None,,,,,,,,,,,,,,00062,001,2026-01-19_18h25.43.917,MST_task,2024.2.0,59.92473453334364,2026-01-19 18h25.51.184822 +0530,
,Objects\257a.jpg,18,0,19,,,,,,,f,1.0811199999989185,0.16798190000008617,None,,,,,,19,0,18,3521.6724353,,,,,,,,,,,,,,,,,,,,,,,3521.6573352999994,3521.6724353,3522.1559678999993,,,,,,,,,,,,,,3522.1801234000004,,,,,,,,,,3522.1775337999998,3522.1801234000004,3522.1801234000004,3522.1801234000004,3525.1731527,indoor,f,1.0811199999989185,0.16798190000008617,3525.1733206,3525.173388,None,,,,,,,,,,,,,,00062,001,2026-01-19_18h25.43.917,MST_task,2024.2.0,59.92473453334364,2026-01-19 18h25.51.184822 +0530,
,Objects\290a.jpg,19,0,20,,,,,,,j,1.550283099999433,0.1764368000003742,None,,,,,,20,0,19,3525.1891275999997,,,,,,,,,,,,,,,,,,,,,,,3525.1736776999996,3525.1891275999997,3525.6731212999994,,,,,,,,,,,,,,3525.7183336999997,,,,,,,,,,3525.7159624000005,3525.7183336999997,3525.7183336999997,3525.7183336999997,3528.6895725999993,indoor,j,1.550283099999433,0.1764368000003742,3528.6897383000005,3528.6898040000005,None,,,,,,,,,,,,,,00062,001,2026-01-19_18h25.43.917,MST_task,2024.2.0,59.92473453334364,2026-01-19 18h25.51.184822 +0530,
,Objects\328a.jpg,20,0,21,,,,,,,j,2.503672300001199,0.183957699999155,None,,,,,,21,0,20,3528.7060269000003,,,,,,,,,,,,,,,,,,,,,,,3528.6900878999995,3528.7060269000003,3529.1899731999993,,,,,,,,,,,,,,3529.2367227999994,,,,,,,,,,3529.2338233,3529.2367227999994,3529.2367227999994,3529.2367227999994,3532.2064753999994,indoor,j,2.503672300001199,0.183957699999155,3532.2066523999993,3532.2067185999995,None,,,,,,,,,,,,,,00062,001,2026-01-19_18h25.43.917,MST_task,2024.2.0,59.92473453334364,2026-01-19 18h25.51.184822 +0530,
,Objects\279a.jpg,21,0,22,,,,,,,j,2.078019399999903,0.16835750000063854,None,,,,,,22,0,21,3532.2234813000005,,,,,,,,,,,,,,,,,,,,,,,3532.2069970000002,3532.2234813000005,3532.7230374,,,,,,,,,,,,,,,,,,,,,,,,3532.7719370000004,3532.7746338000006,3532.7746338000006,3532.7746338000006,3535.7230740999994,shoe,j,2.078019399999903,0.16835750000063854,3535.7291787000004,3535.7292186000004,None,,,,,,,,,,,,,,00062,001,2026-01-19_18h25.43.917,MST_task,2024.2.0,59.92473453334364,2026-01-19 18h25.51.184822 +0530,
,Objects\224a.jpg,22,0,23,,,,,,,f,2.0663129999993544,0.20050280000032217,None,,,,,,23,0,22,3535.7392845999993,,,,,,,,,,,,,,,,,,,,,,,3535.7293798,3535.7392845999993,3536.2238093000005,,,,,,,,,,,,,,3536.2501924,,,,,,,,,,3536.2470571999993,3536.2501924,3536.2501924,3536.2501924,3539.2394570999995,shoe,f,2.0663129999993544,0.20050280000032217,3539.239620900001,3539.2396934,None,,,,,,,,,,,,,,00062,001,2026-01-19_18h25.43.917,MST_task,2024.2.0,59.92473453334364,2026-01-19 18h25.51.184822 +0530,
,Objects\266a.jpg,23,0,24,,,,,,,j,1.5517439999985072,0.1919082000003982,None,,,,,,24,0,23,3539.2561123000005,,,,,,,,,,,,,,,,,,,,,,,3539.2399756000004,3539.2561123000005,3539.7399725999994,,,,,,,,,,,,,,,,,,,,,,,,3539.7940456999995,3539.796663100001,3539.796663100001,3539.796663100001,3542.7564981999994,shoe,j,1.5517439999985072,0.1919082000003982,3542.7566718000007,3542.7567346999995,None,,,,,,,,,,,,,,00062,001,2026-01-19_18h25.43.917,MST_task,2024.2.0,59.92473453334364,2026-01-19 18h25.51.184822 +0530,
,Objects\310a.jpg,24,0,25,,,,,,,j,2.8609562999990885,None,None,,,,,,25,0,24,3542.7731066999995,,,,,,,,,,,,,,,,,,,,,,,3542.757031100001,3542.7731066999995,3543.2565164,,,,,,,,,,,,,,3543.2793188000005,,,,,,,,,,3543.2763258999994,3543.2793188000005,3543.2793188000005,3543.2793188000005,3546.273186199999,shoe,j,2.8609562999990885,None,3546.273357700001,3546.2734250000003,None,,,,,,,,,,,,,,00062,001,2026-01-19_18h25.43.917,MST_task,2024.2.0,59.92473453334364,2026-01-19 18h25.51.184822 +0530,
,Objects\343a.jpg,25,0,26,,,,,,,f,1.6259252999989258,0.16673330000048736,None,,,,,,26,0,25,3546.2893620000004,,,,,,,,,,,,,,,,,,,,,,,3546.2737160999995,3546.2893620000004,3546.7737707000006,,,,,,,,,,,,,,,,,,,,,,,,3546.7929424999993,3546.7959777999995,3546.7959777999995,3546.7959777999995,3549.7897478000004,shoe,f,1.6259252999989258,0.16673330000048736,3549.7899145,3549.7899737,None,,,,,,,,,,,,,,00062,001,2026-01-19_18h25.43.917,MST_task,2024.2.0,59.92473453334364,2026-01-19 18h25.51.184822 +0530,
,Objects\188a.jpg,26,0,27,,,,,,,f,2.4620779999986553,0.16003860000091663,None,,,,,,27,0,26,3549.8060362000006,,,,,,,,,,,,,,,,,,,,,,,3549.7902593999997,3549.8060362000006,3550.2900942999995,,,,,,,,,,,,,,3550.3343378,,,,,,,,,,3550.331806699999,3550.3343378,3550.3343378,3550.3343378,3553.306283000001,shoe,f,2.4620779999986553,0.16003860000091663,3553.306469599999,3553.3065376000004,None,,,,,,,,,,,,,,00062,001,2026-01-19_18h25.43.917,MST_task,2024.2.0,59.92473453334364,2026-01-19 18h25.51.184822 +0530,
,Objects\324a.jpg,27,0,28,,,,,,,j,1.6933434999991732,0.14389590000064345,None,,,,,,28,0,27,3553.3225852000005,,,,,,,,,,,,,,,,,,,,,,,3553.306931100001,3553.3225852000005,3553.8069712000006,,,,,,,,,,,,,,,,,,,,,,,,3553.8525796999993,3553.8551763999994,3553.8551763999994,3553.8551763999994,3556.8229899999997,shoe,j,1.6933434999991732,0.14389590000064345,3556.8231528000006,3556.8232147999997,None,,,,,,,,,,,,,,00062,001,2026-01-19_18h25.43.917,MST_task,2024.2.0,59.92473453334364,2026-01-19 18h25.51.184822 +0530,
,Objects\308a.jpg,28,0,29,,,,,,,j,2.525830299999143,0.167649100001654,None,,,,,,29,0,28,3556.8394347999993,,,,,,,,,,,,,,,,,,,,,,,3556.8236028,3556.8394347999993,3557.3232127,,,,,,,,,,,,,,3557.3749369999996,,,,,,,,,,3557.3724463999997,3557.3749369999996,3557.3749369999996,3557.3749369999996,3560.3398174000004,indoor,j,2.525830299999143,0.167649100001654,3560.345124799999,3560.3452004,None,,,,,,,,,,,,,,00062,001,2026-01-19_18h25.43.917,MST_task,2024.2.0,59.92473453334364,2026-01-19 18h25.51.184822 +0530,
,Objects\278a.jpg,29,0,30,,,,,,,f,1.5086763999988761,0.16901700000016717,None,,,,,,30,0,29,3560.3568545000007,,,,,,,,,,,,,,,,,,,,,,,3560.3454470999995,3560.3568545000007,3560.840645200001,,,,,,,,,,,,,,3560.9037383000004,,,,,,,,,,3560.9012943999996,3560.9037383000004,3560.9037383000004,3560.9037383000004,3563.856451999999,indoor,f,1.5086763999988761,0.16901700000016717,3563.8566184,3563.856684900001,None,,,,,,,,,,,,,,00062,001,2026-01-19_18h25.43.917,MST_task,2024.2.0,59.92473453334364,2026-01-19 18h25.51.184822 +0530,
,Objects\367a.jpg,30,0,31,,,,,,,f,2.128618100001404,0.12798219999967841,None,,,,,,31,0,30,3563.8725733,,,,,,,,,,,,,,,,,,,,,,,3563.8569722,3563.8725733,3564.3565167999996,,,,,,,,,,,,,,3564.3879411999997,,,,,,,,,,3564.3851409999997,3564.3879411999997,3564.3879411999997,3564.3879411999997,3567.3731634000005,indoor,f,2.128618100001404,0.12798219999967841,3567.3733292999996,3567.3733975999994,None,,,,,,,,,,,,,,00062,001,2026-01-19_18h25.43.917,MST_task,2024.2.0,59.92473453334364,2026-01-19 18h25.51.184822 +0530,
,Objects\364a.jpg,31,0,32,,,,,,,j,0.9974541999999929,0.1766695999995136,None,,,,,,32,0,31,3567.389588700001,,,,,,,,,,,,,,,,,,,,,,,3567.3736781,3567.389588700001,3567.872963500001,,,,,,,,,,,,,,3567.8948935,,,,,,,,,,3567.8918334,3567.8948935,3567.8948935,3567.8948935,3570.8895382,indoor,j,0.9974541999999929,0.1766695999995136,3570.8897054,3570.889770500001,None,,,,,,,,,,,,,,00062,001,2026-01-19_18h25.43.917,MST_task,2024.2.0,59.92473453334364,2026-01-19 18h25.51.184822 +0530,
,Objects\345a.jpg,32,0,33,,,,,,,None,,,f,0.3746261999986018,None,,,,33,0,32,3570.9063101,,,,,,,,,,,,,,,,,,,,,,,3570.8900552999994,3570.9063101,3571.3896133999997,,,,,,,,,,,,,,3571.4122271000006,,,,,,,,,,3571.4092666000006,3571.4122271000006,3571.4122271000006,3571.4122271000006,3574.4061988999993,indoor,None,,,3574.4063521,3574.8067342000004,f,3574.4223759000006,3574.4223759000006,0.3746261999986018,None,,,,,,,,,,00062,001,2026-01-19_18h25.43.917,MST_task,2024.2.0,59.92473453334364,2026-01-19 18h25.51.184822 +0530,
,Objects\171a.jpg,33,0,34,,,,,,,f,1.8189742000013212,0.1921636999995826,None,,,,,,34,0,33,3574.8225742000004,,,,,,,,,,,,,,,,,,,,,,,3574.8070756000006,3574.8225742000004,3575.3069865999996,,,,,,,,,,,,,,,,,,,,,,,,3575.3516136999997,3575.3538395000005,3575.3538395000005,3575.3538395000005,3578.3229125000007,indoor,f,1.8189742000013212,0.1921636999995826,3578.3231021,3578.323164799999,None,,,,,,,,,,,,,,00062,001,2026-01-19_18h25.43.917,MST_task,2024.2.0,59.92473453334364,2026-01-19 18h25.51.184822 +0530,
,Objects\241a.jpg,34,0,35,,,,,,,f,1.400340000000142,0.19153240000014193,None,,,,,,35,0,34,3578.3390131999995,,,,,,,,,,,,,,,,,,,,,,,3578.3234521000004,3578.3390131999995,3578.8231736999996,,,,,,,,,,,,,,3578.8446553999993,,,,,,,,,,3578.8419459000006,3578.8446553999993,3578.8446553999993,3578.8446553999993,3581.8397417000006,indoor,f,1.400340000000142,0.19153240000014193,3581.8399273999994,3581.8399918999994,None,,,,,,,,,,,,,,00062,001,2026-01-19_18h25.43.917,MST_task,2024.2.0,59.92473453334364,2026-01-19 18h25.51.184822 +0530,
,Objects\102a.jpg,35,0,36,,,,,,,f,1.436321900000621,0.23177000000032422,None,,,,,,36,0,35,3581.8561132999994,,,,,,,,,,,,,,,,,,,,,,,3581.8402768999995,3581.8561132999994,3582.3397589000006,,,,,,,,,,,,,,3582.3687132000005,,,,,,,,,,3582.3664326000007,3582.3687132000005,3582.3687132000005,3582.3687132000005,3585.3566789000006,shoe,f,1.436321900000621,0.23177000000032422,3585.3626164999996,3585.3626539999996,None,,,,,,,,,,,,,,00062,001,2026-01-19_18h25.43.917,MST_task,2024.2.0,59.92473453334364,2026-01-19 18h25.51.184822 +0530,
,Objects\335a.jpg,36,0,37,,,,,,,j,1.307845900000757,0.1927572999993572,None,,,,,,37,0,36,3585.3725618,,,,,,,,,,,,,,,,,,,,,,,3585.3628001000006,3585.3725618,3585.8566459999993,,,,,,,,,,,,,,3585.8807953000005,,,,,,,,,,3585.877884299999,3585.8807953000005,3585.8807953000005,3585.8807953000005,3588.8727761,shoe,j,1.307845900000757,0.1927572999993572,3588.8729381000003,3588.873004100001,None,,,,,,,,,,,,,,00062,001,2026-01-19_18h25.43.917,MST_task,2024.2.0,59.92473453334364,2026-01-19 18h25.51.184822 +0530,
,Objects\319a.jpg,37,0,38,,,,,,,None,,,f,0.7755048999988503,None,,,,38,0,37,3588.8895592,,,,,,,,,,,,,,,,,,,,,,,3588.8734035000007,3588.8895592,3589.3730282000006,,,,,,,,,,,,,,3589.425602800001,,,,,,,,,,3589.4230502,3589.425602800001,3589.425602800001,3589.425602800001,3592.373913300001,shoe,None,,,3592.3740580000003,3593.1732136,f,3592.389483,3592.389483,0.7755048999988503,None,,,,,,,,,,00062,001,2026-01-19_18h25.43.917,MST_task,2024.2.0,59.92473453334364,2026-01-19 18h25.51.184822 +0530,
,Objects\226a.jpg,38,0,39,,,,,,,j,1.42590299999938,0.16796930000055,None,,,,,,39,0,38,3593.1894483999995,,,,,,,,,,,,,,,,,,,,,,,3593.1737313999993,3593.1894483999995,3593.6734434,,,,,,,,,,,,,,3593.7304687000005,,,,,,,,,,3593.7281073999993,3593.7304687000005,3593.7304687000005,3593.7304687000005,3596.6898482999995,shoe,j,1.42590299999938,0.16796930000055,3596.6900106000003,3596.6900794999992,None,,,,,,,,,,,,,,00062,001,2026-01-19_18h25.43.917,MST_task,2024.2.0,59.92473453334364,2026-01-19 18h25.51.184822 +0530,
,Objects\002a.jpg,39,0,40,,,,,,,f,1.9953495999998268,0.12645639999936975,None,,,,,,40,0,39,3596.7061476999997,,,,,,,,,,,,,,,,,,,,,,,3596.6903685000007,3596.7061476999997,3597.1892266999994,,,,,,,,,,,,,,3597.2105624999995,,,,,,,,,,3597.20806,3597.2105624999995,3597.2105624999995,3597.2105624999995,3600.2065453999994,shoe,f,1.9953495999998268,0.12645639999936975,3600.206715200001,3600.2067818999994,None,,,,,,,,,,,,,,00062,001,2026-01-19_18h25.43.917,MST_task,2024.2.0,59.92473453334364,2026-01-19 18h25.51.184822 +0530,
,Objects\075a.jpg,40,0,41,,,,,,,f,2.100477599999067,0.16761770000084653,None,,,,,,41,0,40,3600.2227202000004,,,,,,,,,,,,,,,,,,,,,,,3600.2071824999994,3600.2227202000004,3600.7065075,,,,,,,,,,,,,,3600.7283885999996,,,,,,,,,,3600.7256638999997,3600.7283885999996,3600.7283885999996,3600.7283885999996,3603.7229634999994,shoe,f,2.100477599999067,0.16761770000084653,3603.7231445000007,3603.723212600001,None,,,,,,,,,,,,,,00062,001,2026-01-19_18h25.43.917,MST_task,2024.2.0,59.92473453334364,2026-01-19 18h25.51.184822 +0530,
,Objects\350a.jpg,41,0,42,,,,,,,j,1.4223137999997562,0.1601909999990312,None,,,,,,42,0,41,3603.7393069,,,,,,,,,,,,,,,,,,,,,,,3603.7236126,3603.7393069,3604.2230976,,,,,,,,,,,,,,3604.2464597000007,,,,,,,,,,3604.2436403,3604.2464597000007,3604.2464597000007,3604.2464597000007,3607.2395738000005,shoe,j,1.4223137999997562,0.1601909999990312,3607.239744199999,3607.2398127999995,None,,,,,,,,,,,,,,00062,001,2026-01-19_18h25.43.917,MST_task,2024.2.0,59.92473453334364,2026-01-19 18h25.51.184822 +0530,
,Objects\159a.jpg,42,0,43,,,,,,,f,2.805173599999762,None,None,,,,,,43,0,42,3607.2557408000002,,,,,,,,,,,,,,,,,,,,,,,3607.2400957,3607.2557408000002,3607.7396237000003,,,,,,,,,,,,,,3607.7764533,,,,,,,,,,3607.7739806,3607.7764533,3607.7764533,3607.7764533,3610.7573626000003,indoor,f,2.805173599999762,None,3610.7624430000005,3610.7625027999993,None,,,,,,,,,,,,,,00062,001,2026-01-19_18h25.43.917,MST_task,2024.2.0,59.92473453334364,2026-01-19 18h25.51.184822 +0530,
,Objects\001a.jpg,43,0,44,,,,,,,None,,,f,0.2347781999997096,None,,,,44,0,43,3610.772435,,,,,,,,,,,,,,,,,,,,,,,3610.7627451,3610.772435,3611.2561978000003,,,,,,,,,,,,,,3611.2795570999997,,,,,,,,,,3611.2764899000003,3611.2795570999997,3611.2795570999997,3611.2795570999997,3614.2729173,indoor,None,,,3614.2730645,3614.5402719000003,f,3614.2898825,3614.2898825,0.2347781999997096,None,,,,,,,,,,00062,001,2026-01-19_18h25.43.917,MST_task,2024.2.0,59.92473453334364,2026-01-19 18h25.51.184822 +0530,
,Objects\292a.jpg,44,0,45,,,,,,,j,2.0759744999995746,0.14395859999967797,None,,,,,,45,0,44,3614.5561143999994,,,,,,,,,,,,,,,,,,,,,,,3614.540609999999,3614.5561143999994,3615.0395658000007,,,,,,,,,,,,,,3615.064361399999,,,,,,,,,,3615.0618194999997,3615.064361399999,3615.064361399999,3615.064361399999,3618.0570005,indoor,j,2.0759744999995746,0.14395859999967797,3618.057172,3618.0572433999996,None,,,,,,,,,,,,,,00062,001,2026-01-19_18h25.43.917,MST_task,2024.2.0,59.92473453334364,2026-01-19 18h25.51.184822 +0530,
,Objects\200a.jpg,45,0,46,,,,,,,f,2.4745560999999725,0.16847039999993285,None,,,,,,46,0,45,3618.0728725,,,,,,,,,,,,,,,,,,,,,,,3618.0575249999993,3618.0728725,3618.5565311,,,,,,,,,,,,,,3618.593901699999,,,,,,,,,,3618.5914705000005,3618.593901699999,3618.593901699999,3618.593901699999,3621.5736255,indoor,f,2.4745560999999725,0.16847039999993285,3621.5737911000006,3621.573856,None,,,,,,,,,,,,,,00062,001,2026-01-19_18h25.43.917,MST_task,2024.2.0,59.92473453334364,2026-01-19 18h25.51.184822 +0530,
,Objects\240a.jpg,46,0,47,,,,,,,f,1.5607990999997128,0.14463070000056177,None,,,,,,47,0,46,3621.5894459,,,,,,,,,,,,,,,,,,,,,,,3621.5741387999997,3621.5894459,3622.0731205,,,,,,,,,,,,,,3622.1235253000004,,,,,,,,,,3622.1206885,3622.1235253000004,3622.1235253000004,3622.1235253000004,3625.0740481000003,indoor,f,1.5607990999997128,0.14463070000056177,3625.0742347000005,3625.0742992999994,None,,,,,,,,,,,,,,00062,001,2026-01-19_18h25.43.917,MST_task,2024.2.0,59.92473453334364,2026-01-19 18h25.51.184822 +0530,
,Objects\071a.jpg,47,0,48,,,,,,,j,1.2201378000008845,0.16832520000025397,None,,,,,,48,0,47,3625.0891808000006,,,,,,,,,,,,,,,,,,,,,,,3625.0745911999993,3625.0891808000006,3625.5728719999997,,,,,,,,,,,,,,3625.6168491,,,,,,,,,,3625.6134859000003,3625.6168491,3625.6168491,3625.6168491,3628.5894338000007,indoor,j,1.2201378000008845,0.16832520000025397,3628.5895979000006,3628.589664100001,None,,,,,,,,,,,,,,00062,001,2026-01-19_18h25.43.917,MST_task,2024.2.0,59.92473453334364,2026-01-19 18h25.51.184822 +0530,
,Objects\281a.jpg,48,0,49,,,,,,,f,2.231910300000891,0.18413539999892237,None,,,,,,49,0,48,3628.6061182999993,,,,,,,,,,,,,,,,,,,,,,,3628.5899426999995,3628.6061182999993,3629.0894201,,,,,,,,,,,,,,3629.1167453999997,,,,,,,,,,3629.1140017000007,3629.1167453999997,3629.1167453999997,3629.1167453999997,3632.1067809999995,indoor,f,2.231910300000891,0.18413539999892237,3632.1069462000005,3632.1070085,None,,,,,,,,,,,,,,00062,001,2026-01-19_18h25.43.917,MST_task,2024.2.0,59.92473453334364,2026-01-19 18h25.51.184822 +0530,
,Objects\235a.jpg,49,0,50,,,,,,,f,1.5264870000009978,0.20039050000013958,None,,,,,,50,0,49,3632.1224097000004,,,,,,,,,,,,,,,,,,,,,,,3632.1072878999994,3632.1224097000004,3632.6063423999994,,,,,,,,,,,,,,3632.645850600001,,,,,,,,,,3632.6431426999998,3632.645850600001,3632.645850600001,3632.645850600001,3635.6229149,shoe,f,1.5264870000009978,0.20039050000013958,3635.628468,3635.628488900001,None,,,,,,,,,,,,,,00062,001,2026-01-19_18h25.43.917,MST_task,2024.2.0,59.92473453334364,2026-01-19 18h25.51.184822 +0530,
,Objects\136a.jpg,50,0,51,,,,,,,f,2.0444728000002215,0.19175170000016806,None,,,,,,51,0,50,3635.6397816,,,,,,,,,,,,,,,,,,,,,,,3635.628569199999,3635.6397816,3636.1235404999998,,,,,,,,,,,,,,3636.1684880000003,,,,,,,,,,3636.1648173000003,3636.1684880000003,3636.1684880000003,3636.1684880000003,3639.1396158,shoe,f,2.0444728000002215,0.19175170000016806,3639.1397867000005,3639.139852699999,None,,,,,,,,,,,,,,00062,001,2026-01-19_18h25.43.917,MST_task,2024.2.0,59.92473453334364,2026-01-19 18h25.51.184822 +0530,
,Objects\263a.jpg,51,0,52,,,,,,,j,1.1852744999996503,0.19936200000120152,None,,,,,,52,0,51,3639.1557827000006,,,,,,,,,,,,,,,,,,,,,,,3639.1402437999996,3639.1557827000006,3639.6397754,,,,,,,,,,,,,,3639.6841400000003,,,,,,,,,,3639.6815930000002,3639.6841400000003,3639.6841400000003,3639.6841400000003,3642.6565390999995,shoe,j,1.1852744999996503,0.19936200000120152,3642.6567023,3642.6567700000005,None,,,,,,,,,,,,,,00062,001,2026-01-19_18h25.43.917,MST_task,2024.2.0,59.92473453334364,2026-01-19 18h25.51.184822 +0530,
,Objects\190a.jpg,52,0,53,,,,,,,f,2.0340943000010157,0.1920639999989362,None,,,,,,53,0,52,3642.6728329000007,,,,,,,,,,,,,,,,,,,,,,,3642.6571569,3642.6728329000007,3643.1564989000008,,,,,,,,,,,,,,3643.1788165999997,,,,,,,,,,3643.1756708000003,3643.1788165999997,3643.1788165999997,3643.1788165999997,3646.173216099999,shoe,f,2.0340943000010157,0.1920639999989362,3646.1733789,3646.173460000001,None,,,,,,,,,,,,,,00062,001,2026-01-19_18h25.43.917,MST_task,2024.2.0,59.92473453334364,2026-01-19 18h25.51.184822 +0530,
,Objects\234a.jpg,53,0,54,,,,,,,j,1.1575469999988854,0.20002949999980046,None,,,,,,54,0,53,3646.1894595000003,,,,,,,,,,,,,,,,,,,,,,,3646.1737454999993,3646.1894595000003,3646.6728716999996,,,,,,,,,,,,,,3646.6951080999997,,,,,,,,,,3646.6927552000006,3646.6951080999997,3646.6951080999997,3646.6951080999997,3649.6737115000005,shoe,j,1.1575469999988854,0.20002949999980046,3649.6738780000005,3649.6739444999994,None,,,,,,,,,,,,,,00062,001,2026-01-19_18h25.43.917,MST_task,2024.2.0,59.92473453334364,2026-01-19 18h25.51.184822 +0530,
,Objects\270a.jpg,54,0,55,,,,,,,j,2.3462160999988555,0.14442150000104448,None,,,,,,55,0,54,3649.6893778000003,,,,,,,,,,,,,,,,,,,,,,,3649.6742255,3649.6893778000003,3650.1732187999996,,,,,,,,,,,,,,3650.2103144000002,,,,,,,,,,3650.2078737,3650.2103144000002,3650.2103144000002,3650.2103144000002,3653.1898100999997,shoe,j,2.3462160999988555,0.14442150000104448,3653.1899762000003,3653.190040300001,None,,,,,,,,,,,,,,00062,001,2026-01-19_18h25.43.917,MST_task,2024.2.0,59.92473453334364,2026-01-19 18h25.51.184822 +0530,
,Objects\217a.jpg,55,0,56,,,,,,,f,1.8434151999990718,0.17607450000105018,None,,,,,,56,0,55,3653.2064082999996,,,,,,,,,,,,,,,,,,,,,,,3653.1903202999993,3653.2064082999996,3653.6898281000003,,,,,,,,,,,,,,3653.7129718999995,,,,,,,,,,3653.7105461,3653.7129718999995,3653.7129718999995,3653.7129718999995,3656.7065109999994,shoe,f,1.8434151999990718,0.17607450000105018,3656.7066793000004,3656.7067438000004,None,,,,,,,,,,,,,,00062,001,2026-01-19_18h25.43.917,MST_task,2024.2.0,59.92473453334364,2026-01-19 18h25.51.184822 +0530,
,Objects\231a.jpg,56,0,57,,,,,,,j,2.0400601999990613,0.15196070000092732,None,,,,,,57,0,56,3656.7225162000004,,,,,,,,,,,,,,,,,,,,,,,3656.7070245999994,3656.7225162000004,3657.2063305,,,,,,,,,,,,,,3657.2368904999994,,,,,,,,,,3657.2340412999993,3657.2368904999994,3657.2368904999994,3657.2368904999994,3660.223110600001,indoor,j,2.0400601999990613,0.15196070000092732,3660.22886,3660.2289219000004,None,,,,,,,,,,,,,,00062,001,2026-01-19_18h25.43.917,MST_task,2024.2.0,59.92473453334364,2026-01-19 18h25.51.184822 +0530,
,Objects\244a.jpg,57,0,58,,,,,,,f,2.3310409000005166,0.2086734999993496,None,,,,,,58,0,57,3660.2394286999997,,,,,,,,,,,,,,,,,,,,,,,3660.2291562,3660.2394286999997,3660.7231796999995,,,,,,,,,,,,,,3660.7451849,,,,,,,,,,3660.7428967000005,3660.7451849,3660.7451849,3660.7451849,3663.7395160000005,indoor,f,2.3310409000005166,0.2086734999993496,3663.7396793,3663.7397589,None,,,,,,,,,,,,,,00062,001,2026-01-19_18h25.43.917,MST_task,2024.2.0,59.92473453334364,2026-01-19 18h25.51.184822 +0530,
,Objects\014a.jpg,58,0,59,,,,,,,None,,,f,0.05158500000106869,None,,,,59,0,58,3663.7559040999995,,,,,,,,,,,,,,,,,,,,,,,3663.7400456999994,3663.7559040999995,3664.2400243,,,,,,,,,,,,,,,,,,,,,,,,3664.2877739000005,3664.2901776999997,3664.2901776999997,3664.2901776999997,3667.2562927999998,indoor,None,,,3667.2564333,3667.3396342999995,f,3667.273105699999,3667.273105699999,0.05158500000106869,None,,,,,,,,,,00062,001,2026-01-19_18h25.43.917,MST_task,2024.2.0,59.92473453334364,2026-01-19 18h25.51.184822 +0530,
,Objects\163a.jpg,59,0,60,,,,,,,j,1.5431014999994659,0.12748350000038045,None,,,,,,60,0,59,3667.3558884999993,,,,,,,,,,,,,,,,,,,,,,,3667.3399739000006,3667.3558884999993,3667.8395188999993,,,,,,,,,,,,,,3667.8618354,,,,,,,,,,3667.8588599000004,3667.8618354,3667.8618354,3667.8618354,3670.8405864999995,indoor,j,1.5431014999994659,0.12748350000038045,3670.8407567999993,3670.8408234000008,None,,,,,,,,,,,,,,00062,001,2026-01-19_18h25.43.917,MST_task,2024.2.0,59.92473453334364,2026-01-19 18h25.51.184822 +0530,
,Objects\354a.jpg,60,0,61,,,,,,,None,,,f,0.6554780000005849,None,,,,61,0,60,3670.8560484,,,,,,,,,,,,,,,,,,,,,,,3670.8411074999995,3670.8560484,3671.3396894000007,,,,,,,,,,,,,,3671.4026372,,,,,,,,,,3671.3991078999998,3671.4026372,3671.4026372,3671.4026372,3674.356335199999,indoor,None,,,3674.3565014999995,3675.0400268999992,f,3674.3729453999995,3674.3729453999995,0.6554780000005849,None,,,,,,,,,,00062,001,2026-01-19_18h25.43.917,MST_task,2024.2.0,59.92473453334364,2026-01-19 18h25.51.184822 +0530,
,Objects\330a.jpg,61,0,62,,,,,,,j,1.5528881000009278,0.1600338999996893,None,,,,,,62,0,61,3675.0559490999995,,,,,,,,,,,,,,,,,,,,,,,3675.0403595,3675.0559490999995,3675.5404611999993,,,,,,,,,,,,,,,,,,,,,,,,3675.5935008000006,3675.595975200001,3675.595975200001,3675.595975200001,3678.5568156,indoor,j,1.5528881000009278,0.1600338999996893,3678.556985,3678.5570462999995,None,,,,,,,,,,,,,,00062,001,2026-01-19_18h25.43.917,MST_task,2024.2.0,59.92473453334364,2026-01-19 18h25.51.184822 +0530,
,Objects\203a.jpg,62,0,63,,,,,,,f,2.4862348999995447,0.1923006000015448,None,,,,,,63,0,62,3678.5727498000006,,,,,,,,,,,,,,,,,,,,,,,3678.5573335,3678.5727498000006,3679.0565199000002,,,,,,,,,,,,,,3679.1024456999994,,,,,,,,,,3679.0983594,3679.1024456999994,3679.1024456999994,3679.1024456999994,3682.0728393,indoor,f,2.4862348999995447,0.1923006000015448,3682.0729992999995,3682.073062300001,None,,,,,,,,,,,,,,00062,001,2026-01-19_18h25.43.917,MST_task,2024.2.0,59.92473453334364,2026-01-19 18h25.51.184822 +0530,
,Objects\094a.jpg,63,0,64,,,,,,,None,,,f,0.4147766000005504,None,,,,64,0,63,3682.0893724000007,,,,,,,,,,,,,,,,,,,,,,,3682.0733444999996,3682.0893724000007,3682.5732039000004,,,,,,,,,,,,,,3682.5990637000004,,,,,,,,,,3682.5965750000005,3682.5990637000004,3682.5990637000004,3682.5990637000004,3685.5732560999995,shoe,None,,,3685.5792985,3686.0063137999996,f,3685.5893960999992,3685.5893960999992,0.4147766000005504,None,,,,,,,,,,00062,001,2026-01-19_18h25.43.917,MST_task,2024.2.0,59.92473453334364,2026-01-19 18h25.51.184822 +0530,
,Objects\205a.jpg,64,0,65,,,,,,,j,1.7576099999987491,0.16805569999996806,None,,,,,,65,0,64,3686.0227415,,,,,,,,,,,,,,,,,,,,,,,3686.0067814999993,3686.0227415,3686.5063485,,,,,,,,,,,,,,3686.5588156000003,,,,,,,,,,3686.5560283000004,3686.5588156000003,3686.5588156000003,3686.5588156000003,3689.522924600001,shoe,j,1.7576099999987491,0.16805569999996806,3689.5230837999998,3689.5231503000005,None,,,,,,,,,,,,,,00062,001,2026-01-19_18h25.43.917,MST_task,2024.2.0,59.92473453334364,2026-01-19 18h25.51.184822 +0530,
,Objects\258a.jpg,65,0,66,,,,,,,j,2.569884800001091,0.13536279999971157,None,,,,,,66,0,65,3689.5391087,,,,,,,,,,,,,,,,,,,,,,,3689.5234364,3689.5391087,3690.0232353,,,,,,,,,,,,,,3690.043881299999,,,,,,,,,,3690.041397,3690.043881299999,3690.043881299999,3690.043881299999,3693.0396014999997,shoe,j,2.569884800001091,0.13536279999971157,3693.0397612000006,3693.039824300001,None,,,,,,,,,,,,,,00062,001,2026-01-19_18h25.43.917,MST_task,2024.2.0,59.92473453334364,2026-01-19 18h25.51.184822 +0530,
,Objects\164a.jpg,66,0,67,,,,,,,f,1.0544482999994216,0.1515202999999019,None,,,,,,67,0,66,3693.0558733999997,,,,,,,,,,,,,,,,,,,,,,,3693.0401032,3693.0558733999997,3693.5402267,,,,,,,,,,,,,,,,,,,,,,,,3693.5880969,3693.5904861999998,3693.5904861999998,3693.5904861999998,3696.556308,shoe,f,1.0544482999994216,0.1515202999999019,3696.5564710999997,3696.5565321999993,None,,,,,,,,,,,,,,00062,001,2026-01-19_18h25.43.917,MST_task,2024.2.0,59.92473453334364,2026-01-19 18h25.51.184822 +0530,
,Objects\208a.jpg,67,0,68,,,,,,,None,,,j,0.27545310000095924,None,,,,68,0,67,3696.5725474,,,,,,,,,,,,,,,,,,,,,,,3696.556923700001,3696.5725474,3697.0565555999992,,,,,,,,,,,,,,3697.0818111,,,,,,,,,,3697.0793826,3697.0818111,3697.0818111,3697.0818111,3700.0735268,shoe,None,,,3700.073680300001,3700.3732763,j,3700.0894247000006,3700.0894247000006,0.27545310000095924,None,,,,,,,,,,00062,001,2026-01-19_18h25.43.917,MST_task,2024.2.0,59.92473453334364,2026-01-19 18h25.51.184822 +0530,
,Objects\079a.jpg,68,0,69,,,,,,,j,1.9565822000004118,0.2006928999999218,None,,,,,,69,0,68,3700.3892707999994,,,,,,,,,,,,,,,,,,,,,,,3700.3736065000003,3700.3892707999994,3700.8731701999995,,,,,,,,,,,,,,3700.8961580000005,,,,,,,,,,3700.8934273999994,3700.8961580000005,3700.8961580000005,3700.8961580000005,3703.8735563,shoe,j,1.9565822000004118,0.2006928999999218,3703.873731999999,3703.8737954,None,,,,,,,,,,,,,,00062,001,2026-01-19_18h25.43.917,MST_task,2024.2.0,59.92473453334364,2026-01-19 18h25.51.184822 +0530,
,Objects\332a.jpg,69,0,70,,,,,,,j,1.603856600000654,0.2642376999992848,None,,,,,,70,0,69,3703.8895279,,,,,,,,,,,,,,,,,,,,,,,3703.8741937000004,3703.8895279,3704.372928,,,,,,,,,,,,,,3704.400402099999,,,,,,,,,,3704.3976467,3704.400402099999,3704.400402099999,3704.400402099999,3707.3900313999993,shoe,j,1.603856600000654,0.2642376999992848,3707.390212699999,3707.390275500001,None,,,,,,,,,,,,,,00062,001,2026-01-19_18h25.43.917,MST_task,2024.2.0,59.92473453334364,2026-01-19 18h25.51.184822 +0530,
,Objects\196a.jpg,70,0,71,,,,,,,j,2.9127520999991248,None,None,,,,,,71,0,70,3707.406125300001,,,,,,,,,,,,,,,,,,,,,,,3707.3905552000006,3707.406125300001,3707.889627400001,,,,,,,,,,,,,,3707.9401191000006,,,,,,,,,,3707.9376531000007,3707.9401191000006,3707.9401191000006,3707.9401191000006,3710.9064045999994,indoor,j,2.9127520999991248,None,3710.9127191,3710.9127980999992,None,,,,,,,,,,,,,,00062,001,2026-01-19_18h25.43.917,MST_task,2024.2.0,59.92473453334364,2026-01-19 18h25.51.184822 +0530,
,Objects\194a.jpg,71,0,72,,,,,,,f,1.0605104000005667,0.16791289999855508,None,,,,,,72,0,71,3710.9226914,,,,,,,,,,,,,,,,,,,,,,,3710.9130892999992,3710.9226914,3711.4065913000004,,,,,,,,,,,,,,3711.4478979000005,,,,,,,,,,3711.445566900001,3711.4478979000005,3711.4478979000005,3711.4478979000005,3714.4238680000008,indoor,f,1.0605104000005667,0.16791289999855508,3714.4240285999995,3714.4240918000005,None,,,,,,,,,,,,,,00062,001,2026-01-19_18h25.43.917,MST_task,2024.2.0,59.92473453334364,2026-01-19 18h25.51.184822 +0530,
,Objects\176a.jpg,72,0,73,,,,,,,j,0.9294198999996297,0.12051439999959257,None,,,,,,73,0,72,3714.4392447,,,,,,,,,,,,,,,,,,,,,,,3714.4243682000006,3714.4392447,3714.9230165,,,,,,,,,,,,,,3714.9469015999994,,,,,,,,,,3714.944433400001,3714.9469015999994,3714.9469015999994,3714.9469015999994,3717.9401487000005,indoor,j,0.9294198999996297,0.12051439999959257,3717.9403140000004,3717.9403783000007,None,,,,,,,,,,,,,,00062,001,2026-01-19_18h25.43.917,MST_task,2024.2.0,59.92473453334364,2026-01-19 18h25.51.184822 +0530,
,Objects\191a.jpg,73,0,74,,,,,,,j,1.7586080000000948,0.1678685000006226,None,,,,,,74,0,73,3717.9561153000004,,,,,,,,,,,,,,,,,,,,,,,3717.9406584,3717.9561153000004,3718.4394456,,,,,,,,,,,,,,3718.478394500001,,,,,,,,,,3718.475393399999,3718.478394500001,3718.478394500001,3718.478394500001,3721.4561413,indoor,j,1.7586080000000948,0.1678685000006226,3721.4563085,3721.456372899999,None,,,,,,,,,,,,,,00062,001,2026-01-19_18h25.43.917,MST_task,2024.2.0,59.92473453334364,2026-01-19 18h25.51.184822 +0530,
,Objects\379a.jpg,74,0,75,,,,,,,None,,,f,1.2157184999996389,None,,,,75,0,74,3721.4725709999993,,,,,,,,,,,,,,,,,,,,,,,3721.4566499000002,3721.4725709999993,3721.956521700001,,,,,,,,,,,,,,3722.0102773999997,,,,,,,,,,3722.0080976,3722.0102773999997,3722.0102773999997,3722.0102773999997,3724.9737053,indoor,None,,,3724.9738485999997,3726.2063465,f,3724.9893268999995,3724.9893268999995,1.2157184999996389,None,,,,,,,,,,00062,001,2026-01-19_18h25.43.917,MST_task,2024.2.0,59.92473453334364,2026-01-19 18h25.51.184822 +0530,
,Objects\069a.jpg,75,0,76,,,,,,,j,1.642538500000228,0.1914864000009402,None,,,,,,76,0,75,3726.2228447000007,,,,,,,,,,,,,,,,,,,,,,,3726.206699199999,3726.2228447000007,3726.7066786000005,,,,,,,,,,,,,,,,,,,,,,,,3726.7605298999997,3726.7628311,3726.7628311,3726.7628311,3729.7072271999996,indoor,j,1.642538500000228,0.1914864000009402,3729.7073935,3729.7074526999995,None,,,,,,,,,,,,,,00062,001,2026-01-19_18h25.43.917,MST_task,2024.2.0,59.92473453334364,2026-01-19 18h25.51.184822 +0530,
,Objects\068a.jpg,76,0,77,,,,,,,j,2.369737199998781,0.18442049999976007,None,,,,,,77,0,76,3729.7227742999994,,,,,,,,,,,,,,,,,,,,,,,3729.707738100001,3729.7227742999994,3730.2068203999997,,,,,,,,,,,,,,3730.2426860999994,,,,,,,,,,3730.2399479999995,3730.2426860999994,3730.2426860999994,3730.2426860999994,3733.2226450000007,indoor,j,2.369737199998781,0.18442049999976007,3733.2226992000005,3733.2227183000005,None,,,,,,,,,,,,,,00062,001,2026-01-19_18h25.43.917,MST_task,2024.2.0,59.92473453334364,2026-01-19 18h25.51.184822 +0530,
,Objects\116a.jpg,77,0,78,,,,,,,f,1.3374606999987009,0.19155830000090646,None,,,,,,78,0,77,3733.2393805,,,,,,,,,,,,,,,,,,,,,,,3733.2228024999995,3733.2393805,3733.7229720999994,,,,,,,,,,,,,,3733.7472062000006,,,,,,,,,,3733.744990099999,3733.7472062000006,3733.7472062000006,3733.7472062000006,3736.7238167999994,shoe,f,1.3374606999987009,0.19155830000090646,3736.7302434000003,3736.7302819999995,None,,,,,,,,,,,,,,00062,001,2026-01-19_18h25.43.917,MST_task,2024.2.0,59.92473453334364,2026-01-19 18h25.51.184822 +0530,
,Objects\144a.jpg,78,0,79,,,,,,,j,2.8098899999986315,None,None,,,,,,79,0,78,3736.739559299999,,,,,,,,,,,,,,,,,,,,,,,3736.7304864000007,3736.739559299999,3737.2231547,,,,,,,,,,,,,,3737.2663612000006,,,,,,,,,,3737.2639272000006,3737.2663612000006,3737.2663612000006,3737.2663612000006,3740.2397520000004,shoe,j,2.8098899999986315,None,3740.2399125,3740.2399754999997,None,,,,,,,,,,,,,,00062,001,2026-01-19_18h25.43.917,MST_task,2024.2.0,59.92473453334364,2026-01-19 18h25.51.184822 +0530,
,Objects\174a.jpg,79,0,80,,,,,,,f,2.441784099999495,0.16789199999948323,None,,,,,,80,0,79,3740.2557939999997,,,,,,,,,,,,,,,,,,,,,,,3740.2403712000005,3740.2557939999997,3740.739934800001,,,,,,,,,,,,,,3740.7785362999994,,,,,,,,,,3740.7755119000003,3740.7785362999994,3740.7785362999994,3740.7785362999994,3743.7564961,shoe,f,2.441784099999495,0.16789199999948323,3743.7566620999996,3743.7567260000005,None,,,,,,,,,,,,,,00062,001,2026-01-19_18h25.43.917,MST_task,2024.2.0,59.92473453334364,2026-01-19 18h25.51.184822 +0530,
,Objects\037a.jpg,80,0,81,,,,,,,f,1.9450715999992099,0.191512800000055,None,,,,,,81,0,80,3743.7727153999995,,,,,,,,,,,,,,,,,,,,,,,3743.757108999999,3743.7727153999995,3744.2562387000007,,,,,,,,,,,,,,3744.2836959999995,,,,,,,,,,3744.2812002,3744.2836959999995,3744.2836959999995,3744.2836959999995,3747.2727688999994,shoe,f,1.9450715999992099,0.191512800000055,3747.272931300001,3747.2729972000006,None,,,,,,,,,,,,,,00062,001,2026-01-19_18h25.43.917,MST_task,2024.2.0,59.92473453334364,2026-01-19 18h25.51.184822 +0530,
,Objects\034a.jpg,81,0,82,,,,,,,f,1.5075070999992022,0.24029700000028242,None,,,,,,82,0,81,3747.289703900001,,,,,,,,,,,,,,,,,,,,,,,3747.2733916999996,3747.289703900001,3747.7731214000005,,,,,,,,,,,,,,3747.8166446000005,,,,,,,,,,3747.8143262000003,3747.8166446000005,3747.8166446000005,3747.8166446000005,3750.7736689999992,shoe,f,1.5075070999992022,0.24029700000028242,3750.7738469000005,3750.7739107999996,None,,,,,,,,,,,,,,00062,001,2026-01-19_18h25.43.917,MST_task,2024.2.0,59.92473453334364,2026-01-19 18h25.51.184822 +0530,
,Objects\028a.jpg,82,0,83,,,,,,,j,0.802948299999116,0.19164380000074743,None,,,,,,83,0,82,3750.7895811000008,,,,,,,,,,,,,,,,,,,,,,,3750.7742977999997,3750.7895811000008,3751.2733161999995,,,,,,,,,,,,,,3751.3221394,,,,,,,,,,3751.3198435000004,3751.3221394,3751.3221394,3751.3221394,3754.2897459000005,shoe,j,0.802948299999116,0.19164380000074743,3754.2899038999994,3754.289967399999,None,,,,,,,,,,,,,,00062,001,2026-01-19_18h25.43.917,MST_task,2024.2.0,59.92473453334364,2026-01-19 18h25.51.184822 +0530,
,Objects\070a.jpg,83,0,84,,,,,,,f,1.5328814000004058,0.17656289999831642,None,,,,,,84,0,83,3754.3061403,,,,,,,,,,,,,,,,,,,,,,,3754.2903515999997,3754.3061403,3754.7897932000005,,,,,,,,,,,,,,3754.8393958999995,,,,,,,,,,3754.837069,3754.8393958999995,3754.8393958999995,3754.8393958999995,3757.8064487,shoe,f,1.5328814000004058,0.17656289999831642,3757.8066229000005,3757.8066879000007,None,,,,,,,,,,,,,,00062,001,2026-01-19_18h25.43.917,MST_task,2024.2.0,59.92473453334364,2026-01-19 18h25.51.184822 +0530,
,Objects\223a.jpg,84,0,85,,,,,,,j,1.6187780999989627,0.15259680000053777,None,,,,,,85,0,84,3757.8228037,,,,,,,,,,,,,,,,,,,,,,,3757.8069678,3757.8228037,3758.3064609000003,,,,,,,,,,,,,,3758.3620803999993,,,,,,,,,,3758.3597701999997,3758.3620803999993,3758.3620803999993,3758.3620803999993,3761.3070801000003,indoor,j,1.6187780999989627,0.15259680000053777,3761.3123705000007,3761.3124135000007,None,,,,,,,,,,,,,,00062,001,2026-01-19_18h25.43.917,MST_task,2024.2.0,59.92473453334364,2026-01-19 18h25.51.184822 +0530,
,Objects\006a.jpg,85,0,86,,,,,,,f,2.342139700000189,0.16779700000006414,None,,,,,,86,0,85,3761.322843000001,,,,,,,,,,,,,,,,,,,,,,,3761.3125895999992,3761.322843000001,3761.8070108,,,,,,,,,,,,,,3761.8463070999996,,,,,,,,,,3761.8439826000003,3761.8463070999996,3761.8463070999996,3761.8463070999996,3764.8229361999993,indoor,f,2.342139700000189,0.16779700000006414,3764.8230974000007,3764.8231607999996,None,,,,,,,,,,,,,,00062,001,2026-01-19_18h25.43.917,MST_task,2024.2.0,59.92473453334364,2026-01-19 18h25.51.184822 +0530,
,Objects\100a.jpg,86,0,87,,,,,,,f,0.8717581000000791,0.1926604000000225,None,,,,,,87,0,86,3764.8391657,,,,,,,,,,,,,,,,,,,,,,,3764.8234549,3764.8391657,3765.323375000001,,,,,,,,,,,,,,,,,,,,,,,,3765.369331000001,3765.3724200999995,3765.3724200999995,3765.3724200999995,3768.3402152999997,indoor,f,0.8717581000000791,0.1926604000000225,3768.3403812999995,3768.3404402999995,None,,,,,,,,,,,,,,00062,001,2026-01-19_18h25.43.917,MST_task,2024.2.0,59.92473453334364,2026-01-19 18h25.51.184822 +0530,
,Objects\049a.jpg,87,0,88,,,,,,,j,2.2144740000003367,0.18394339999940712,None,,,,,,88,0,87,3768.356312499999,,,,,,,,,,,,,,,,,,,,,,,3768.3407252000006,3768.356312499999,3768.839636399999,,,,,,,,,,,,,,3768.8617771,,,,,,,,,,3768.8587519000002,3768.8617771,3768.8617771,3768.8617771,3771.8565387999997,indoor,j,2.2144740000003367,0.18394339999940712,3771.8567027,3771.8567666999998,None,,,,,,,,,,,,,,00062,001,2026-01-19_18h25.43.917,MST_task,2024.2.0,59.92473453334364,2026-01-19 18h25.51.184822 +0530,
,Objects\301a.jpg,88,0,89,,,,,,,f,1.377187900001445,0.19252059999962512,None,,,,,,89,0,88,3771.8724328,,,,,,,,,,,,,,,,,,,,,,,3771.8570437000008,3771.8724328,3772.3565601,,,,,,,,,,,,,,3772.3790548999996,,,,,,,,,,3772.3769181,3772.3790548999996,3772.3790548999996,3772.3790548999996,3775.372969700001,indoor,f,1.377187900001445,0.19252059999962512,3775.3731529000006,3775.3732193000005,None,,,,,,,,,,,,,,00062,001,2026-01-19_18h25.43.917,MST_task,2024.2.0,59.92473453334364,2026-01-19 18h25.51.184822 +0530,
,Objects\212a.jpg,89,0,90,,,,,,,j,1.2575190000006842,0.11995479999859526,None,,,,,,90,0,89,3775.3893940000007,,,,,,,,,,,,,,,,,,,,,,,3775.373514,3775.3893940000007,3775.8739713000004,,,,,,,,,,,,,,,,,,,,,,,,3775.8889646,3775.891324200001,3775.891324200001,3775.891324200001,3778.8897779999998,indoor,j,1.2575190000006842,0.11995479999859526,3778.8899035999993,3778.889948700001,None,,,,,,,,,,,,,,00062,001,2026-01-19_18h25.43.917,MST_task,2024.2.0,59.92473453334364,2026-01-19 18h25.51.184822 +0530,
,Objects\096a.jpg,90,0,91,,,,,,,f,1.3116917999996076,0.19195530000069994,None,,,,,,91,0,90,3778.9060099000008,,,,,,,,,,,,,,,,,,,,,,,3778.8901653000003,3778.9060099000008,3779.3899408000007,,,,,,,,,,,,,,3779.4124817,,,,,,,,,,3779.4096710000003,3779.4124817,3779.4124817,3779.4124817,3782.4065130999998,indoor,f,1.3116917999996076,0.19195530000069994,3782.4066746,3782.4067396,None,,,,,,,,,,,,,,00062,001,2026-01-19_18h25.43.917,MST_task,2024.2.0,59.92473453334364,2026-01-19 18h25.51.184822 +0530,
,Objects\339a.jpg,91,0,92,,,,,,,j,1.7434013999991294,0.13597959999970044,None,,,,,,92,0,91,3782.4230720999994,,,,,,,,,,,,,,,,,,,,,,,3782.4070194000005,3782.4230720999994,3782.9068940000006,,,,,,,,,,,,,,3782.9327888,,,,,,,,,,3782.9303690999996,3782.9327888,3782.9327888,3782.9327888,3785.9072681999996,shoe,j,1.7434013999991294,0.13597959999970044,3785.9133893999997,3785.9134298,None,,,,,,,,,,,,,,00062,001,2026-01-19_18h25.43.917,MST_task,2024.2.0,59.92473453334364,2026-01-19 18h25.51.184822 +0530,
,Objects\377a.jpg,92,0,93,,,,,,,j,2.222744300001068,0.15200109999932465,None,,,,,,93,0,92,3785.9231591,,,,,,,,,,,,,,,,,,,,,,,3785.913596199999,3785.9231591,3786.4065272,,,,,,,,,,,,,,3786.4935949,,,,,,,,,,3786.4910532999993,3786.4935949,3786.4935949,3786.4935949,3789.4231833000003,shoe,j,2.222744300001068,0.15200109999932465,3789.423341500001,3789.4234033000002,None,,,,,,,,,,,,,,00062,001,2026-01-19_18h25.43.917,MST_task,2024.2.0,59.92473453334364,2026-01-19 18h25.51.184822 +0530,
,Objects\381a.jpg,93,0,94,,,,,,,f,2.7952941999992618,None,None,,,,,,94,0,93,3789.4390811000003,,,,,,,,,,,,,,,,,,,,,,,3789.4237875999997,3789.4390811000003,3789.9232199999997,,,,,,,,,,,,,,3789.9609711000003,,,,,,,,,,3789.9583993999995,3789.9609711000003,3789.9609711000003,3789.9609711000003,3792.9399784000007,shoe,f,2.7952941999992618,None,3792.9401546,3792.9402182999993,None,,,,,,,,,,,,,,00062,001,2026-01-19_18h25.43.917,MST_task,2024.2.0,59.92473453334364,2026-01-19 18h25.51.184822 +0530,
,Objects\088a.jpg,94,0,95,,,,,,,f,1.686395700000503,0.1759691000006569,None,,,,,,95,0,94,3792.9561671,,,,,,,,,,,,,,,,,,,,,,,3792.940597,3792.9561671,3793.4396647999993,,,,,,,,,,,,,,3793.461744699999,,,,,,,,,,3793.4590534999998,3793.461744699999,3793.461744699999,3793.461744699999,3796.4566903999994,shoe,f,1.686395700000503,0.1759691000006569,3796.456848500001,3796.4569106999998,None,,,,,,,,,,,,,,00062,001,2026-01-19_18h25.43.917,MST_task,2024.2.0,59.92473453334364,2026-01-19 18h25.51.184822 +0530,
,Objects\134a.jpg,95,0,96,,,,,,,j,1.4541658999987703,0.2482973000005586,None,,,,,,96,0,95,3796.4724976000007,,,,,,,,,,,,,,,,,,,,,,,3796.4573592999996,3796.4724976000007,3796.9565365000008,,,,,,,,,,,,,,3797.0059247,,,,,,,,,,3797.0037199999997,3797.0059247,3797.0059247,3797.0059247,3799.973202100001,shoe,j,1.4541658999987703,0.2482973000005586,3799.9733927999996,3799.9734576,None,,,,,,,,,,,,,,00062,001,2026-01-19_18h25.43.917,MST_task,2024.2.0,59.92473453334364,2026-01-19 18h25.51.184822 +0530,
,Objects\168a.jpg,96,0,97,,,,,,,None,,,f,5.258737899999687,None,,,,97,0,96,3799.9897727,,,,,,,,,,,,,,,,,,,,,,,3799.973857600001,3799.9897727,3800.472904699999,,,,,,,,,,,,,,3800.5178263000007,,,,,,,,,,3800.5155752,3800.5178263000007,3800.5178263000007,3800.5178263000007,3803.4739215,shoe,None,,,3803.4740708,3808.756365099999,f,3803.4895270999996,3803.4895270999996,5.258737899999687,None,,,,,,,,,,00062,001,2026-01-19_18h25.43.917,MST_task,2024.2.0,59.92473453334364,2026-01-19 18h25.51.184822 +0530,
,Objects\340a.jpg,97,0,98,,,,,,,j,2.3472018000011303,0.20023359999868262,None,,,,,,98,0,97,3808.7728204000005,,,,,,,,,,,,,,,,,,,,,,,3808.7567891999997,3808.7728204000005,3809.2562406999996,,,,,,,,,,,,,,3809.2969666,,,,,,,,,,3809.2944257999998,3809.2969666,3809.2969666,3809.2969666,3812.2567709000004,shoe,j,2.3472018000011303,0.20023359999868262,3812.2569309,3812.2569961,None,,,,,,,,,,,,,,00062,001,2026-01-19_18h25.43.917,MST_task,2024.2.0,59.92473453334364,2026-01-19 18h25.51.184822 +0530,
,Objects\122a.jpg,98,0,99,,,,,,,f,1.258458000000246,0.16788309999901685,None,,,,,,99,0,98,3812.2733894000003,,,,,,,,,,,,,,,,,,,,,,,3812.2572766999992,3812.2733894000003,3812.756851700001,,,,,,,,,,,,,,3812.7863542000005,,,,,,,,,,3812.7838886,3812.7863542000005,3812.7863542000005,3812.7863542000005,3815.7728768999996,indoor,f,1.258458000000246,0.16788309999901685,3815.777328699999,3815.7773738999995,None,,,,,,,,,,,,,,00062,001,2026-01-19_18h25.43.917,MST_task,2024.2.0,59.92473453334364,2026-01-19 18h25.51.184822 +0530,
,Objects\276a.jpg,99,0,100,,,,,,,j,2.8368061000001035,None,None,,,,,,100,0,99,3815.7897454000004,,,,,,,,,,,,,,,,,,,,,,,3815.7775441999993,3815.7897454000004,3816.2728796,,,,,,,,,,,,,,3816.295374099999,,,,,,,,,,3816.2925688999994,3816.295374099999,3816.295374099999,3816.295374099999,3819.2895830999996,indoor,j,2.8368061000001035,None,3819.2897464000007,3819.289811899999,None,,,,,,,,,,,,,,00062,001,2026-01-19_18h25.43.917,MST_task,2024.2.0,59.92473453334364,2026-01-19 18h25.51.184822 +0530,
,Objects\032a.jpg,100,0,101,,,,,,,j,1.1864102999988972,0.175131700001657,None,,,,,,101,0,100,3819.305931600001,,,,,,,,,,,,,,,,,,,,,,,3819.2900904999997,3819.305931600001,3819.7898701000004,,,,,,,,,,,,,,3819.8512342999993,,,,,,,,,,3819.8489839000003,3819.8512342999993,3819.8512342999993,3819.8512342999993,3822.8064256999996,indoor,j,1.1864102999988972,0.175131700001657,3822.8066018,3822.8066666000004,None,,,,,,,,,,,,,,00062,001,2026-01-19_18h25.43.917,MST_task,2024.2.0,59.92473453334364,2026-01-19 18h25.51.184822 +0530,
,Objects\380a.jpg,101,0,102,,,,,,,None,,,j,1.1613761999997223,None,,,,102,0,101,3822.8223611999992,,,,,,,,,,,,,,,,,,,,,,,3822.8069602000005,3822.8223611999992,3823.3063154,,,,,,,,,,,,,,3823.3589949000007,,,,,,,,,,3823.355375100001,3823.3589949000007,3823.3589949000007,3823.3589949000007,3826.3235359,indoor,None,,,3826.3236792,3827.5068089000006,j,3826.3397932,3826.3397932,1.1613761999997223,None,,,,,,,,,,00062,001,2026-01-19_18h25.43.917,MST_task,2024.2.0,59.92473453334364,2026-01-19 18h25.51.184822 +0530,
,Objects\030a.jpg,102,0,103,,,,,,,f,1.4845635000001494,0.20697870000003604,None,,,,,,103,0,102,3827.5228056999995,,,,,,,,,,,,,,,,,,,,,,,3827.5071560999995,3827.5228056999995,3828.0065604,,,,,,,,,,,,,,3828.033069,,,,,,,,,,3828.030258399999,3828.033069,3828.033069,3828.033069,3831.0230796000005,indoor,f,1.4845635000001494,0.20697870000003604,3831.0232423000007,3831.0233120000003,None,,,,,,,,,,,,,,00062,001,2026-01-19_18h25.43.917,MST_task,2024.2.0,59.92473453334364,2026-01-19 18h25.51.184822 +0530,
,Objects\142a.jpg,103,0,104,,,,,,,f,0.9395353999989311,0.21588420000080077,None,,,,,,104,0,103,3831.039232100001,,,,,,,,,,,,,,,,,,,,,,,3831.023588700001,3831.039232100001,3831.5232700000006,,,,,,,,,,,,,,3831.6007493000006,,,,,,,,,,3831.598422599999,3831.6007493000006,3831.6007493000006,3831.6007493000006,3834.539595200001,indoor,f,0.9395353999989311,0.21588420000080077,3834.5397568,3834.5398195000007,None,,,,,,,,,,,,,,00062,001,2026-01-19_18h25.43.917,MST_task,2024.2.0,59.92473453334364,2026-01-19 18h25.51.184822 +0530,
,Objects\047a.jpg,104,0,105,,,,,,,f,1.1875632999999652,0.33631599999898754,None,,,,,,105,0,104,3834.5561546,,,,,,,,,,,,,,,,,,,,,,,3834.5401016000005,3834.5561546,3835.0397181,,,,,,,,,,,,,,3835.0648102000005,,,,,,,,,,3835.0618521000006,3835.0648102000005,3835.0648102000005,3835.0648102000005,3838.0572057,indoor,f,1.1875632999999652,0.33631599999898754,3838.0573698,3838.057433499999,None,,,,,,,,,,,,,,00062,001,2026-01-19_18h25.43.917,MST_task,2024.2.0,59.92473453334364,2026-01-19 18h25.51.184822 +0530,
,Objects\127a.jpg,105,0,106,,,,,,,None,,,j,0.621883900001194,None,,,,106,0,105,3838.0727264999996,,,,,,,,,,,,,,,,,,,,,,,3838.0577108999996,3838.0727264999996,3838.5563790999995,,,,,,,,,,,,,,3838.5834406999993,,,,,,,,,,3838.581174,3838.5834406999993,3838.5834406999993,3838.5834406999993,3841.573552499999,shoe,None,,,3841.5799445000002,3842.2234376000006,j,3841.5902644999996,3841.5902644999996,0.621883900001194,None,,,,,,,,,,00062,001,2026-01-19_18h25.43.917,MST_task,2024.2.0,59.92473453334364,2026-01-19 18h25.51.184822 +0530,
,Objects\170a.jpg,106,0,107,,,,,,,j,1.7558938000001945,0.21526540000013483,None,,,,,,107,0,106,3842.2399085999996,,,,,,,,,,,,,,,,,,,,,,,3842.223767300001,3842.2399085999996,3842.723398700001,,,,,,,,,,,,,,3842.7449227999996,,,,,,,,,,3842.7422476,3842.7449227999996,3842.7449227999996,3842.7449227999996,3845.7395614999996,shoe,j,1.7558938000001945,0.21526540000013483,3845.7397255000005,3845.7397907000004,None,,,,,,,,,,,,,,00062,001,2026-01-19_18h25.43.917,MST_task,2024.2.0,59.92473453334364,2026-01-19 18h25.51.184822 +0530,
,Objects\297a.jpg,107,0,108,,,,,,,j,2.4547836000001553,0.1287893000007898,None,,,,,,108,0,107,3845.7561343000007,,,,,,,,,,,,,,,,,,,,,,,3845.7400681999998,3845.7561343000007,3846.2399803,,,,,,,,,,,,,,3846.285665300001,,,,,,,,,,3846.2832556999992,3846.285665300001,3846.285665300001,3846.285665300001,3849.2403079999995,shoe,j,2.4547836000001553,0.1287893000007898,3849.240485699999,3849.2405492999997,None,,,,,,,,,,,,,,00062,001,2026-01-19_18h25.43.917,MST_task,2024.2.0,59.92473453334364,2026-01-19 18h25.51.184822 +0530,
,Objects\296a.jpg,108,0,109,,,,,,,j,1.4686332999990555,0.1839319999999134,None,,,,,,109,0,108,3849.256318999999,,,,,,,,,,,,,,,,,,,,,,,3849.2408324,3849.256318999999,3849.7390447999996,,,,,,,,,,,,,,3849.7601571000005,,,,,,,,,,3849.7572814999994,3849.7601571000005,3849.7601571000005,3849.7601571000005,3852.7563638,shoe,j,1.4686332999990555,0.1839319999999134,3852.7565275000006,3852.7565917,None,,,,,,,,,,,,,,00062,001,2026-01-19_18h25.43.917,MST_task,2024.2.0,59.92473453334364,2026-01-19 18h25.51.184822 +0530,
,Objects\311a.jpg,109,0,110,,,,,,,j,0.9128060999992158,0.16772359999959008,None,,,,,,110,0,109,3852.7727635,,,,,,,,,,,,,,,,,,,,,,,3852.756872000001,3852.7727635,3853.2567745000006,,,,,,,,,,,,,,3853.3080112,,,,,,,,,,3853.3055257999995,3853.3080112,3853.3080112,3853.3080112,3856.2732226,shoe,j,0.9128060999992158,0.16772359999959008,3856.2734694,3856.2735363,None,,,,,,,,,,,,,,00062,001,2026-01-19_18h25.43.917,MST_task,2024.2.0,59.92473453334364,2026-01-19 18h25.51.184822 +0530,
,Objects\356a.jpg,110,0,111,,,,,,,f,2.130486899999596,0.1917033999998239,None,,,,,,111,0,110,3856.2894031999995,,,,,,,,,,,,,,,,,,,,,,,3856.2738230999994,3856.2894031999995,3856.7733717,,,,,,,,,,,,,,3856.8258099999994,,,,,,,,,,3856.8231566999993,3856.8258099999994,3856.8258099999994,3856.8258099999994,3859.7895682000008,shoe,f,2.130486899999596,0.1917033999998239,3859.7897303,3859.7897970999993,None,,,,,,,,,,,,,,00062,001,2026-01-19_18h25.43.917,MST_task,2024.2.0,59.92473453334364,2026-01-19 18h25.51.184822 +0530,
,Objects\140a.jpg,111,0,112,,,,,,,f,0.7954666000005091,0.2479007999991154,None,,,,,,112,0,111,3859.8060720000003,,,,,,,,,,,,,,,,,,,,,,,3859.7900769,3859.8060720000003,3860.2899000000007,,,,,,,,,,,,,,3860.3128731000006,,,,,,,,,,3860.309894000001,3860.3128731000006,3860.3128731000006,3860.3128731000006,3863.3062665000007,shoe,f,0.7954666000005091,0.2479007999991154,3863.306458,3863.3065208,None,,,,,,,,,,,,,,00062,001,2026-01-19_18h25.43.917,MST_task,2024.2.0,59.92473453334364,2026-01-19 18h25.51.184822 +0530,
,Objects\359a.jpg,112,0,113,,,,,,,None,,,f,0.2132573000017146,None,,,,113,0,112,3863.3225379999994,,,,,,,,,,,,,,,,,,,,,,,3863.306810700001,3863.3225379999994,3863.8066561999995,,,,,,,,,,,,,,,,,,,,,,,,3863.8601549000005,3863.8630139000006,3863.8630139000006,3863.8630139000006,3866.8232498999996,indoor,None,,,3866.8283722999995,3867.0566783999993,f,3866.8395068,3866.8395068,0.2132573000017146,None,,,,,,,,,,00062,001,2026-01-19_18h25.43.917,MST_task,2024.2.0,59.92473453334364,2026-01-19 18h25.51.184822 +0530,
,Objects\137a.jpg,113,0,114,,,,,,,None,,,j,0.1266421000000264,None,,,,114,0,113,3867.0725900000007,,,,,,,,,,,,,,,,,,,,,,,3867.0570275,3867.0725900000007,3867.5562213999992,,,,,,,,,,,,,,3867.5976949000005,,,,,,,,,,3867.5951498000004,3867.5976949000005,3867.5976949000005,3867.5976949000005,3870.572808,indoor,None,,,3870.5729564999992,3870.7232517,j,3870.5894882000002,3870.5894882000002,0.1266421000000264,None,,,,,,,,,,00062,001,2026-01-19_18h25.43.917,MST_task,2024.2.0,59.92473453334364,2026-01-19 18h25.51.184822 +0530,
,Objects\043a.jpg,114,0,115,,,,,,,f,1.2236718999993172,0.16824050000104762,None,,,,,,115,0,114,3870.7397033000007,,,,,,,,,,,,,,,,,,,,,,,3870.7235821000004,3870.7397033000007,3871.2231777999996,,,,,,,,,,,,,,3871.244474599999,,,,,,,,,,3871.2419753000004,3871.244474599999,3871.244474599999,3871.244474599999,3874.2398903999992,indoor,f,1.2236718999993172,0.16824050000104762,3874.2400544,3874.2401177,None,,,,,,,,,,,,,,00062,001,2026-01-19_18h25.43.917,MST_task,2024.2.0,59.92473453334364,2026-01-19 18h25.51.184822 +0530,
,Objects\145a.jpg,115,0,116,,,,,,,f,1.2918071999993117,0.16766439999992144,None,,,,,,116,0,115,3874.2565052,,,,,,,,,,,,,,,,,,,,,,,3874.2404008999993,3874.2565052,3874.7398741000006,,,,,,,,,,,,,,3874.7771948,,,,,,,,,,3874.7749928000003,3874.7771948,3874.7771948,3874.7771948,3877.7562637,indoor,f,1.2918071999993117,0.16766439999992144,3877.7564262000005,3877.7564916,None,,,,,,,,,,,,,,00062,001,2026-01-19_18h25.43.917,MST_task,2024.2.0,59.92473453334364,2026-01-19 18h25.51.184822 +0530,
,Objects\008a.jpg,116,0,117,,,,,,,f,1.8732182000003377,0.25654779999968014,None,,,,,,117,0,116,3877.7728018000007,,,,,,,,,,,,,,,,,,,,,,,3877.7566632000007,3877.7728018000007,3878.2571333000005,,,,,,,,,,,,,,,,,,,,,,,,3878.3044744999997,3878.3073185000003,3878.3073185000003,3878.3073185000003,3881.273464499999,indoor,f,1.8732182000003377,0.25654779999968014,3881.2736242,3881.2736821999997,None,,,,,,,,,,,,,,00062,001,2026-01-19_18h25.43.917,MST_task,2024.2.0,59.92473453334364,2026-01-19 18h25.51.184822 +0530,
,Objects\154a.jpg,117,0,118,,,,,,,f,1.1523869000011473,0.2402035999984946,None,,,,,,118,0,117,3881.2891118,,,,,,,,,,,,,,,,,,,,,,,3881.273965199999,3881.2891118,3881.7733061999998,,,,,,,,,,,,,,3881.795748899999,,,,,,,,,,3881.7929904000002,3881.795748899999,3881.795748899999,3881.795748899999,3884.7897406,indoor,f,1.1523869000011473,0.2402035999984946,3884.7899205000003,3884.7899835,None,,,,,,,,,,,,,,00062,001,2026-01-19_18h25.43.917,MST_task,2024.2.0,59.92473453334364,2026-01-19 18h25.51.184822 +0530,
,Objects\229a.jpg,118,0,119,,,,,,,None,,,f,3.1935907999995834,None,,,,119,0,118,3884.8061513000002,,,,,,,,,,,,,,,,,,,,,,,3884.790267199999,3884.8061513000002,3885.2898056999993,,,,,,,,,,,,,,3885.345805600001,,,,,,,,,,3885.343370899999,3885.345805600001,3885.345805600001,3885.345805600001,3888.3064611,indoor,None,,,3888.3066059000002,3891.5233784,f,3888.3226466999995,3888.3226466999995,3.1935907999995834,None,,,,,,,,,,00062,001,2026-01-19_18h25.43.917,MST_task,2024.2.0,59.92473453334364,2026-01-19 18h25.51.184822 +0530,
,Objects\262a.jpg,119,0,120,,,,,,,None,,,f,0.9090296000013041,None,,,,120,0,119,3891.5397937000007,,,,,,,,,,,,,,,,,,,,,,,3891.5237093000005,3891.5397937000007,3892.0228665000004,,,,,,,,,,,,,,3892.0643023000002,,,,,,,,,,3892.061523900001,3892.0643023000002,3892.0643023000002,3892.0643023000002,3895.0397812,shoe,None,,,3895.0458522,3895.9732479999993,f,3895.0561277000006,3895.0561277000006,0.9090296000013041,None,,,,,,,,,,00062,001,2026-01-19_18h25.43.917,MST_task,2024.2.0,59.92473453334364,2026-01-19 18h25.51.184822 +0530,
,Objects\382a.jpg,120,0,121,,,,,,,j,1.5478294000004098,0.5040558999990026,None,,,,,,121,0,120,3895.9898077999997,,,,,,,,,,,,,,,,,,,,,,,3895.973548499999,3895.9898077999997,3896.4730040999993,,,,,,,,,,,,,,3896.4969451000006,,,,,,,,,,3896.4946126999994,3896.4969451000006,3896.4969451000006,3896.4969451000006,3899.4735443,shoe,j,1.5478294000004098,0.5040558999990026,3899.4737202000006,3899.4737854999994,None,,,,,,,,,,,,,,00062,001,2026-01-19_18h25.43.917,MST_task,2024.2.0,59.92473453334364,2026-01-19 18h25.51.184822 +0530,
,Objects\267a.jpg,121,0,122,,,,,,,j,1.1894073999992543,0.24740209999981744,None,,,,,,122,0,121,3899.4894784,,,,,,,,,,,,,,,,,,,,,,,3899.474078,3899.4894784,3899.9732235,,,,,,,,,,,,,,3900.0233313,,,,,,,,,,3900.0209841999995,3900.0233313,3900.0233313,3900.0233313,3902.9903559999993,shoe,j,1.1894073999992543,0.24740209999981744,3902.9905296999996,3902.9905953000007,None,,,,,,,,,,,,,,00062,001,2026-01-19_18h25.43.917,MST_task,2024.2.0,59.92473453334364,2026-01-19 18h25.51.184822 +0530,
,Objects\342a.jpg,122,0,123,,,,,,,j,2.0564773000005516,0.2644798000001174,None,,,,,,123,0,122,3903.0063574000005,,,,,,,,,,,,,,,,,,,,,,,3902.9910083999994,3903.0063574000005,3903.489713,,,,,,,,,,,,,,3903.5317411000005,,,,,,,,,,3903.5287918000004,3903.5317411000005,3903.5317411000005,3903.5317411000005,3906.5069544000007,shoe,j,2.0564773000005516,0.2644798000001174,3906.5071158,3906.5071796,None,,,,,,,,,,,,,,00062,001,2026-01-19_18h25.43.917,MST_task,2024.2.0,59.92473453334364,2026-01-19 18h25.51.184822 +0530,
,Objects\220a.jpg,123,0,124,,,,,,,f,0.8250165999997989,0.22313620000022638,None,,,,,,124,0,123,3906.5227463,,,,,,,,,,,,,,,,,,,,,,,3906.5074639999993,3906.5227463,3907.0072892,,,,,,,,,,,,,,3907.028103400001,,,,,,,,,,3907.0255657999996,3907.028103400001,3907.028103400001,3907.028103400001,3910.023376599999,shoe,f,0.8250165999997989,0.22313620000022638,3910.0235566,3910.0236216000003,None,,,,,,,,,,,,,,00062,001,2026-01-19_18h25.43.917,MST_task,2024.2.0,59.92473453334364,2026-01-19 18h25.51.184822 +0530,
,Objects\384a.jpg,124,0,125,,,,,,,f,1.927777299999434,0.2959878999990906,None,,,,,,125,0,124,3910.0394833,,,,,,,,,,,,,,,,,,,,,,,3910.0239033999997,3910.0394833,3910.5231474,,,,,,,,,,,,,,3910.5725085999993,,,,,,,,,,3910.5695886000003,3910.5725085999993,3910.5725085999993,3910.5725085999993,3913.5401224000007,shoe,f,1.927777299999434,0.2959878999990906,3913.5402846999996,3913.5403479999995,None,,,,,,,,,,,,,,00062,001,2026-01-19_18h25.43.917,MST_task,2024.2.0,59.92473453334364,2026-01-19 18h25.51.184822 +0530,
,Objects\013a.jpg,125,0,126,,,,,,,j,0.8424574000000575,0.26378199999999197,None,,,,,,126,0,125,3913.5561489,,,,,,,,,,,,,,,,,,,,,,,3913.5406264999992,3913.5561489,3914.0398151,,,,,,,,,,,,,,3914.0658427000008,,,,,,,,,,3914.0631490999995,3914.0658427000008,3914.0658427000008,3914.0658427000008,3917.0564454000005,shoe,j,0.8424574000000575,0.26378199999999197,3917.0566133,3917.0566769999996,None,,,,,,,,,,,,,,00062,001,2026-01-19_18h25.43.917,MST_task,2024.2.0,59.92473453334364,2026-01-19 18h25.51.184822 +0530,
,Objects\260a.jpg,126,0,127,,,,,,,f,0.9966160999993008,0.24088060000030964,None,,,,,,127,0,126,3917.0724824,,,,,,,,,,,,,,,,,,,,,,,3917.0569609999993,3917.0724824,3917.5565503000007,,,,,,,,,,,,,,3917.5834136000003,,,,,,,,,,3917.5808706,3917.5834136000003,3917.5834136000003,3917.5834136000003,3920.5729232999993,indoor,f,0.9966160999993008,0.24088060000030964,3920.5784763,3920.5785499999993,None,,,,,,,,,,,,,,00062,001,2026-01-19_18h25.43.917,MST_task,2024.2.0,59.92473453334364,2026-01-19 18h25.51.184822 +0530,
,Objects\371a.jpg,127,0,128,,,,,,,j,1.4538233000002947,0.24038440000003902,None,,,,,,128,0,127,3920.5894445999993,,,,,,,,,,,,,,,,,,,,,,,3920.5788488999997,3920.5894445999993,3921.0731867999993,,,,,,,,,,,,,,3921.0949078999993,,,,,,,,,,3921.0919208999994,3921.0949078999993,3921.0949078999993,3921.0949078999993,3924.0896074,indoor,j,1.4538233000002947,0.24038440000003902,3924.0897806000003,3924.0898454999997,None,,,,,,,,,,,,,,00062,001,2026-01-19_18h25.43.917,MST_task,2024.2.0,59.92473453334364,2026-01-19 18h25.51.184822 +0530,
,Objects\109a.jpg,128,0,129,,,,,,,j,2.148664899999858,0.19996530000025814,None,,,,,,129,0,128,3924.1061435,,,,,,,,,,,,,,,,,,,,,,,3924.090132799999,3924.1061435,3924.5894961999993,,,,,,,,,,,,,,3924.6160783999994,,,,,,,,,,3924.6132804,3924.6160783999994,3924.6160783999994,3924.6160783999994,3927.606426200001,indoor,j,2.148664899999858,0.19996530000025814,3927.6065864,3927.6066509,None,,,,,,,,,,,,,,00062,001,2026-01-19_18h25.43.917,MST_task,2024.2.0,59.92473453334364,2026-01-19 18h25.51.184822 +0530,
,Objects\017a.jpg,129,0,130,,,,,,,f,1.7077970000009373,0.1997745999997278,None,,,,,,130,0,129,3927.622618799999,,,,,,,,,,,,,,,,,,,,,,,3927.606931200001,3927.622618799999,3928.1067636,,,,,,,,,,,,,,3928.144477499999,,,,,,,,,,3928.141510300001,3928.144477499999,3928.144477499999,3928.144477499999,3931.1231954999994,indoor,f,1.7077970000009373,0.1997745999997278,3931.123355999999,3931.1234190999994,None,,,,,,,,,,,,,,00062,001,2026-01-19_18h25.43.917,MST_task,2024.2.0,59.92473453334364,2026-01-19 18h25.51.184822 +0530,
,Objects\329a.jpg,130,0,131,,,,,,,j,1.646011400000134,0.16120299999965937,None,,,,,,131,0,130,3931.1394169999994,,,,,,,,,,,,,,,,,,,,,,,3931.1236975,3931.1394169999994,3931.623222200001,,,,,,,,,,,,,,3931.6622677000005,,,,,,,,,,3931.659611100001,3931.6622677000005,3931.6622677000005,3931.6622677000005,3934.6238858000006,indoor,j,1.646011400000134,0.16120299999965937,3934.6240449000006,3934.6241072000003,None,,,,,,,,,,,,,,00062,001,2026-01-19_18h25.43.917,MST_task,2024.2.0,59.92473453334364,2026-01-19 18h25.51.184822 +0530,
,Objects\106a.jpg,131,0,132,,,,,,,f,1.6630714999992051,0.19215350000013132,None,,,,,,132,0,131,3934.6394133000003,,,,,,,,,,,,,,,,,,,,,,,3934.624383900001,3934.6394133000003,3935.1239503999996,,,,,,,,,,,,,,3935.1730261000002,,,,,,,,,,3935.1706005999995,3935.1730261000002,3935.1730261000002,3935.1730261000002,3938.1398861999996,indoor,f,1.6630714999992051,0.19215350000013132,3938.1400681000005,3938.1401314999994,None,,,,,,,,,,,,,,00062,001,2026-01-19_18h25.43.917,MST_task,2024.2.0,59.92473453334364,2026-01-19 18h25.51.184822 +0530,
,Objects\305a.jpg,132,0,133,,,,,,,None,,,f,0.1567140000006475,None,,,,133,0,132,3938.1560911999995,,,,,,,,,,,,,,,,,,,,,,,3938.1404144,3938.1560911999995,3938.639574399999,,,,,,,,,,,,,,3938.6596051999995,,,,,,,,,,3938.6573739000005,3938.6596051999995,3938.6596051999995,3938.6596051999995,3941.640626900001,indoor,None,,,3941.6407914,3941.8233370000007,f,3941.6557081,3941.6557081,0.1567140000006475,None,,,,,,,,,,00062,001,2026-01-19_18h25.43.917,MST_task,2024.2.0,59.92473453334364,2026-01-19 18h25.51.184822 +0530,
,Objects\353a.jpg,133,0,134,,,,,,,f,1.5152428000001237,0.2322993999987375,None,,,,,,134,0,133,3941.8394849000006,,,,,,,,,,,,,,,,,,,,,,,3941.8236659000004,3941.8394849000006,3942.3229180000008,,,,,,,,,,,,,,3942.3607881,,,,,,,,,,3942.358130400001,3942.3607881,3942.3607881,3942.3607881,3945.3403104,shoe,f,1.5152428000001237,0.2322993999987375,3945.3459587000007,3945.3459797000005,None,,,,,,,,,,,,,,00062,001,2026-01-19_18h25.43.917,MST_task,2024.2.0,59.92473453334364,2026-01-19 18h25.51.184822 +0530,
,Objects\184a.jpg,134,0,135,,,,,,,j,1.63542150000103,0.20817709999937506,None,,,,,,135,0,134,3945.3561161000007,,,,,,,,,,,,,,,,,,,,,,,3945.3460573,3945.3561161000007,3945.8395193999995,,,,,,,,,,,,,,3945.8645712000007,,,,,,,,,,3945.8619018,3945.8645712000007,3945.8645712000007,3945.8645712000007,3948.8563664000003,shoe,j,1.63542150000103,0.20817709999937506,3948.8565265000007,3948.8565895,None,,,,,,,,,,,,,,00062,001,2026-01-19_18h25.43.917,MST_task,2024.2.0,59.92473453334364,2026-01-19 18h25.51.184822 +0530,
,Objects\080a.jpg,135,0,136,,,,,,,f,0.8680038999991666,0.19202540000151203,None,,,,,,136,0,135,3948.8728187999995,,,,,,,,,,,,,,,,,,,,,,,3948.8569761999997,3948.8728187999995,3949.3568858999997,,,,,,,,,,,,,,3949.408680400001,,,,,,,,,,3949.405519499999,3949.408680400001,3949.408680400001,3949.408680400001,3952.3729792999993,shoe,f,0.8680038999991666,0.19202540000151203,3952.3731569,3952.3732212000004,None,,,,,,,,,,,,,,00062,001,2026-01-19_18h25.43.917,MST_task,2024.2.0,59.92473453334364,2026-01-19 18h25.51.184822 +0530,
,Objects\044a.jpg,136,0,137,,,,,,,f,1.0704620999986219,0.23930030000155966,None,,,,,,137,0,136,3952.3893046000003,,,,,,,,,,,,,,,,,,,,,,,3952.3735073,3952.3893046000003,3952.8729847000004,,,,,,,,,,,,,,3952.919124700001,,,,,,,,,,3952.9169044,3952.919124700001,3952.919124700001,3952.919124700001,3955.8899295,shoe,f,1.0704620999986219,0.23930030000155966,3955.8900920000005,3955.8901567000003,None,,,,,,,,,,,,,,00062,001,2026-01-19_18h25.43.917,MST_task,2024.2.0,59.92473453334364,2026-01-19 18h25.51.184822 +0530,
,Objects\309a.jpg,137,0,138,,,,,,,f,1.8777780999989773,0.23178860000007262,None,,,,,,138,0,137,3955.9063068999994,,,,,,,,,,,,,,,,,,,,,,,3955.8904312999994,3955.9063068999994,3956.3900767000005,,,,,,,,,,,,,,3956.4307615999996,,,,,,,,,,3956.4282608999993,3956.4307615999996,3956.4307615999996,3956.4307615999996,3959.3907188000003,shoe,f,1.8777780999989773,0.23178860000007262,3959.3908813000007,3959.3909464,None,,,,,,,,,,,,,,00062,001,2026-01-19_18h25.43.917,MST_task,2024.2.0,59.92473453334364,2026-01-19 18h25.51.184822 +0530,
,Objects\189a.jpg,138,0,139,,,,,,,j,0.9447459999992134,0.18414359999951557,None,,,,,,139,0,138,3959.4058316,,,,,,,,,,,,,,,,,,,,,,,3959.3912690999996,3959.4058316,3959.8900053000007,,,,,,,,,,,,,,3959.9152604,,,,,,,,,,3959.9127263,3959.9152604,3959.9152604,3959.9152604,3962.9071379000006,shoe,j,0.9447459999992134,0.18414359999951557,3962.9072969,3962.9073598999994,None,,,,,,,,,,,,,,00062,001,2026-01-19_18h25.43.917,MST_task,2024.2.0,59.92473453334364,2026-01-19 18h25.51.184822 +0530,
,Objects\370a.jpg,139,0,140,,,,,,,j,1.7991717999993853,0.2165021999990131,None,,,,,,140,0,139,3962.9227741000004,,,,,,,,,,,,,,,,,,,,,,,3962.9077566999995,3962.9227741000004,3963.4062108000007,,,,,,,,,,,,,,3963.4290011000003,,,,,,,,,,3963.4266321000005,3963.4290011000003,3963.4290011000003,3963.4290011000003,3966.422905799999,shoe,j,1.7991717999993853,0.2165021999990131,3966.423017,3966.4230615999995,None,,,,,,,,,,,,,,00062,001,2026-01-19_18h25.43.917,MST_task,2024.2.0,59.92473453334364,2026-01-19 18h25.51.184822 +0530,
,Objects\352a.jpg,140,0,141,,,,,,,f,1.5570293000000675,0.23937029999979131,None,,,,,,141,0,140,3966.4391246000005,,,,,,,,,,,,,,,,,,,,,,,3966.4232509999993,3966.4391246000005,3966.9229545999997,,,,,,,,,,,,,,3966.94395,,,,,,,,,,3966.9411905000006,3966.94395,3966.94395,3966.94395,3969.9398384000006,indoor,f,1.5570293000000675,0.23937029999979131,3969.944929800001,3969.9449526,None,,,,,,,,,,,,,,00062,001,2026-01-19_18h25.43.917,MST_task,2024.2.0,59.92473453334364,2026-01-19 18h25.51.184822 +0530,
,Objects\362a.jpg,141,0,142,,,,,,,f,1.295354200001384,0.1999644999996235,None,,,,,,142,0,141,3969.9565637000005,,,,,,,,,,,,,,,,,,,,,,,3969.9450356999996,3969.9565637000005,3970.4398219000004,,,,,,,,,,,,,,3970.4607542999993,,,,,,,,,,3970.4580314000004,3970.4607542999993,3970.4607542999993,3970.4607542999993,3973.4566896999995,indoor,f,1.295354200001384,0.1999644999996235,3973.4568484,3973.4569103000003,None,,,,,,,,,,,,,,00062,001,2026-01-19_18h25.43.917,MST_task,2024.2.0,59.92473453334364,2026-01-19 18h25.51.184822 +0530,
,Objects\084a.jpg,142,0,143,,,,,,,None,,,f,0.39964169999984733,None,,,,143,0,142,3973.4730446000003,,,,,,,,,,,,,,,,,,,,,,,3973.4571893,3973.4730446000003,3973.9565635999998,,,,,,,,,,,,,,3973.9807331,,,,,,,,,,3973.978079899999,3973.9807331,3973.9807331,3973.9807331,3976.9737656999996,indoor,None,,,3976.9739055,3977.390316599999,f,3976.989370099999,3976.989370099999,0.39964169999984733,None,,,,,,,,,,00062,001,2026-01-19_18h25.43.917,MST_task,2024.2.0,59.92473453334364,2026-01-19 18h25.51.184822 +0530,
,Objects\238a.jpg,143,0,144,,,,,,,j,1.125386100000469,0.1684122999995452,None,,,,,,144,0,143,3977.4061536,,,,,,,,,,,,,,,,,,,,,,,3977.3906514,3977.4061536,3977.889894499999,,,,,,,,,,,,,,3977.9108728,,,,,,,,,,3977.9083861999998,3977.9108728,3977.9108728,3977.9108728,3980.906194,indoor,j,1.125386100000469,0.1684122999995452,3980.9063539999997,3980.906415799999,None,,,,,,,,,,,,,,00062,001,2026-01-19_18h25.43.917,MST_task,2024.2.0,59.92473453334364,2026-01-19 18h25.51.184822 +0530,
,Objects\327a.jpg,144,0,145,,,,,,,None,,,j,0.26115630000094825,None,,,,145,0,144,3980.9222695,,,,,,,,,,,,,,,,,,,,,,,3980.9066924999997,3980.9222695,3981.4062611,,,,,,,,,,,,,,3981.431318,,,,,,,,,,3981.4289175999993,3981.431318,3981.431318,3981.431318,3984.4231322000005,indoor,None,,,3984.423270800001,3984.7069882999995,j,3984.4394913000006,3984.4394913000006,0.26115630000094825,None,,,,,,,,,,00062,001,2026-01-19_18h25.43.917,MST_task,2024.2.0,59.92473453334364,2026-01-19 18h25.51.184822 +0530,
,Objects\277a.jpg,145,0,146,,,,,,,f,1.1473329000000376,0.21611959999972896,None,,,,,,146,0,145,3984.7227587999996,,,,,,,,,,,,,,,,,,,,,,,3984.7073186999996,3984.7227587999996,3985.2067376999994,,,,,,,,,,,,,,3985.2892340999997,,,,,,,,,,3985.286792,3985.2892340999997,3985.2892340999997,3985.2892340999997,3988.2233621000005,indoor,f,1.1473329000000376,0.21611959999972896,3988.2235463000006,3988.2236127999995,None,,,,,,,,,,,,,,00062,001,2026-01-19_18h25.43.917,MST_task,2024.2.0,59.92473453334364,2026-01-19 18h25.51.184822 +0530,
,Objects\121a.jpg,146,0,147,,,,,,,f,1.4321946000000025,0.21524110000063956,None,,,,,,147,0,146,3988.2395742,,,,,,,,,,,,,,,,,,,,,,,3988.223902500001,3988.2395742,3988.722849999999,,,,,,,,,,,,,,3988.7484517000003,,,,,,,,,,3988.7461336999995,3988.7484517000003,3988.7484517000003,3988.7484517000003,3991.7395392000008,indoor,f,1.4321946000000025,0.21524110000063956,3991.7397002000007,3991.739763299999,None,,,,,,,,,,,,,,00062,001,2026-01-19_18h25.43.917,MST_task,2024.2.0,59.92473453334364,2026-01-19 18h25.51.184822 +0530,
,Objects\091a.jpg,147,0,148,,,,,,,f,2.484972700000071,0.2962361999998393,None,,,,,,148,0,147,3991.756308700001,,,,,,,,,,,,,,,,,,,,,,,3991.7400422,3991.756308700001,3992.2398771,,,,,,,,,,,,,,3992.2794511,,,,,,,,,,3992.2769758000004,3992.2794511,3992.2794511,3992.2794511,3995.2399192000003,shoe,f,2.484972700000071,0.2962361999998393,3995.2459807999994,3995.2460290999998,None,,,,,,,,,,,,,,00062,001,2026-01-19_18h25.43.917,MST_task,2024.2.0,59.92473453334364,2026-01-19 18h25.51.184822 +0530,
,Objects\019a.jpg,148,0,149,,,,,,,f,2.2411750000010215,0.19235209999897052,None,,,,,,149,0,148,3995.2564291999997,,,,,,,,,,,,,,,,,,,,,,,3995.246286299999,3995.2564291999997,3995.7403609000003,,,,,,,,,,,,,,3995.7951268999996,,,,,,,,,,3995.7926027999993,3995.7951268999996,3995.7951268999996,3995.7951268999996,3998.7565513,shoe,f,2.2411750000010215,0.19235209999897052,3998.7567099,3998.7567735000002,None,,,,,,,,,,,,,,00062,001,2026-01-19_18h25.43.917,MST_task,2024.2.0,59.92473453334364,2026-01-19 18h25.51.184822 +0530,
,Objects\259a.jpg,149,0,150,,,,,,,j,1.420218900000691,0.15199829999983194,None,,,,,,150,0,149,3998.7726171999993,,,,,,,,,,,,,,,,,,,,,,,3998.7570557999998,3998.7726171999993,3999.2565576999996,,,,,,,,,,,,,,3999.2804117000005,,,,,,,,,,3999.2772988999996,3999.2804117000005,3999.2804117000005,3999.2804117000005,4002.2730469999997,shoe,j,1.420218900000691,0.15199829999983194,4002.273236599999,4002.273302299999,None,,,,,,,,,,,,,,00062,001,2026-01-19_18h25.43.917,MST_task,2024.2.0,59.92473453334364,2026-01-19 18h25.51.184822 +0530,
,Objects\169a.jpg,150,0,151,,,,,,,j,1.1617691000010382,0.16059499999937543,None,,,,,,151,0,150,4002.2892495999995,,,,,,,,,,,,,,,,,,,,,,,4002.2735863999997,4002.2892495999995,4002.7734747999993,,,,,,,,,,,,,,,,,,,,,,,,4002.8078189,4002.8102926,4002.8102926,4002.8102926,4005.790273899999,shoe,j,1.1617691000010382,0.16059499999937543,4005.7905079,4005.790565800001,None,,,,,,,,,,,,,,00062,001,2026-01-19_18h25.43.917,MST_task,2024.2.0,59.92473453334364,2026-01-19 18h25.51.184822 +0530,
,Objects\252a.jpg,151,0,152,,,,,,,f,1.032806499999424,0.1999759999998787,None,,,,,,152,0,151,4005.8061589,,,,,,,,,,,,,,,,,,,,,,,4005.7908548999994,4005.8061589,4006.2895481000005,,,,,,,,,,,,,,4006.339199700001,,,,,,,,,,4006.336913599999,4006.339199700001,4006.339199700001,4006.339199700001,4009.3064533000006,shoe,f,1.032806499999424,0.1999759999998787,4009.3066174999994,4009.3066826999993,None,,,,,,,,,,,,,,00062,001,2026-01-19_18h25.43.917,MST_task,2024.2.0,59.92473453334364,2026-01-19 18h25.51.184822 +0530,
,Objects\108a.jpg,152,0,153,,,,,,,j,1.3686431999994966,0.12831720000031055,None,,,,,,153,0,152,4009.323274199999,,,,,,,,,,,,,,,,,,,,,,,4009.306965500001,4009.323274199999,4009.8229863999995,,,,,,,,,,,,,,,,,,,,,,,,4009.8652498,4009.8679812,4009.8679812,4009.8679812,4012.8069411000006,shoe,j,1.3686431999994966,0.12831720000031055,4012.8071056,4012.8071630000004,None,,,,,,,,,,,,,,00062,001,2026-01-19_18h25.43.917,MST_task,2024.2.0,59.92473453334364,2026-01-19 18h25.51.184822 +0530,
,Objects\288a.jpg,153,0,154,,,,,,,f,2.1089393999991444,0.20713570000043546,None,,,,,,154,0,153,4012.8226396,,,,,,,,,,,,,,,,,,,,,,,4012.8075789000004,4012.8226396,4013.3064965999993,,,,,,,,,,,,,,4013.3599650000006,,,,,,,,,,4013.3570752999995,4013.3599650000006,4013.3599650000006,4013.3599650000006,4016.3232473,shoe,f,2.1089393999991444,0.20713570000043546,4016.323405,4016.3234674000005,None,,,,,,,,,,,,,,00062,001,2026-01-19_18h25.43.917,MST_task,2024.2.0,59.92473453334364,2026-01-19 18h25.51.184822 +0530,
,Objects\322a.jpg,154,0,155,,,,,,,j,2.337984300000244,0.1686554999996588,None,,,,,,155,0,154,4016.339703299999,,,,,,,,,,,,,,,,,,,,,,,4016.3237505000006,4016.339703299999,4016.82362,,,,,,,,,,,,,,4016.8820583000006,,,,,,,,,,4016.8795848,4016.8820583000006,4016.8820583000006,4016.8820583000006,4019.8396473000003,indoor,j,2.337984300000244,0.1686554999996588,4019.8454285,4019.8454666000007,None,,,,,,,,,,,,,,00062,001,2026-01-19_18h25.43.917,MST_task,2024.2.0,59.92473453334364,2026-01-19 18h25.51.184822 +0530,
,Objects\146a.jpg,155,0,156,,,,,,,j,1.808939200000168,0.1845510999992257,None,,,,,,156,0,155,4019.8560145,,,,,,,,,,,,,,,,,,,,,,,4019.8456118999993,4019.8560145,4020.339839200001,,,,,,,,,,,,,,4020.3629972999997,,,,,,,,,,4020.3602839999994,4020.3629972999997,4020.3629972999997,4020.3629972999997,4023.3569180000004,indoor,j,1.808939200000168,0.1845510999992257,4023.3570955000005,4023.3571576000004,None,,,,,,,,,,,,,,00062,001,2026-01-19_18h25.43.917,MST_task,2024.2.0,59.92473453334364,2026-01-19 18h25.51.184822 +0530,
,Objects\018a.jpg,156,0,157,,,,,,,j,0.9809564999995928,0.1927107999999862,None,,,,,,157,0,156,4023.3731462999995,,,,,,,,,,,,,,,,,,,,,,,4023.3574483,4023.3731462999995,4023.8565532000002,,,,,,,,,,,,,,4023.8791561999997,,,,,,,,,,4023.8765780999993,4023.8791561999997,4023.8791561999997,4023.8791561999997,4026.873214099999,indoor,j,0.9809564999995928,0.1927107999999862,4026.8733961999997,4026.8734594000007,None,,,,,,,,,,,,,,00062,001,2026-01-19_18h25.43.917,MST_task,2024.2.0,59.92473453334364,2026-01-19 18h25.51.184822 +0530,
,Objects\113a.jpg,157,0,158,,,,,,,j,2.3516971000008198,0.17577199999868753,None,,,,,,158,0,157,4026.8892573000003,,,,,,,,,,,,,,,,,,,,,,,4026.8737372999994,4026.8892573000003,4027.373257099999,,,,,,,,,,,,,,4027.3964461999994,,,,,,,,,,4027.3942968,4027.3964461999994,4027.3964461999994,4027.3964461999994,4030.3738917,indoor,j,2.3516971000008198,0.17577199999868753,4030.3740499000005,4030.3741132999994,None,,,,,,,,,,,,,,00062,001,2026-01-19_18h25.43.917,MST_task,2024.2.0,59.92473453334364,2026-01-19 18h25.51.184822 +0530,
,Objects\291a.jpg,158,0,159,,,,,,,None,,,f,0.7868355999999039,None,,,,159,0,158,4030.3893,,,,,,,,,,,,,,,,,,,,,,,4030.3747648,4030.3893,4030.8728862,,,,,,,,,,,,,,4030.894161200001,,,,,,,,,,4030.8901011000007,4030.894161200001,4030.894161200001,4030.894161200001,4033.8894597999997,indoor,None,,,4033.8895987999995,4034.7066938,f,4033.9057827000006,4033.9057827000006,0.7868355999999039,None,,,,,,,,,,00062,001,2026-01-19_18h25.43.917,MST_task,2024.2.0,59.92473453334364,2026-01-19 18h25.51.184822 +0530,
,Objects\303a.jpg,159,0,160,,,,,,,j,2.100375100000747,0.15107239999997546,None,,,,,,160,0,159,4034.7227001,,,,,,,,,,,,,,,,,,,,,,,4034.7070259,4034.7227001,4035.206332999999,,,,,,,,,,,,,,4035.2327219999997,,,,,,,,,,4035.2301689999995,4035.2327219999997,4035.2327219999997,4035.2327219999997,4038.2070591,indoor,j,2.100375100000747,0.15107239999997546,4038.207222599999,4038.2072863999992,None,,,,,,,,,,,,,,00062,001,2026-01-19_18h25.43.917,MST_task,2024.2.0,59.92473453334364,2026-01-19 18h25.51.184822 +0530,
,Objects\103a.jpg,160,0,161,,,,,,,j,1.9298296999986633,0.14398500000061176,None,,,,,,161,0,160,4038.222565700001,,,,,,,,,,,,,,,,,,,,,,,4038.207961700001,4038.222565700001,4038.7065606000006,,,,,,,,,,,,,,4038.7861626000004,,,,,,,,,,4038.7837336000002,4038.7861626000004,4038.7861626000004,4038.7861626000004,4041.723047300001,indoor,j,1.9298296999986633,0.14398500000061176,4041.7232221000004,4041.723285700001,None,,,,,,,,,,,,,,00062,001,2026-01-19_18h25.43.917,MST_task,2024.2.0,59.92473453334364,2026-01-19 18h25.51.184822 +0530,
,Objects\232a.jpg,161,0,162,,,,,,,f,1.051475300000675,0.17561249999926076,None,,,,,,162,0,161,4041.739665,,,,,,,,,,,,,,,,,,,,,,,4041.7235680999993,4041.739665,4042.2235403999994,,,,,,,,,,,,,,4042.264858400001,,,,,,,,,,4042.2623630999997,4042.264858400001,4042.264858400001,4042.264858400001,4045.2395475000003,shoe,f,1.051475300000675,0.17561249999926076,4045.2460344,4045.2460906999995,None,,,,,,,,,,,,,,00062,001,2026-01-19_18h25.43.917,MST_task,2024.2.0,59.92473453334364,2026-01-19 18h25.51.184822 +0530,
,Objects\128a.jpg,162,0,163,,,,,,,f,0.8274509000002581,0.19207959999948798,None,,,,,,163,0,162,4045.2561596999994,,,,,,,,,,,,,,,,,,,,,,,4045.2463087999995,4045.2561596999994,4045.7396356,,,,,,,,,,,,,,4045.7851696999996,,,,,,,,,,4045.7825848,4045.7851696999996,4045.7851696999996,4045.7851696999996,4048.7562867000006,shoe,f,0.8274509000002581,0.19207959999948798,4048.7564446999995,4048.756506500001,None,,,,,,,,,,,,,,00062,001,2026-01-19_18h25.43.917,MST_task,2024.2.0,59.92473453334364,2026-01-19 18h25.51.184822 +0530,
,Objects\293a.jpg,163,0,164,,,,,,,f,1.3539870999993582,0.1920164000002842,None,,,,,,164,0,163,4048.7730194999995,,,,,,,,,,,,,,,,,,,,,,,4048.7567850999994,4048.7730194999995,4049.2565919,,,,,,,,,,,,,,4049.305948099999,,,,,,,,,,4049.3033871,4049.305948099999,4049.305948099999,4049.305948099999,4052.2730144999996,shoe,f,1.3539870999993582,0.1920164000002842,4052.2731706999994,4052.273233499999,None,,,,,,,,,,,,,,00062,001,2026-01-19_18h25.43.917,MST_task,2024.2.0,59.92473453334364,2026-01-19 18h25.51.184822 +0530,
,Objects\369a.jpg,164,0,165,,,,,,,None,,,f,1.1826813999996375,None,,,,165,0,164,4052.2890796,,,,,,,,,,,,,,,,,,,,,,,4052.2735225000006,4052.2890796,4052.7734737,,,,,,,,,,,,,,,,,,,,,,,,4052.8070142000006,4052.8100829999994,4052.8100829999994,4052.8100829999994,4055.7737802,shoe,None,,,4055.7739205999997,4056.9733563,f,4055.789469799999,4055.789469799999,1.1826813999996375,None,,,,,,,,,,00062,001,2026-01-19_18h25.43.917,MST_task,2024.2.0,59.92473453334364,2026-01-19 18h25.51.184822 +0530,
,Objects\304a.jpg,165,0,166,,,,,,,j,1.6070644000010361,0.13534289999915927,None,,,,,,166,0,165,4056.989303199999,,,,,,,,,,,,,,,,,,,,,,,4056.9737374999995,4056.989303199999,4057.4730463000005,,,,,,,,,,,,,,4057.525568100001,,,,,,,,,,4057.5210951,4057.525568100001,4057.525568100001,4057.525568100001,4060.4899156,shoe,j,1.6070644000010361,0.13534289999915927,4060.4900831999994,4060.4901543000005,None,,,,,,,,,,,,,,00062,001,2026-01-19_18h25.43.917,MST_task,2024.2.0,59.92473453334364,2026-01-19 18h25.51.184822 +0530,
,Objects\157a.jpg,166,0,167,,,,,,,j,1.2088827999996283,0.12135390000003099,None,,,,,,167,0,166,4060.5061147000006,,,,,,,,,,,,,,,,,,,,,,,4060.4905656,4060.5061147000006,4060.9897358999997,,,,,,,,,,,,,,4061.0352052000007,,,,,,,,,,4061.0327492000006,4061.0352052000007,4061.0352052000007,4061.0352052000007,4064.006571000001,shoe,j,1.2088827999996283,0.12135390000003099,4064.0067288,4064.0067919000003,None,,,,,,,,,,,,,,00062,001,2026-01-19_18h25.43.917,MST_task,2024.2.0,59.92473453334364,2026-01-19 18h25.51.184822 +0530,
,Objects\064a.jpg,167,0,168,,,,,,,f,2.9045309999983147,None,None,,,,,,168,0,167,4064.0233230000003,,,,,,,,,,,,,,,,,,,,,,,4064.0071724,4064.0233230000003,4064.5226181999997,,,,,,,,,,,,,,,,,,,,,,,,4064.5370383,4064.5401162000007,4064.5401162000007,4064.5401162000007,4067.5229964,shoe,f,2.9045309999983147,None,4067.523152500001,4067.5232100999992,None,,,,,,,,,,,,,,00062,001,2026-01-19_18h25.43.917,MST_task,2024.2.0,59.92473453334364,2026-01-19 18h25.51.184822 +0530,
,Objects\041a.jpg,168,0,169,,,,,,,j,0.9044873000002553,0.1678842999990593,None,,,,,,169,0,168,4067.5393926000006,,,,,,,,,,,,,,,,,,,,,,,4067.5236023000007,4067.5393926000006,4068.0232528999995,,,,,,,,,,,,,,4068.0515566000004,,,,,,,,,,4068.0489623999993,4068.0515566000004,4068.0515566000004,4068.0515566000004,4071.023947999999,indoor,j,0.9044873000002553,0.1678842999990593,4071.0293950000005,4071.0294136,None,,,,,,,,,,,,,,00062,001,2026-01-19_18h25.43.917,MST_task,2024.2.0,59.92473453334364,2026-01-19 18h25.51.184822 +0530,
,Objects\065a.jpg,169,0,170,,,,,,,f,1.8304909999988013,0.19930200000089826,None,,,,,,170,0,169,4071.0402669000005,,,,,,,,,,,,,,,,,,,,,,,4071.0294903999993,4071.0402669000005,4071.5232540999996,,,,,,,,,,,,,,4071.5661131999996,,,,,,,,,,4071.562885799999,4071.5661131999996,4071.5661131999996,4071.5661131999996,4074.5398723999997,indoor,f,1.8304909999988013,0.19930200000089826,4074.540031899999,4074.5400925999993,None,,,,,,,,,,,,,,00062,001,2026-01-19_18h25.43.917,MST_task,2024.2.0,59.92473453334364,2026-01-19 18h25.51.184822 +0530,
,Objects\264a.jpg,170,0,171,,,,,,,j,1.1260182999994868,0.1588612000014109,None,,,,,,171,0,170,4074.5561014000004,,,,,,,,,,,,,,,,,,,,,,,4074.5403744999994,4074.5561014000004,4075.039955699999,,,,,,,,,,,,,,4075.063136399999,,,,,,,,,,4075.0599892,4075.063136399999,4075.063136399999,4075.063136399999,4078.0562311000003,indoor,j,1.1260182999994868,0.1588612000014109,4078.056397900001,4078.0564636999998,None,,,,,,,,,,,,,,00062,001,2026-01-19_18h25.43.917,MST_task,2024.2.0,59.92473453334364,2026-01-19 18h25.51.184822 +0530,
,Objects\015a.jpg,171,0,172,,,,,,,j,2.5726880000001984,0.20016109999960463,None,,,,,,172,0,171,4078.0731972999993,,,,,,,,,,,,,,,,,,,,,,,4078.0567662000003,4078.0731972999993,4078.5562899999995,,,,,,,,,,,,,,4078.5992197999994,,,,,,,,,,4078.5967518999996,4078.5992197999994,4078.5992197999994,4078.5992197999994,4081.5732142999996,indoor,j,2.5726880000001984,0.20016109999960463,4081.5733723999992,4081.573434000001,None,,,,,,,,,,,,,,00062,001,2026-01-19_18h25.43.917,MST_task,2024.2.0,59.92473453334364,2026-01-19 18h25.51.184822 +0530,
,Objects\082a.jpg,172,0,173,,,,,,,j,1.8862129999997705,0.19210589999966032,None,,,,,,173,0,172,4081.5892343000005,,,,,,,,,,,,,,,,,,,,,,,4081.573709200001,4081.5892343000005,4082.0732297999994,,,,,,,,,,,,,,4082.1262245999997,,,,,,,,,,4082.1240436,4082.1262245999997,4082.1262245999997,4082.1262245999997,4085.0899144000005,indoor,j,1.8862129999997705,0.19210589999966032,4085.0900740000006,4085.0901349000005,None,,,,,,,,,,,,,,00062,001,2026-01-19_18h25.43.917,MST_task,2024.2.0,59.92473453334364,2026-01-19 18h25.51.184822 +0530,
,Objects\038a.jpg,173,0,174,,,,,,,f,1.2316472999991674,0.21543540000129724,None,,,,,,174,0,173,4085.1061672000005,,,,,,,,,,,,,,,,,,,,,,,4085.0904127999993,4085.1061672000005,4085.5902765,,,,,,,,,,,,,,4085.6129592999996,,,,,,,,,,4085.6103494999998,4085.6129592999996,4085.6129592999996,4085.6129592999996,4088.6073908000008,indoor,f,1.2316472999991674,0.21543540000129724,4088.6075640999998,4088.6076270000003,None,,,,,,,,,,,,,,00062,001,2026-01-19_18h25.43.917,MST_task,2024.2.0,59.92473453334364,2026-01-19 18h25.51.184822 +0530,
,Objects\133a.jpg,174,0,175,,,,,,,j,1.7613514000004216,0.14456319999953848,None,,,,,,175,0,174,4088.6230459000008,,,,,,,,,,,,,,,,,,,,,,,4088.6079089999994,4088.6230459000008,4089.106072400001,,,,,,,,,,,,,,4089.1624588000004,,,,,,,,,,4089.1598172999993,4089.1624588000004,4089.1624588000004,4089.1624588000004,4092.1233597,indoor,j,1.7613514000004216,0.14456319999953848,4092.1235189999998,4092.123582200001,None,,,,,,,,,,,,,,00062,001,2026-01-19_18h25.43.917,MST_task,2024.2.0,59.92473453334364,2026-01-19 18h25.51.184822 +0530,
,Objects\022a.jpg,175,0,176,,,,,,,j,1.3234597999999096,0.18417109999973036,None,,,,,,176,0,175,4092.1390803999993,,,,,,,,,,,,,,,,,,,,,,,4092.1238611,4092.1390803999993,4092.6237002999997,,,,,,,,,,,,,,4092.728789,,,,,,,,,,4092.7262524999996,4092.728789,4092.728789,4092.728789,4095.6398963,shoe,j,1.3234597999999096,0.18417109999973036,4095.646416299999,4095.6464664000005,None,,,,,,,,,,,,,,00062,001,2026-01-19_18h25.43.917,MST_task,2024.2.0,59.92473453334364,2026-01-19 18h25.51.184822 +0530,
,Objects\156a.jpg,176,0,177,,,,,,,j,1.046133899999404,0.1437244999997347,None,,,,,,177,0,176,4095.6560959999997,,,,,,,,,,,,,,,,,,,,,,,4095.6466627,4095.6560959999997,4096.139815899999,,,,,,,,,,,,,,4096.1663547,,,,,,,,,,4096.1635851,4096.1663547,4096.1663547,4096.1663547,4099.1562819,shoe,j,1.046133899999404,0.1437244999997347,4099.156448000001,4099.156509699999,None,,,,,,,,,,,,,,00062,001,2026-01-19_18h25.43.917,MST_task,2024.2.0,59.92473453334364,2026-01-19 18h25.51.184822 +0530,
,Objects\081a.jpg,177,0,178,,,,,,,j,2.383393200001592,0.2245255999987421,None,,,,,,178,0,177,4099.1729826,,,,,,,,,,,,,,,,,,,,,,,4099.156791799999,4099.1729826,4099.6563194,,,,,,,,,,,,,,4099.6765565,,,,,,,,,,4099.6743074,4099.6765565,4099.6765565,4099.6765565,4102.6568400999995,shoe,j,2.383393200001592,0.2245255999987421,4102.6570163999995,4102.6570803,None,,,,,,,,,,,,,,00062,001,2026-01-19_18h25.43.917,MST_task,2024.2.0,59.92473453334364,2026-01-19 18h25.51.184822 +0530,
,Objects\344a.jpg,178,0,179,,,,,,,j,1.9307361999999557,0.14460700000017823,None,,,,,,179,0,178,4102.6724716,,,,,,,,,,,,,,,,,,,,,,,4102.6573726,4102.6724716,4103.156522300001,,,,,,,,,,,,,,4103.1772111,,,,,,,,,,4103.174455199999,4103.1772111,4103.1772111,4103.1772111,4106.1731075,shoe,j,1.9307361999999557,0.14460700000017823,4106.1732697,4106.173334,None,,,,,,,,,,,,,,00062,001,2026-01-19_18h25.43.917,MST_task,2024.2.0,59.92473453334364,2026-01-19 18h25.51.184822 +0530,
,Objects\227a.jpg,179,0,180,,,,,,,f,1.307994200000394,0.21721809999871766,None,,,,,,180,0,179,4106.189501100001,,,,,,,,,,,,,,,,,,,,,,,4106.1736171,4106.189501100001,4106.6732334,,,,,,,,,,,,,,4106.736227,,,,,,,,,,4106.733709700001,4106.736227,4106.736227,4106.736227,4109.6898909,shoe,f,1.307994200000394,0.21721809999871766,4109.690055599999,4109.6901174,None,,,,,,,,,,,,,,00062,001,2026-01-19_18h25.43.917,MST_task,2024.2.0,59.92473453334364,2026-01-19 18h25.51.184822 +0530,
