Sl_no,image_path,thisN,thisTrialN,thisRepN,key_resp_5.keys,key_resp_5.rt,key_resp_5.duration,key_resp_7.keys,key_resp_7.rt,key_resp_7.duration,key_resp_9.keys,key_resp_9.rt,key_resp_9.duration,key_resp_8.keys,key_resp_8.rt,key_resp_8.duration,practice.thisRepN,practice.thisTrialN,practice.thisN,trials.thisRepN,trials.thisTrialN,trials.thisN,thisRow.t,notes,welcome_page.started,text.started,key_resp.started,welcome_page.stopped,key_resp.keys,key_resp.rt,key_resp.duration,instructions.started,ins.started,key_resp_2.started,instructions.stopped,key_resp_2.keys,key_resp_2.rt,key_resp_2.duration,objects_only_instruction.started,text_3.started,key_resp_3.started,objects_only_instruction.stopped,key_resp_3.keys,key_resp_3.rt,key_resp_3.duration,ISI.started,text_4.started,ISI.stopped,practice_block.started,image.started,key_resp_5.started,text_5.started,practice_block.stopped,practice.key_resp_5.keys,practice.key_resp_5.rt,practice.key_resp_5.duration,indoor_outdoor.started,indoor_outdoor.stopped,practice.key_resp_7.keys,text_4.stopped,image.stopped,key_resp_5.stopped,text_5.stopped,text_7.started,key_resp_7.started,practice.key_resp_7.rt,practice.key_resp_7.duration,practice_to_main.started,text_2.started,key_resp_4.started,practice_to_main.stopped,key_resp_4.keys,key_resp_4.rt,key_resp_4.duration,objects.started,image_2.started,text_9.started,key_resp_9.started,objects.stopped,category,trials.key_resp_9.keys,trials.key_resp_9.rt,trials.key_resp_9.duration,encoding_task.started,encoding_task.stopped,trials.key_resp_8.keys,text_8.started,key_resp_8.started,trials.key_resp_8.rt,trials.key_resp_8.duration,image_2.stopped,text_9.stopped,key_resp_9.stopped,end_experiment.started,text_6.started,key_resp_6.started,end_experiment.stopped,key_resp_6.keys,key_resp_6.rt,key_resp_6.duration,list_of_stimuli,encoding_task_accuracy,participant,session,date,expName,psychopyVersion,frameRate,expStart,
,,,,,,,,,,,,,,,,,,,,,,,,,0.0017268999945372343,0.0038086999993538484,0.0038086999993538484,7.925162700004876,space,7.810300299999653,None,,,,,,,,,,,,,,,,,,,,,,,,,,,,,,,,,,,,,,,,,,,,,,,,,,,,,,,,,,,,,,,,,,,,,,,,00065,001,2026-01-20_11h49.32.082,MST_task,2024.2.0,60.15746818670846,2026-01-20 11h49.50.588456 +0530,
,,,,,,,,,,,,,,,,,,,,,,,,,,,,,,,,7.925248999992618,7.938887299998896,7.938887299998896,45.44991470000241,space,37.50706650000939,None,,,,,,,,,,,,,,,,,,,,,,,,,,,,,,,,,,,,,,,,,,,,,,,,,,,,,,,,,,,,,,,,,00065,001,2026-01-20_11h49.32.082,MST_task,2024.2.0,60.15746818670846,2026-01-20 11h49.50.588456 +0530,
,,,,,,,,,,,,,,,,,,,,,,,,,,,,,,,,,,,,,,,45.450053799999296,45.47069669999473,45.47069669999473,48.36603439999453,space,2.879749300002004,None,,,,,,,,,,,,,,,,,,,,,,,,,,,,,,,,,,,,,,,,,,,,,,,,,,,,,,,,,,00065,001,2026-01-20_11h49.32.082,MST_task,2024.2.0,60.15746818670846,2026-01-20 11h49.50.588456 +0530,
6,practice_images/158a.jpg,0,0,1,j,1.5985811999998987,0.12946440000087023,None,,,,,,,,,1,0,0,,,,48.41390590000083,,,,,,,,,,,,,,,,,,,,,,,48.411223299990525,48.41390590000083,48.881105799999204,48.901945499994326,48.93499759999395,48.93499759999395,48.93499759999395,51.88197319999745,j,1.5985811999998987,0.12946440000087023,51.88509680000425,51.88512150000315,None,,,,,,,,,,,,,,,,,,,,,,,,,,,,,,,,,,,,,,,,,,,,00065,001,2026-01-20_11h49.32.082,MST_task,2024.2.0,60.15746818670846,2026-01-20 11h49.50.588456 +0530,
10,practice_images/182a.jpg,1,1,1,f,1.0493927999923471,0.21548430000257213,None,,,,,,,,,1,1,1,,,,51.8975400999916,,,,,,,,,,,,,,,,,,,,,,,51.88522090000333,51.8975400999916,52.38226840000425,52.394361099999514,52.39760569999635,52.39760569999635,52.39760569999635,55.382050999993226,f,1.0493927999923471,0.21548430000257213,55.38216300000204,55.38221070000145,None,52.39760569999635,55.39762899999914,55.39762899999914,55.39762899999914,,,,,,,,,,,,,,,,,,,,,,,,,,,,,,,,,,,,,,,,00065,001,2026-01-20_11h49.32.082,MST_task,2024.2.0,60.15746818670846,2026-01-20 11h49.50.588456 +0530,
4,practice_images/002b.jpg,2,2,1,f,2.4669690000009723,0.207813700006227,None,,,,,,,,,1,2,2,,,,55.39762899999914,,,,,,,,,,,,,,,,,,,,,,,55.38241140000173,55.39762899999914,55.88222569999925,55.89682029999676,55.89975899999263,55.89975899999263,55.89975899999263,58.897844199993415,f,2.4669690000009723,0.207813700006227,58.89799709999352,58.89806469999894,None,55.89975899999263,,,,,,,,,,,,,,,,,,,,,,,,,,,,,,,,,,,,,,,,,,,00065,001,2026-01-20_11h49.32.082,MST_task,2024.2.0,60.15746818670846,2026-01-20 11h49.50.588456 +0530,
2,practice_images/031a.jpg,3,3,1,f,1.4187693999992916,0.2170477000036044,None,,,,,,,,,1,3,3,,,,58.914351100000204,,,,,,,,,,,,,,,,,,,,,,,58.8983625999972,58.914351100000204,59.398707799991826,59.415638099992066,59.418917899994995,59.418917899994995,59.418917899994995,62.41482150000229,f,1.4187693999992916,0.2170477000036044,62.41497430000163,62.415027199996985,None,59.418917899994995,,,,,,,,,,,,,,,,,,,,,,,,,,,,,,,,,,,,,,,,,,,00065,001,2026-01-20_11h49.32.082,MST_task,2024.2.0,60.15746818670846,2026-01-20 11h49.50.588456 +0530,
5,practice_images/139a.jpg,4,4,1,j,1.2170699999987846,0.16776310000568628,None,,,,,,,,,1,4,4,,,,62.43097410000337,,,,,,,,,,,,,,,,,,,,,,,62.41524249999202,62.43097410000337,62.91560809999646,62.93095999999787,62.93389869999373,62.93389869999373,62.93389869999373,65.93134389999614,j,1.2170699999987846,0.16776310000568628,65.93150690000039,65.93157649999193,None,62.93389869999373,,,,,,,,,,,,,,,,,,,,,,,,,,,,,,,,,,,,,,,,,,,00065,001,2026-01-20_11h49.32.082,MST_task,2024.2.0,60.15746818670846,2026-01-20 11h49.50.588456 +0530,
7,practice_images/166a.jpg,5,5,1,None,,,j,0.07858280000800733,None,,,,,,,1,5,5,,,,65.94763830000011,,,,,,,,,,,,,,,,,,,,,,,65.93187770000077,65.94763830000011,66.43195840000408,66.45507260000159,66.45717359999253,66.45717359999253,66.45717359999253,69.4479502000031,None,,,69.45306119999441,69.54939109999395,j,66.45717359999253,,,,69.46434649999719,69.46434649999719,0.07858280000800733,None,,,,,,,,,,,,,,,,,,,,,,,,,,,,,,,,,,,,00065,001,2026-01-20_11h49.32.082,MST_task,2024.2.0,60.15746818670846,2026-01-20 11h49.50.588456 +0530,
1,practice_images/013a.jpg,6,6,1,j,1.9667809999955352,0.17576300000655465,None,,,,,,,,,1,6,6,,,,69.56434749999607,,,,,,,,,,,,,,,,,,,,,,,69.54977009999857,69.56434749999607,70.04895199999737,70.06825250000111,70.07139389999793,70.07139389999793,70.07139389999793,73.0650209000014,j,1.9667809999955352,0.17576300000655465,73.06515789999685,73.06521539999812,None,70.07139389999793,,,,,,,,,,,,,,,,,,,,,,,,,,,,,,,,,,,,,,,,,,,00065,001,2026-01-20_11h49.32.082,MST_task,2024.2.0,60.15746818670846,2026-01-20 11h49.50.588456 +0530,
3,practice_images/037a.jpg,7,7,1,f,2.4929656999884173,0.16831310000270605,None,,,,,,,,,1,7,7,,,,73.08091699999932,,,,,,,,,,,,,,,,,,,,,,,73.06546199999866,73.08091699999932,73.56575090000115,73.58200149999175,73.5857726999966,73.5857726999966,73.5857726999966,76.58133970000199,f,2.4929656999884173,0.16831310000270605,76.58150250000472,76.5815736999939,None,73.5857726999966,,,,,,,,,,,,,,,,,,,,,,,,,,,,,,,,,,,,,,,,,,,00065,001,2026-01-20_11h49.32.082,MST_task,2024.2.0,60.15746818670846,2026-01-20 11h49.50.588456 +0530,
9,practice_images/180a.jpg,8,8,1,j,0.9593037000013283,0.15132360000279732,None,,,,,,,,,1,8,8,,,,76.59789769999043,,,,,,,,,,,,,,,,,,,,,,,76.58182579999266,76.59789769999043,77.08207299999776,77.10047979999217,77.10362239999813,77.10362239999813,77.10362239999813,80.09810309999739,j,0.9593037000013283,0.15132360000279732,80.09826549999707,80.09832109999843,None,77.10362239999813,,,,,,,,,,,,,,,,,,,,,,,,,,,,,,,,,,,,,,,,,,,00065,001,2026-01-20_11h49.32.082,MST_task,2024.2.0,60.15746818670846,2026-01-20 11h49.50.588456 +0530,
8,practice_images/178a.jpg,9,9,1,f,1.599540800001705,0.19129579998843838,None,,,,,,,,,1,9,9,,,,80.11442460000399,,,,,,,,,,,,,,,,,,,,,,,80.09854279999854,80.11442460000399,80.59907229999953,80.61123229999794,80.6152940000029,80.6152940000029,80.6152940000029,83.59904810000444,f,1.599540800001705,0.19129579998843838,83.59917770000175,83.59922209999058,None,80.6152940000029,83.61413159999938,83.61413159999938,83.61413159999938,,,,,,,,,,,,,,,,,,,,,,,,,,,,,,,,,,,,,,,,00065,001,2026-01-20_11h49.32.082,MST_task,2024.2.0,60.15746818670846,2026-01-20 11h49.50.588456 +0530,
,,,,,,,,,,,,,,,,,,,,,,,,,,,,,,,,,,,,,,,,,,,,,,,,,,,,,,,,,,,,,,,,,,,,83.59937499999069,83.61413159999938,83.61413159999938,91.7160184999957,space,8.087497999993502,None,,,,,,,,,,,,,,,,,,,,,,,,,,,,,00065,001,2026-01-20_11h49.32.082,MST_task,2024.2.0,60.15746818670846,2026-01-20 11h49.50.588456 +0530,
,Objects\019a.jpg,0,0,1,,,,,,,j,2.773631399992155,0.16094080000766553,None,,,,,,1,0,0,91.7311478999909,,,,,,,,,,,,,,,,,,,,,,,91.71876699999848,91.7311478999909,92.21520910000254,,,,,,,,,,,,92.2480399999913,,,,,,,,,,,,,,,92.2444564000034,92.2480399999913,92.2480399999913,92.2480399999913,95.23159670000314,shoe,j,2.773631399992155,0.16094080000766553,95.23726090000127,95.23732459999155,None,,,,,,,,,,,,,,,,,00065,001,2026-01-20_11h49.32.082,MST_task,2024.2.0,60.15746818670846,2026-01-20 11h49.50.588456 +0530,
,Objects\027a.jpg,1,0,2,,,,,,,f,1.5155452999897534,0.1527776000002632,None,,,,,,2,0,1,95.24770530000387,,,,,,,,,,,,,,,,,,,,,,,95.23756880000292,95.24770530000387,95.73233270000492,,,,,,,,,,,,95.7541285000043,,,,,,,,,,,,,,,95.75125269999262,95.7541285000043,95.7541285000043,95.7541285000043,98.74807489999512,shoe,f,1.5155452999897534,0.1527776000002632,98.748256699997,98.74832709999464,None,,,,,,,,,,,,,,,,,00065,001,2026-01-20_11h49.32.082,MST_task,2024.2.0,60.15746818670846,2026-01-20 11h49.50.588456 +0530,
,Objects\084a.jpg,2,0,3,,,,,,,f,2.461661200009985,0.16750939999474213,None,,,,,,3,0,2,98.76449339999817,,,,,,,,,,,,,,,,,,,,,,,98.74864249999519,98.76449339999817,99.24860599999374,,,,,,,,,,,,99.2730969999975,,,,,,,,,,,,,,,99.26955899999302,99.2730969999975,99.2730969999975,99.2730969999975,102.26484770000388,shoe,f,2.461661200009985,0.16750939999474213,102.26503979999688,102.2651091000007,None,,,,,,,,,,,,,,,,,00065,001,2026-01-20_11h49.32.082,MST_task,2024.2.0,60.15746818670846,2026-01-20 11h49.50.588456 +0530,
,Objects\373a.jpg,3,0,4,,,,,,,j,1.178461100003915,0.16713380000146572,None,,,,,,4,0,3,102.28106779999507,,,,,,,,,,,,,,,,,,,,,,,102.26544859999558,102.28106779999507,102.76563569999416,,,,,,,,,,,,102.78790830000071,,,,,,,,,,,,,,,102.78480589999526,102.78790830000071,102.78790830000071,102.78790830000071,105.76537710000412,shoe,j,1.178461100003915,0.16713380000146572,105.76548879999609,105.76553150000109,None,,,,,,,,,,,,,,,,,00065,001,2026-01-20_11h49.32.082,MST_task,2024.2.0,60.15746818670846,2026-01-20 11h49.50.588456 +0530,
,Objects\244a.jpg,4,0,5,,,,,,,None,,,f,0.1721069999912288,None,,,,5,0,4,105.78095709999616,,,,,,,,,,,,,,,,,,,,,,,105.7657967999985,105.78095709999616,106.26563090000127,,,,,,,,,,,,106.28467300000193,,,,,,,,,,,,,,,106.2815808000014,106.28467300000193,106.28467300000193,106.28467300000193,109.2819129999989,shoe,None,,,109.28205379999417,109.48279259999981,f,109.29758990000119,109.29758990000119,0.1721069999912288,None,,,,,,,,,,,,,00065,001,2026-01-20_11h49.32.082,MST_task,2024.2.0,60.15746818670846,2026-01-20 11h49.50.588456 +0530,
,Objects\140a.jpg,5,0,6,,,,,,,j,2.1085931999987224,0.14418750000186265,None,,,,,,6,0,5,109.49782530000084,,,,,,,,,,,,,,,,,,,,,,,109.48306099999172,109.49782530000084,109.98207279999042,,,,,,,,,,,,110.0021415999945,,,,,,,,,,,,,,,109.99920720000227,110.0021415999945,110.0021415999945,110.0021415999945,112.99797820000094,shoe,j,2.1085931999987224,0.14418750000186265,112.99810929999512,112.99815839999064,None,,,,,,,,,,,,,,,,,00065,001,2026-01-20_11h49.32.082,MST_task,2024.2.0,60.15746818670846,2026-01-20 11h49.50.588456 +0530,
,Objects\204a.jpg,6,0,7,,,,,,,f,1.463503099992522,0.1753008000086993,None,,,,,,7,0,6,113.01442469999893,,,,,,,,,,,,,,,,,,,,,,,112.99837899999693,113.01442469999893,113.49878199999512,,,,,,,,,,,,113.56783099999302,,,,,,,,,,,,,,,113.56423089999589,113.56783099999302,113.56783099999302,113.56783099999302,116.5146742999932,shoe,f,1.463503099992522,0.1753008000086993,116.51484219999111,116.5148865999945,None,,,,,,,,,,,,,,,,,00065,001,2026-01-20_11h49.32.082,MST_task,2024.2.0,60.15746818670846,2026-01-20 11h49.50.588456 +0530,
,Objects\081a.jpg,7,0,8,,,,,,,f,2.48510730000271,0.19292689999565482,None,,,,,,8,0,7,116.53115549999347,,,,,,,,,,,,,,,,,,,,,,,116.51509200000146,116.53115549999347,117.01554209999449,,,,,,,,,,,,117.04045659999247,,,,,,,,,,,,,,,117.03695199999493,117.04045659999247,117.04045659999247,117.04045659999247,120.0315888000041,indoor,f,2.48510730000271,0.19292689999565482,120.03547419999086,120.03550660000474,None,,,,,,,,,,,,,,,,,00065,001,2026-01-20_11h49.32.082,MST_task,2024.2.0,60.15746818670846,2026-01-20 11h49.50.588456 +0530,
,Objects\210a.jpg,8,0,9,,,,,,,j,1.1499489999987418,0.17536209999525454,None,,,,,,9,0,8,120.04769110000052,,,,,,,,,,,,,,,,,,,,,,,120.03563469999062,120.04769110000052,120.53210070000205,,,,,,,,,,,,120.55327289999695,,,,,,,,,,,,,,,120.54995559999952,120.55327289999695,120.55327289999695,120.55327289999695,123.54795279999962,indoor,j,1.1499489999987418,0.17536209999525454,123.54813490000379,123.5482076999906,None,,,,,,,,,,,,,,,,,00065,001,2026-01-20_11h49.32.082,MST_task,2024.2.0,60.15746818670846,2026-01-20 11h49.50.588456 +0530,
,Objects\164a.jpg,9,0,10,,,,,,,j,1.8573434999998426,0.15187109999533277,None,,,,,,10,0,9,123.56423419999192,,,,,,,,,,,,,,,,,,,,,,,123.54852169999504,123.56423419999192,124.04892970000219,,,,,,,,,,,,124.0695904000022,,,,,,,,,,,,,,,124.06661769999482,124.0695904000022,124.0695904000022,124.0695904000022,127.06465339999704,indoor,j,1.8573434999998426,0.15187109999533277,127.06486030000087,127.06493130000308,None,,,,,,,,,,,,,,,,,00065,001,2026-01-20_11h49.32.082,MST_task,2024.2.0,60.15746818670846,2026-01-20 11h49.50.588456 +0530,
,Objects\093a.jpg,10,0,11,,,,,,,f,1.8644150000036461,0.12908759999845643,None,,,,,,11,0,10,127.08180289999291,,,,,,,,,,,,,,,,,,,,,,,127.0652465000021,127.08180289999291,127.56577370000014,,,,,,,,,,,,127.5892795999971,,,,,,,,,,,,,,,127.58653479999339,127.5892795999971,127.5892795999971,127.5892795999971,130.58165320000262,indoor,f,1.8644150000036461,0.12908759999845643,130.58184139999503,130.5819130000018,None,,,,,,,,,,,,,,,,,00065,001,2026-01-20_11h49.32.082,MST_task,2024.2.0,60.15746818670846,2026-01-20 11h49.50.588456 +0530,
,Objects\248a.jpg,11,0,12,,,,,,,f,1.306846299994504,0.1445125000027474,None,,,,,,12,0,11,130.59751019999385,,,,,,,,,,,,,,,,,,,,,,,130.5822208000027,130.59751019999385,131.08213239999895,,,,,,,,,,,,131.107279799995,,,,,,,,,,,,,,,131.1017453999957,131.107279799995,131.107279799995,131.107279799995,134.09807629999705,indoor,f,1.306846299994504,0.1445125000027474,134.09821589999774,134.0982670999947,None,,,,,,,,,,,,,,,,,00065,001,2026-01-20_11h49.32.082,MST_task,2024.2.0,60.15746818670846,2026-01-20 11h49.50.588456 +0530,
,Objects\021a.jpg,12,0,13,,,,,,,f,2.874997999999323,None,None,,,,,,13,0,12,134.11433519999264,,,,,,,,,,,,,,,,,,,,,,,134.09850439999718,134.11433519999264,134.5987252999912,,,,,,,,,,,,134.619526399998,,,,,,,,,,,,,,,134.6164987999946,134.619526399998,134.619526399998,134.619526399998,137.614585599993,indoor,f,2.874997999999323,None,137.6147004999948,137.61474219999218,None,,,,,,,,,,,,,,,,,00065,001,2026-01-20_11h49.32.082,MST_task,2024.2.0,60.15746818670846,2026-01-20 11h49.50.588456 +0530,
,Objects\257a.jpg,13,0,14,,,,,,,None,,,f,4.291434200000367,None,,,,14,0,13,137.63117999999668,,,,,,,,,,,,,,,,,,,,,,,137.61493379999592,137.63117999999668,138.11557139999059,,,,,,,,,,,,138.13593049999326,,,,,,,,,,,,,,,138.1328863999952,138.13593049999326,138.13593049999326,138.13593049999326,141.13144369999645,indoor,None,,,141.13159219999216,145.44892219999747,f,141.14742969999497,141.14742969999497,4.291434200000367,None,,,,,,,,,,,,,00065,001,2026-01-20_11h49.32.082,MST_task,2024.2.0,60.15746818670846,2026-01-20 11h49.50.588456 +0530,
,Objects\105a.jpg,14,0,15,,,,,,,j,1.7446563999983482,0.16856099999858998,None,,,,,,15,0,14,145.46430609999516,,,,,,,,,,,,,,,,,,,,,,,145.449203199998,145.46430609999516,145.94870729999093,,,,,,,,,,,,145.9972914999962,,,,,,,,,,,,,,,145.99440969999705,145.9972914999962,145.9972914999962,145.9972914999962,148.96491139999125,shoe,j,1.7446563999983482,0.16856099999858998,148.9687156,148.96875060000457,None,,,,,,,,,,,,,,,,,00065,001,2026-01-20_11h49.32.082,MST_task,2024.2.0,60.15746818670846,2026-01-20 11h49.50.588456 +0530,
,Objects\219a.jpg,15,0,16,,,,,,,None,,,f,0.7965511999937007,None,,,,16,0,15,148.980836799994,,,,,,,,,,,,,,,,,,,,,,,148.9688901999907,148.980836799994,149.465346099998,,,,,,,,,,,,149.49179279999225,,,,,,,,,,,,,,,149.48727539999527,149.49179279999225,149.49179279999225,149.49179279999225,152.48135839999304,shoe,None,,,152.4815183000028,153.2993301999959,f,152.49799249999342,152.49799249999342,0.7965511999937007,None,,,,,,,,,,,,,00065,001,2026-01-20_11h49.32.082,MST_task,2024.2.0,60.15746818670846,2026-01-20 11h49.50.588456 +0530,
,Objects\377a.jpg,16,0,17,,,,,,,None,,,j,0.030915600000298582,None,,,,17,0,16,153.31431390000216,,,,,,,,,,,,,,,,,,,,,,,153.2996684999962,153.31431390000216,153.7989205999911,,,,,,,,,,,,153.8180008999916,,,,,,,,,,,,,,,153.81526479999593,153.8180008999916,153.8180008999916,153.8180008999916,156.81462560000364,shoe,None,,,156.8147350999934,156.86602129999665,j,156.83134180000343,156.83134180000343,0.030915600000298582,None,,,,,,,,,,,,,00065,001,2026-01-20_11h49.32.082,MST_task,2024.2.0,60.15746818670846,2026-01-20 11h49.50.588456 +0530,
,Objects\314a.jpg,17,0,18,,,,,,,f,2.1863356999965617,0.14378769999893848,None,,,,,,18,0,17,156.88102549999894,,,,,,,,,,,,,,,,,,,,,,,156.86640640000405,156.88102549999894,157.36543730000267,,,,,,,,,,,,157.3961588999955,,,,,,,,,,,,,,,157.3933498999977,157.3961588999955,157.3961588999955,157.3961588999955,160.3815365999908,shoe,f,2.1863356999965617,0.14378769999893848,160.38167350000003,160.38172619999386,None,,,,,,,,,,,,,,,,,00065,001,2026-01-20_11h49.32.082,MST_task,2024.2.0,60.15746818670846,2026-01-20 11h49.50.588456 +0530,
,Objects\049a.jpg,18,0,19,,,,,,,None,,,j,0.6773029000032693,None,,,,19,0,18,160.39772660000017,,,,,,,,,,,,,,,,,,,,,,,160.38196159999643,160.39772660000017,160.88189710000006,,,,,,,,,,,,160.90332329999364,,,,,,,,,,,,,,,160.90052680000372,160.90332329999364,160.90332329999364,160.90332329999364,163.89791780000087,shoe,None,,,163.89806910000334,164.59949729999062,j,163.91409849999764,163.91409849999764,0.6773029000032693,None,,,,,,,,,,,,,00065,001,2026-01-20_11h49.32.082,MST_task,2024.2.0,60.15746818670846,2026-01-20 11h49.50.588456 +0530,
,Objects\336a.jpg,19,0,20,,,,,,,f,1.325626599995303,0.19156099999963772,None,,,,,,20,0,19,164.61453939999046,,,,,,,,,,,,,,,,,,,,,,,164.5998064000014,164.61453939999046,165.09889169999224,,,,,,,,,,,,165.15307509999548,,,,,,,,,,,,,,,165.15018549999513,165.15307509999548,165.15307509999548,165.15307509999548,168.1146516000008,shoe,f,1.325626599995303,0.19156099999963772,168.11483350000344,168.11490539999795,None,,,,,,,,,,,,,,,,,00065,001,2026-01-20_11h49.32.082,MST_task,2024.2.0,60.15746818670846,2026-01-20 11h49.50.588456 +0530,
,Objects\217a.jpg,20,0,21,,,,,,,f,1.7783649000048172,0.1994462000002386,None,,,,,,21,0,20,168.13104259999818,,,,,,,,,,,,,,,,,,,,,,,168.11520569999993,168.13104259999818,168.6153095000045,,,,,,,,,,,,168.63630260000355,,,,,,,,,,,,,,,168.63305289999698,168.63630260000355,168.63630260000355,168.63630260000355,171.63114489999134,shoe,f,1.7783649000048172,0.1994462000002386,171.63125009999203,171.63128669999423,None,,,,,,,,,,,,,,,,,00065,001,2026-01-20_11h49.32.082,MST_task,2024.2.0,60.15746818670846,2026-01-20 11h49.50.588456 +0530,
,Objects\333a.jpg,21,0,22,,,,,,,f,0.9551164000004064,0.18347089999588206,None,,,,,,22,0,21,171.64800939999986,,,,,,,,,,,,,,,,,,,,,,,171.6314560000028,171.64800939999986,172.13182470000174,,,,,,,,,,,,172.15508569999656,,,,,,,,,,,,,,,172.1512337000022,172.15508569999656,172.15508569999656,172.15508569999656,175.14790470000298,indoor,f,0.9551164000004064,0.18347089999588206,175.15108179999515,175.15112310000404,None,,,,,,,,,,,,,,,,,00065,001,2026-01-20_11h49.32.082,MST_task,2024.2.0,60.15746818670846,2026-01-20 11h49.50.588456 +0530,
,Objects\133a.jpg,22,0,23,,,,,,,j,1.1283643999922788,0.16826400000718422,None,,,,,,23,0,22,175.1645617000031,,,,,,,,,,,,,,,,,,,,,,,175.15128520000144,175.1645617000031,175.64872290000494,,,,,,,,,,,,175.66963530000066,,,,,,,,,,,,,,,175.66671499999939,175.66963530000066,175.66963530000066,175.66963530000066,178.66490020000492,indoor,j,1.1283643999922788,0.16826400000718422,178.66506590000063,178.66511809999065,None,,,,,,,,,,,,,,,,,00065,001,2026-01-20_11h49.32.082,MST_task,2024.2.0,60.15746818670846,2026-01-20 11h49.50.588456 +0530,
,Objects\289a.jpg,23,0,24,,,,,,,f,2.57250940000813,0.1837016999925254,None,,,,,,24,0,23,178.6812166000018,,,,,,,,,,,,,,,,,,,,,,,178.66538740000397,178.6812166000018,179.16575669999293,,,,,,,,,,,,179.20268239999132,,,,,,,,,,,,,,,179.19954169999983,179.20268239999132,179.20268239999132,179.20268239999132,182.18139440000232,indoor,f,2.57250940000813,0.1837016999925254,182.18148909999582,182.18155199999455,None,,,,,,,,,,,,,,,,,00065,001,2026-01-20_11h49.32.082,MST_task,2024.2.0,60.15746818670846,2026-01-20 11h49.50.588456 +0530,
,Objects\015a.jpg,24,0,25,,,,,,,None,,,j,1.6606289999908768,None,,,,25,0,24,182.1976888999925,,,,,,,,,,,,,,,,,,,,,,,182.1818009999988,182.1976888999925,182.6821168000024,,,,,,,,,,,,182.724260899995,,,,,,,,,,,,,,,182.72134069999447,182.724260899995,182.724260899995,182.724260899995,185.68191260000458,indoor,None,,,185.68206459999783,187.36637129999872,j,185.69800889999897,185.69800889999897,1.6606289999908768,None,,,,,,,,,,,,,00065,001,2026-01-20_11h49.32.082,MST_task,2024.2.0,60.15746818670846,2026-01-20 11h49.50.588456 +0530,
,Objects\240a.jpg,25,0,26,,,,,,,f,2.2905594000039855,0.19084419999853708,None,,,,,,26,0,25,187.3809307999909,,,,,,,,,,,,,,,,,,,,,,,187.36675639999157,187.3809307999909,187.86532070000248,,,,,,,,,,,,187.88406640000176,,,,,,,,,,,,,,,187.8808696999913,187.88406640000176,187.88406640000176,187.88406640000176,190.8813317000022,indoor,f,2.2905594000039855,0.19084419999853708,190.88151659999858,190.881595999992,None,,,,,,,,,,,,,,,,,00065,001,2026-01-20_11h49.32.082,MST_task,2024.2.0,60.15746818670846,2026-01-20 11h49.50.588456 +0530,
,Objects\184a.jpg,26,0,27,,,,,,,j,2.2767115000024205,0.16857579999486916,None,,,,,,27,0,26,190.8977734999935,,,,,,,,,,,,,,,,,,,,,,,190.88182329999108,190.8977734999935,191.38210299999628,,,,,,,,,,,,191.40091860000393,,,,,,,,,,,,,,,191.397905299993,191.40091860000393,191.40091860000393,191.40091860000393,194.39787420000357,indoor,j,2.2767115000024205,0.16857579999486916,194.397985100004,194.39802130000317,None,,,,,,,,,,,,,,,,,00065,001,2026-01-20_11h49.32.082,MST_task,2024.2.0,60.15746818670846,2026-01-20 11h49.50.588456 +0530,
,Objects\028a.jpg,27,0,28,,,,,,,f,1.0657222000008915,0.19244739999703597,None,,,,,,28,0,27,194.4143599999952,,,,,,,,,,,,,,,,,,,,,,,194.39819089999946,194.4143599999952,194.8981965999992,,,,,,,,,,,,194.91609149999567,,,,,,,,,,,,,,,194.91341919999104,194.91609149999567,194.91609149999567,194.91609149999567,197.91506309999386,indoor,f,1.0657222000008915,0.19244739999703597,197.91524079999363,197.91531060000125,None,,,,,,,,,,,,,,,,,00065,001,2026-01-20_11h49.32.082,MST_task,2024.2.0,60.15746818670846,2026-01-20 11h49.50.588456 +0530,
,Objects\174a.jpg,28,0,29,,,,,,,j,1.2628652999992482,0.19897840000339784,None,,,,,,29,0,28,197.93102499999804,,,,,,,,,,,,,,,,,,,,,,,197.91561389999697,197.93102499999804,198.41546589999052,,,,,,,,,,,,198.4557272999955,,,,,,,,,,,,,,,198.45244880000246,198.4557272999955,198.4557272999955,198.4557272999955,201.4314422000025,shoe,j,1.2628652999992482,0.19897840000339784,201.43639259999327,201.43641369999386,None,,,,,,,,,,,,,,,,,00065,001,2026-01-20_11h49.32.082,MST_task,2024.2.0,60.15746818670846,2026-01-20 11h49.50.588456 +0530,
,Objects\235a.jpg,29,0,30,,,,,,,j,2.040111700000125,0.15131340001244098,None,,,,,,30,0,29,201.44764810000197,,,,,,,,,,,,,,,,,,,,,,,201.4365489000047,201.44764810000197,201.9319528999913,,,,,,,,,,,,201.95067959999142,,,,,,,,,,,,,,,201.9473205999966,201.95067959999142,201.95067959999142,201.95067959999142,204.94816040000296,shoe,j,2.040111700000125,0.15131340001244098,204.94835949999106,204.94843059999403,None,,,,,,,,,,,,,,,,,00065,001,2026-01-20_11h49.32.082,MST_task,2024.2.0,60.15746818670846,2026-01-20 11h49.50.588456 +0530,
,Objects\337a.jpg,30,0,31,,,,,,,j,1.7774550000031013,0.18453270000463817,None,,,,,,31,0,30,204.96466309999232,,,,,,,,,,,,,,,,,,,,,,,204.94865930000378,204.96466309999232,205.44870829999854,,,,,,,,,,,,205.46805939999467,,,,,,,,,,,,,,,205.4652114999917,205.46805939999467,205.46805939999467,205.46805939999467,208.4649061999953,shoe,j,1.7774550000031013,0.18453270000463817,208.46503710000252,208.46508670000185,None,,,,,,,,,,,,,,,,,00065,001,2026-01-20_11h49.32.082,MST_task,2024.2.0,60.15746818670846,2026-01-20 11h49.50.588456 +0530,
,Objects\301a.jpg,31,0,32,,,,,,,None,,,j,0.19266449999122415,None,,,,32,0,31,208.4809105000022,,,,,,,,,,,,,,,,,,,,,,,208.46530519999214,208.4809105000022,208.96552979999979,,,,,,,,,,,,208.9853790999914,,,,,,,,,,,,,,,208.98224640000262,208.9853790999914,208.9853790999914,208.9853790999914,211.9816160999908,shoe,None,,,211.98172490000434,212.19952949999424,j,211.9977818999905,211.9977818999905,0.19266449999122415,None,,,,,,,,,,,,,00065,001,2026-01-20_11h49.32.082,MST_task,2024.2.0,60.15746818670846,2026-01-20 11h49.50.588456 +0530,
,Objects\322a.jpg,32,0,33,,,,,,,None,,,f,0.0031512999994447455,None,,,,33,0,32,212.2144793000043,,,,,,,,,,,,,,,,,,,,,,,212.1997291000007,212.2144793000043,212.69871579999744,,,,,,,,,,,,212.71801939999568,,,,,,,,,,,,,,,212.71504599999753,212.71801939999568,212.71801939999568,212.71801939999568,215.71455639999476,shoe,None,,,215.7147213999997,215.74982559999626,f,215.7308420999907,215.7308420999907,0.0031512999994447455,None,,,,,,,,,,,,,00065,001,2026-01-20_11h49.32.082,MST_task,2024.2.0,60.15746818670846,2026-01-20 11h49.50.588456 +0530,
,Objects\256a.jpg,33,0,34,,,,,,,j,1.1059256000007736,0.14253749999625143,None,,,,,,34,0,33,215.76435189999756,,,,,,,,,,,,,,,,,,,,,,,215.75007729999197,215.76435189999756,216.24952610000037,,,,,,,,,,,,216.2689451000042,,,,,,,,,,,,,,,216.2661880999949,216.2689451000042,216.2689451000042,216.2689451000042,219.26490829999966,shoe,j,1.1059256000007736,0.14253749999625143,219.2650888999924,219.26516090000223,None,,,,,,,,,,,,,,,,,00065,001,2026-01-20_11h49.32.082,MST_task,2024.2.0,60.15746818670846,2026-01-20 11h49.50.588456 +0530,
,Objects\259a.jpg,34,0,35,,,,,,,j,2.821346099997754,0.12044389999937266,None,,,,,,35,0,34,219.28100079999422,,,,,,,,,,,,,,,,,,,,,,,219.2654773999966,219.28100079999422,219.76527899999928,,,,,,,,,,,,219.78485809999984,,,,,,,,,,,,,,,219.78138949999993,219.78485809999984,219.78485809999984,219.78485809999984,222.7813371999946,shoe,j,2.821346099997754,0.12044389999937266,222.781444799999,222.7814842999942,None,,,,,,,,,,,,,,,,,00065,001,2026-01-20_11h49.32.082,MST_task,2024.2.0,60.15746818670846,2026-01-20 11h49.50.588456 +0530,
,Objects\064a.jpg,35,0,36,,,,,,,f,0.829443499998888,0.1445705999940401,None,,,,,,36,0,35,222.79771070000425,,,,,,,,,,,,,,,,,,,,,,,222.78166789999523,222.79771070000425,223.28201189999527,,,,,,,,,,,,223.3046420000028,,,,,,,,,,,,,,,223.30117690000043,223.3046420000028,223.3046420000028,223.3046420000028,226.29802659999405,indoor,f,0.829443499998888,0.1445705999940401,226.3013193999941,226.30133919999935,None,,,,,,,,,,,,,,,,,00065,001,2026-01-20_11h49.32.082,MST_task,2024.2.0,60.15746818670846,2026-01-20 11h49.50.588456 +0530,
,Objects\352a.jpg,36,0,37,,,,,,,f,1.2131616999977268,0.19927840000309516,None,,,,,,37,0,36,226.31440600000496,,,,,,,,,,,,,,,,,,,,,,,226.3014220000041,226.31440600000496,226.79863289999776,,,,,,,,,,,,226.81806039999356,,,,,,,,,,,,,,,226.81543170000077,226.81806039999356,226.81806039999356,226.81806039999356,229.81475769999088,indoor,f,1.2131616999977268,0.19927840000309516,229.81493130000308,229.81498579999607,None,,,,,,,,,,,,,,,,,00065,001,2026-01-20_11h49.32.082,MST_task,2024.2.0,60.15746818670846,2026-01-20 11h49.50.588456 +0530,
,Objects\265a.jpg,37,0,38,,,,,,,j,1.5419561000016984,0.16025830000580754,None,,,,,,38,0,37,229.83086309999635,,,,,,,,,,,,,,,,,,,,,,,229.81525899999542,229.83086309999635,230.3154835000023,,,,,,,,,,,,230.33600789999764,,,,,,,,,,,,,,,230.33340190000308,230.33600789999764,230.33600789999764,230.33600789999764,233.3313635999948,indoor,j,1.5419561000016984,0.16025830000580754,233.33153250000032,233.33158019999973,None,,,,,,,,,,,,,,,,,00065,001,2026-01-20_11h49.32.082,MST_task,2024.2.0,60.15746818670846,2026-01-20 11h49.50.588456 +0530,
,Objects\313a.jpg,38,0,39,,,,,,,j,2.2289515000011306,0.15928059999714606,None,,,,,,39,0,38,233.34780259999388,,,,,,,,,,,,,,,,,,,,,,,233.33179889999155,233.34780259999388,233.83189739999943,,,,,,,,,,,,233.84962870000163,,,,,,,,,,,,,,,233.84697739999683,233.84962870000163,233.84962870000163,233.84962870000163,236.84806989999197,indoor,j,2.2289515000011306,0.15928059999714606,236.84819160000188,236.84823669999605,None,,,,,,,,,,,,,,,,,00065,001,2026-01-20_11h49.32.082,MST_task,2024.2.0,60.15746818670846,2026-01-20 11h49.50.588456 +0530,
,Objects\069a.jpg,39,0,40,,,,,,,j,0.8067246999999043,0.16825889999745414,None,,,,,,40,0,39,236.8642947999906,,,,,,,,,,,,,,,,,,,,,,,236.8484441000037,236.8642947999906,237.34867569999187,,,,,,,,,,,,237.39977910000016,,,,,,,,,,,,,,,237.3969303999911,237.39977910000016,237.39977910000016,237.39977910000016,240.36464450000494,indoor,j,0.8067246999999043,0.16825889999745414,240.3648206999933,240.36488539999118,None,,,,,,,,,,,,,,,,,00065,001,2026-01-20_11h49.32.082,MST_task,2024.2.0,60.15746818670846,2026-01-20 11h49.50.588456 +0530,
,Objects\023a.jpg,40,0,41,,,,,,,f,1.438683200001833,0.22457059999578632,None,,,,,,41,0,40,240.3808785000001,,,,,,,,,,,,,,,,,,,,,,,240.3651763999951,240.3808785000001,240.8654819999938,,,,,,,,,,,,240.92671079999127,,,,,,,,,,,,,,,240.9231918000005,240.92671079999127,240.92671079999127,240.92671079999127,243.88173729999107,indoor,f,1.438683200001833,0.22457059999578632,243.88188000000082,243.88192889999482,None,,,,,,,,,,,,,,,,,00065,001,2026-01-20_11h49.32.082,MST_task,2024.2.0,60.15746818670846,2026-01-20 11h49.50.588456 +0530,
,Objects\138a.jpg,41,0,42,,,,,,,j,1.0224444000050426,0.18377799999143463,None,,,,,,42,0,41,243.89818459999515,,,,,,,,,,,,,,,,,,,,,,,243.88213769999857,243.89818459999515,244.38217179999629,,,,,,,,,,,,244.42475459999696,,,,,,,,,,,,,,,244.4217110000027,244.42475459999696,244.42475459999696,244.42475459999696,247.3980278999952,indoor,j,1.0224444000050426,0.18377799999143463,247.39819530000386,247.3982379999943,None,,,,,,,,,,,,,,,,,00065,001,2026-01-20_11h49.32.082,MST_task,2024.2.0,60.15746818670846,2026-01-20 11h49.50.588456 +0530,
,Objects\051a.jpg,42,0,43,,,,,,,j,2.0106550000054995,0.15224840000155382,None,,,,,,43,0,42,247.41434249999293,,,,,,,,,,,,,,,,,,,,,,,247.39843240000482,247.41434249999293,247.89887649999582,,,,,,,,,,,,247.93901180000103,,,,,,,,,,,,,,,247.93592029999127,247.93901180000103,247.93901180000103,247.93901180000103,250.91474929999094,shoe,j,2.0106550000054995,0.15224840000155382,250.9187072999921,250.9187544000015,None,,,,,,,,,,,,,,,,,00065,001,2026-01-20_11h49.32.082,MST_task,2024.2.0,60.15746818670846,2026-01-20 11h49.50.588456 +0530,
,Objects\197a.jpg,43,0,44,,,,,,,j,1.2597432999900775,0.16822849999880418,None,,,,,,44,0,43,250.9308777999977,,,,,,,,,,,,,,,,,,,,,,,250.91888240000117,250.9308777999977,251.41568720000214,,,,,,,,,,,,251.45815829999628,,,,,,,,,,,,,,,251.45445089999703,251.45815829999628,251.45815829999628,251.45815829999628,254.4314114000008,shoe,j,1.2597432999900775,0.16822849999880418,254.4315435000026,254.43158720000065,None,,,,,,,,,,,,,,,,,00065,001,2026-01-20_11h49.32.082,MST_task,2024.2.0,60.15746818670846,2026-01-20 11h49.50.588456 +0530,
,Objects\354a.jpg,44,0,45,,,,,,,f,1.435824699990917,0.19984880000993144,None,,,,,,45,0,44,254.4479954999988,,,,,,,,,,,,,,,,,,,,,,,254.4318723000033,254.4479954999988,254.93244940000295,,,,,,,,,,,,254.99556799999846,,,,,,,,,,,,,,,254.99233399999503,254.99556799999846,254.99556799999846,254.99556799999846,257.93189350000466,shoe,f,1.435824699990917,0.19984880000993144,257.9320538000029,257.9320943999919,None,,,,,,,,,,,,,,,,,00065,001,2026-01-20_11h49.32.082,MST_task,2024.2.0,60.15746818670846,2026-01-20 11h49.50.588456 +0530,
,Objects\070a.jpg,45,0,46,,,,,,,f,1.1706966000056127,0.19975410000188276,None,,,,,,46,0,45,257.94760600000154,,,,,,,,,,,,,,,,,,,,,,,257.9323474999983,257.94760600000154,258.432144099992,,,,,,,,,,,,258.45201399999496,,,,,,,,,,,,,,,258.4487372000003,258.45201399999496,258.45201399999496,258.45201399999496,261.4487522999989,shoe,f,1.1706966000056127,0.19975410000188276,261.4489309999917,261.4490020999947,None,,,,,,,,,,,,,,,,,00065,001,2026-01-20_11h49.32.082,MST_task,2024.2.0,60.15746818670846,2026-01-20 11h49.50.588456 +0530,
,Objects\238a.jpg,46,0,47,,,,,,,j,1.8732516000018222,0.1744782000023406,None,,,,,,47,0,46,261.46447449999687,,,,,,,,,,,,,,,,,,,,,,,261.44931820000056,261.46447449999687,261.9489981999941,,,,,,,,,,,,261.9739830000035,,,,,,,,,,,,,,,261.97035479999613,261.9739830000035,261.9739830000035,261.9739830000035,264.9647423999995,shoe,j,1.8732516000018222,0.1744782000023406,264.964934299991,264.9650040999986,None,,,,,,,,,,,,,,,,,00065,001,2026-01-20_11h49.32.082,MST_task,2024.2.0,60.15746818670846,2026-01-20 11h49.50.588456 +0530,
,Objects\007a.jpg,47,0,48,,,,,,,j,1.8974240999959875,0.16871879999234807,None,,,,,,48,0,47,264.98088400000415,,,,,,,,,,,,,,,,,,,,,,,264.9652391999989,264.98088400000415,265.4656498999975,,,,,,,,,,,,265.4839589000039,,,,,,,,,,,,,,,265.4812682999909,265.4839589000039,265.4839589000039,265.4839589000039,268.4814714999957,shoe,j,1.8974240999959875,0.16871879999234807,268.48163729999214,268.4816797999956,None,,,,,,,,,,,,,,,,,00065,001,2026-01-20_11h49.32.082,MST_task,2024.2.0,60.15746818670846,2026-01-20 11h49.50.588456 +0530,
,Objects\079a.jpg,48,0,49,,,,,,,j,1.3882623000099557,0.1683574999915436,None,,,,,,49,0,48,268.4975950999942,,,,,,,,,,,,,,,,,,,,,,,268.48187229999166,268.4975950999942,268.98187190000317,,,,,,,,,,,,269.0024543000036,,,,,,,,,,,,,,,268.99970159999793,269.0024543000036,269.0024543000036,269.0024543000036,271.998007599992,shoe,j,1.3882623000099557,0.1683574999915436,271.9981257000036,271.9981717000046,None,,,,,,,,,,,,,,,,,00065,001,2026-01-20_11h49.32.082,MST_task,2024.2.0,60.15746818670846,2026-01-20 11h49.50.588456 +0530,
,Objects\151a.jpg,49,0,50,,,,,,,f,2.3760334999969928,0.22444949999044184,None,,,,,,50,0,49,272.0148211999913,,,,,,,,,,,,,,,,,,,,,,,271.9984526999906,272.0148211999913,272.49881269999605,,,,,,,,,,,,272.51798119999876,,,,,,,,,,,,,,,272.51506379999046,272.51798119999876,272.51798119999876,272.51798119999876,275.51460229999793,indoor,f,2.3760334999969928,0.22444949999044184,275.5202566999942,275.5203373999975,None,,,,,,,,,,,,,,,,,00065,001,2026-01-20_11h49.32.082,MST_task,2024.2.0,60.15746818670846,2026-01-20 11h49.50.588456 +0530,
,Objects\040a.jpg,50,0,51,,,,,,,None,,,f,0.28609929999220185,None,,,,51,0,50,275.5308048000006,,,,,,,,,,,,,,,,,,,,,,,275.52058159999433,275.5308048000006,276.01559070000076,,,,,,,,,,,,276.03498870000476,,,,,,,,,,,,,,,276.0319956000021,276.03498870000476,276.03498870000476,276.03498870000476,279.03158280000207,indoor,None,,,279.03173960000277,279.3499521999911,f,279.0476809999964,279.0476809999964,0.28609929999220185,None,,,,,,,,,,,,,00065,001,2026-01-20_11h49.32.082,MST_task,2024.2.0,60.15746818670846,2026-01-20 11h49.50.588456 +0530,
,Objects\157a.jpg,51,0,52,,,,,,,f,0.8724593999941135,0.1685474000114482,None,,,,,,52,0,51,279.36424939999415,,,,,,,,,,,,,,,,,,,,,,,279.3502933999989,279.36424939999415,279.8497356000007,,,,,,,,,,,,279.8695299999963,,,,,,,,,,,,,,,279.8665284000017,279.8695299999963,279.8695299999963,279.8695299999963,282.86485070000344,indoor,f,0.8724593999941135,0.1685474000114482,282.86503699999594,282.86510749999434,None,,,,,,,,,,,,,,,,,00065,001,2026-01-20_11h49.32.082,MST_task,2024.2.0,60.15746818670846,2026-01-20 11h49.50.588456 +0530,
,Objects\095a.jpg,52,0,53,,,,,,,f,0.7391398000036133,0.19089280000480358,None,,,,,,53,0,52,282.8808813999931,,,,,,,,,,,,,,,,,,,,,,,282.8654202000034,282.8808813999931,283.3650120999955,,,,,,,,,,,,283.38739219999115,,,,,,,,,,,,,,,283.384722399991,283.38739219999115,283.38739219999115,283.38739219999115,286.3814570999966,indoor,f,0.7391398000036133,0.19089280000480358,286.38162790000206,286.38167319999775,None,,,,,,,,,,,,,,,,,00065,001,2026-01-20_11h49.32.082,MST_task,2024.2.0,60.15746818670846,2026-01-20 11h49.50.588456 +0530,
,Objects\002a.jpg,53,0,54,,,,,,,f,2.3436305999930482,0.16679909999947995,None,,,,,,54,0,53,286.39768199999526,,,,,,,,,,,,,,,,,,,,,,,286.38188040000387,286.39768199999526,286.88214329999755,,,,,,,,,,,,286.9034025000001,,,,,,,,,,,,,,,286.9005935000023,286.9034025000001,286.9034025000001,286.9034025000001,289.89833169999474,indoor,f,2.3436305999930482,0.16679909999947995,289.89843980000296,289.89847759999975,None,,,,,,,,,,,,,,,,,00065,001,2026-01-20_11h49.32.082,MST_task,2024.2.0,60.15746818670846,2026-01-20 11h49.50.588456 +0530,
,Objects\383a.jpg,54,0,55,,,,,,,None,,,f,0.2633484999969369,None,,,,55,0,54,289.91465269999753,,,,,,,,,,,,,,,,,,,,,,,289.8986506999936,289.91465269999753,290.3985929999908,,,,,,,,,,,,,,,,,,,,,,,,,,,290.41473259999475,290.4175310999999,290.4175310999999,290.4175310999999,293.41468269999314,indoor,None,,,293.4148000999994,293.69965070000035,f,293.4308256999939,293.4308256999939,0.2633484999969369,None,,,,,,,,,,,,,00065,001,2026-01-20_11h49.32.082,MST_task,2024.2.0,60.15746818670846,2026-01-20 11h49.50.588456 +0530,
,Objects\117a.jpg,55,0,56,,,,,,,j,2.1985405000013998,0.2079368999984581,None,,,,,,56,0,55,293.7145220999955,,,,,,,,,,,,,,,,,,,,,,,293.7000310000003,293.7145220999955,294.19859319999523,,,,,,,,,,,,294.2158378000022,,,,,,,,,,,,,,,294.21326730000146,294.2158378000022,294.2158378000022,294.2158378000022,297.2148457000003,indoor,j,2.1985405000013998,0.2079368999984581,297.21497689999524,297.21502489999693,None,,,,,,,,,,,,,,,,,00065,001,2026-01-20_11h49.32.082,MST_task,2024.2.0,60.15746818670846,2026-01-20 11h49.50.588456 +0530,
,Objects\059a.jpg,56,0,57,,,,,,,j,1.3352770000055898,0.17631310000433587,None,,,,,,57,0,56,297.2309554999956,,,,,,,,,,,,,,,,,,,,,,,297.21524180000415,297.2309554999956,297.71532119999756,,,,,,,,,,,,297.7349632999976,,,,,,,,,,,,,,,297.73233739999705,297.7349632999976,297.7349632999976,297.7349632999976,300.7313878999994,shoe,j,1.3352770000055898,0.17631310000433587,300.7356526999938,300.7356824000017,None,,,,,,,,,,,,,,,,,00065,001,2026-01-20_11h49.32.082,MST_task,2024.2.0,60.15746818670846,2026-01-20 11h49.50.588456 +0530,
,Objects\167a.jpg,57,0,58,,,,,,,f,2.029566800003522,0.16738230000191834,None,,,,,,58,0,57,300.7490034999937,,,,,,,,,,,,,,,,,,,,,,,300.73584259999916,300.7490034999937,301.2478379999957,,,,,,,,,,,,,,,,,,,,,,,,,,,301.28579969999555,301.28853619999427,301.28853619999427,301.28853619999427,304.248182299998,shoe,f,2.029566800003522,0.16738230000191834,304.2483390999987,304.2483787999954,None,,,,,,,,,,,,,,,,,00065,001,2026-01-20_11h49.32.082,MST_task,2024.2.0,60.15746818670846,2026-01-20 11h49.50.588456 +0530,
,Objects\178a.jpg,58,0,59,,,,,,,f,1.4213956000021426,0.19145659999048803,None,,,,,,59,0,58,304.26429140000255,,,,,,,,,,,,,,,,,,,,,,,304.2485788000049,304.26429140000255,304.749001499993,,,,,,,,,,,,304.76919179999095,,,,,,,,,,,,,,,304.7660804000043,304.76919179999095,304.76919179999095,304.76919179999095,307.74867869999434,shoe,f,1.4213956000021426,0.19145659999048803,307.74886629999673,307.7489082999964,None,,,,,,,,,,,,,,,,,00065,001,2026-01-20_11h49.32.082,MST_task,2024.2.0,60.15746818670846,2026-01-20 11h49.50.588456 +0530,
,Objects\246a.jpg,59,0,60,,,,,,,f,1.331851099996129,0.15234719999716617,None,,,,,,60,0,59,307.76471519999905,,,,,,,,,,,,,,,,,,,,,,,307.7491011999955,307.76471519999905,308.2487339999934,,,,,,,,,,,,308.2660109999997,,,,,,,,,,,,,,,308.26296169999114,308.2660109999997,308.2660109999997,308.2660109999997,311.2647045999911,shoe,f,1.331851099996129,0.15234719999716617,311.26488429999154,311.26495529999374,None,,,,,,,,,,,,,,,,,00065,001,2026-01-20_11h49.32.082,MST_task,2024.2.0,60.15746818670846,2026-01-20 11h49.50.588456 +0530,
,Objects\269a.jpg,60,0,61,,,,,,,f,2.2314984999975422,0.18272710000746883,None,,,,,,61,0,60,311.2816526999959,,,,,,,,,,,,,,,,,,,,,,,311.26526770000055,311.2816526999959,311.7653450999933,,,,,,,,,,,,311.7834407999908,,,,,,,,,,,,,,,311.7808500999963,311.7834407999908,311.7834407999908,311.7834407999908,314.7812702999945,shoe,f,2.2314984999975422,0.18272710000746883,314.7814112999913,314.7814662000019,None,,,,,,,,,,,,,,,,,00065,001,2026-01-20_11h49.32.082,MST_task,2024.2.0,60.15746818670846,2026-01-20 11h49.50.588456 +0530,
,Objects\281a.jpg,61,0,62,,,,,,,f,1.009063799996511,0.15092680000816472,None,,,,,,62,0,61,314.79756869999983,,,,,,,,,,,,,,,,,,,,,,,314.78171729999303,314.79756869999983,315.281936600004,,,,,,,,,,,,315.3020011000044,,,,,,,,,,,,,,,315.298538499992,315.3020011000044,315.3020011000044,315.3020011000044,318.29804259999946,shoe,f,1.009063799996511,0.15092680000816472,318.2982059999922,318.29824940000253,None,,,,,,,,,,,,,,,,,00065,001,2026-01-20_11h49.32.082,MST_task,2024.2.0,60.15746818670846,2026-01-20 11h49.50.588456 +0530,
,Objects\233a.jpg,62,0,63,,,,,,,f,1.0436915000027511,0.13643080000474583,None,,,,,,63,0,62,318.3143484000029,,,,,,,,,,,,,,,,,,,,,,,318.29844089999096,318.3143484000029,318.7986898999952,,,,,,,,,,,,318.826722400001,,,,,,,,,,,,,,,318.82383209999534,318.826722400001,318.826722400001,318.826722400001,321.81517509999685,shoe,f,1.0436915000027511,0.13643080000474583,321.81535269999586,321.81542299999273,None,,,,,,,,,,,,,,,,,00065,001,2026-01-20_11h49.32.082,MST_task,2024.2.0,60.15746818670846,2026-01-20 11h49.50.588456 +0530,
,Objects\118a.jpg,63,0,64,,,,,,,j,1.0507563999999547,0.16687660000752658,None,,,,,,64,0,63,321.831105499994,,,,,,,,,,,,,,,,,,,,,,,321.81598709999525,321.831105499994,322.3155332000024,,,,,,,,,,,,322.3560070999956,,,,,,,,,,,,,,,322.3528002999956,322.3560070999956,322.3560070999956,322.3560070999956,325.3314359999931,indoor,j,1.0507563999999547,0.16687660000752658,325.33669749999535,325.33676079999714,None,,,,,,,,,,,,,,,,,00065,001,2026-01-20_11h49.32.082,MST_task,2024.2.0,60.15746818670846,2026-01-20 11h49.50.588456 +0530,
,Objects\004a.jpg,64,0,65,,,,,,,j,1.7533649999968475,0.19209360000968445,None,,,,,,65,0,64,325.3476571999927,,,,,,,,,,,,,,,,,,,,,,,325.3370065999916,325.3476571999927,325.83210859999235,,,,,,,,,,,,325.8773285999923,,,,,,,,,,,,,,,325.87419799999043,325.8773285999923,325.8773285999923,325.8773285999923,328.84804689999146,indoor,j,1.7533649999968475,0.19209360000968445,328.8482227999921,328.84828949999064,None,,,,,,,,,,,,,,,,,00065,001,2026-01-20_11h49.32.082,MST_task,2024.2.0,60.15746818670846,2026-01-20 11h49.50.588456 +0530,
,Objects\126a.jpg,65,0,66,,,,,,,j,2.1557649000023957,0.13600379999843426,None,,,,,,66,0,65,328.8643755999947,,,,,,,,,,,,,,,,,,,,,,,328.8486344999983,328.8643755999947,329.3486201999913,,,,,,,,,,,,329.3937050999957,,,,,,,,,,,,,,,329.3906466999906,329.3937050999957,329.3937050999957,329.3937050999957,332.364803199991,indoor,j,2.1557649000023957,0.13600379999843426,332.3649325000006,332.3649773999932,None,,,,,,,,,,,,,,,,,00065,001,2026-01-20_11h49.32.082,MST_task,2024.2.0,60.15746818670846,2026-01-20 11h49.50.588456 +0530,
,Objects\286a.jpg,66,0,67,,,,,,,j,2.073790900001768,0.19110779999755323,None,,,,,,67,0,66,332.38092539999343,,,,,,,,,,,,,,,,,,,,,,,332.36517049999384,332.38092539999343,332.8655970999971,,,,,,,,,,,,332.9009233999968,,,,,,,,,,,,,,,332.8981119999953,332.9009233999968,332.9009233999968,332.9009233999968,335.8817932999955,indoor,j,2.073790900001768,0.19110779999755323,335.88197129999753,335.88203959999373,None,,,,,,,,,,,,,,,,,00065,001,2026-01-20_11h49.32.082,MST_task,2024.2.0,60.15746818670846,2026-01-20 11h49.50.588456 +0530,
,Objects\381a.jpg,67,0,68,,,,,,,f,1.281682600005297,0.23243819999333937,None,,,,,,68,0,67,335.8977870999952,,,,,,,,,,,,,,,,,,,,,,,335.882274699994,335.8977870999952,336.3820563999907,,,,,,,,,,,,336.4041780999978,,,,,,,,,,,,,,,336.4015364999941,336.4041780999978,336.4041780999978,336.4041780999978,339.39813010000216,indoor,f,1.281682600005297,0.23243819999333937,339.398314799997,339.3983830999932,None,,,,,,,,,,,,,,,,,00065,001,2026-01-20_11h49.32.082,MST_task,2024.2.0,60.15746818670846,2026-01-20 11h49.50.588456 +0530,
,Objects\170a.jpg,68,0,69,,,,,,,f,2.1392902999941725,0.19205759999749716,None,,,,,,69,0,68,339.41439789999276,,,,,,,,,,,,,,,,,,,,,,,339.3987002999929,339.41439789999276,339.89889559999574,,,,,,,,,,,,339.9158061999915,,,,,,,,,,,,,,,339.91308610000124,339.9158061999915,339.9158061999915,339.9158061999915,342.91489960000035,indoor,f,2.1392902999941725,0.19205759999749716,342.91505009999673,342.9150948000024,None,,,,,,,,,,,,,,,,,00065,001,2026-01-20_11h49.32.082,MST_task,2024.2.0,60.15746818670846,2026-01-20 11h49.50.588456 +0530,
,Objects\129a.jpg,69,0,70,,,,,,,f,1.0017854000034276,0.2146675999974832,None,,,,,,70,0,69,342.93095199999516,,,,,,,,,,,,,,,,,,,,,,,342.91529989999253,342.93095199999516,343.4153457999928,,,,,,,,,,,,343.45311269999365,,,,,,,,,,,,,,,343.45003340000403,343.45311269999365,343.45311269999365,343.45311269999365,346.431482400003,indoor,f,1.0017854000034276,0.2146675999974832,346.43164989999786,346.43171819999407,None,,,,,,,,,,,,,,,,,00065,001,2026-01-20_11h49.32.082,MST_task,2024.2.0,60.15746818670846,2026-01-20 11h49.50.588456 +0530,
,Objects\348a.jpg,70,0,71,,,,,,,j,1.7596937000053003,0.15956469999218825,None,,,,,,71,0,70,346.4477080999932,,,,,,,,,,,,,,,,,,,,,,,346.4320505999931,346.4477080999932,346.93269619999046,,,,,,,,,,,,346.9580710000009,,,,,,,,,,,,,,,346.95458269999654,346.9580710000009,346.9580710000009,346.9580710000009,349.94880959999864,shoe,j,1.7596937000053003,0.15956469999218825,349.95290629999363,349.9529351999954,None,,,,,,,,,,,,,,,,,00065,001,2026-01-20_11h49.32.082,MST_task,2024.2.0,60.15746818670846,2026-01-20 11h49.50.588456 +0530,
,Objects\106a.jpg,71,0,72,,,,,,,f,2.0082695000019157,0.2242264999949839,None,,,,,,72,0,71,349.9643375000014,,,,,,,,,,,,,,,,,,,,,,,349.95305139999255,349.9643375000014,350.4492901999911,,,,,,,,,,,,350.4694501999911,,,,,,,,,,,,,,,350.46642379999685,350.4694501999911,350.4694501999911,350.4694501999911,353.46488139999565,shoe,f,2.0082695000019157,0.2242264999949839,353.46499409999524,353.4650355999911,None,,,,,,,,,,,,,,,,,00065,001,2026-01-20_11h49.32.082,MST_task,2024.2.0,60.15746818670846,2026-01-20 11h49.50.588456 +0530,
,Objects\056a.jpg,72,0,73,,,,,,,f,1.3746551999938674,0.19150890001037624,None,,,,,,73,0,72,353.48109549999936,,,,,,,,,,,,,,,,,,,,,,,353.46531200000027,353.48109549999936,353.96539149999444,,,,,,,,,,,,353.9841108999972,,,,,,,,,,,,,,,353.98156699999527,353.9841108999972,353.9841108999972,353.9841108999972,356.9817555999907,shoe,f,1.3746551999938674,0.19150890001037624,356.9819512999966,356.9820202999981,None,,,,,,,,,,,,,,,,,00065,001,2026-01-20_11h49.32.082,MST_task,2024.2.0,60.15746818670846,2026-01-20 11h49.50.588456 +0530,
,Objects\110a.jpg,73,0,74,,,,,,,f,0.921664099994814,0.24861940000846516,None,,,,,,74,0,73,356.9976648000011,,,,,,,,,,,,,,,,,,,,,,,356.9822763999982,356.9976648000011,357.4820669000037,,,,,,,,,,,,357.54041580000194,,,,,,,,,,,,,,,357.5369629999914,357.54041580000194,357.54041580000194,357.54041580000194,360.49804449999647,shoe,f,0.921664099994814,0.24861940000846516,360.4982084999938,360.49827159999404,None,,,,,,,,,,,,,,,,,00065,001,2026-01-20_11h49.32.082,MST_task,2024.2.0,60.15746818670846,2026-01-20 11h49.50.588456 +0530,
,Objects\227a.jpg,74,0,75,,,,,,,f,2.3817407000024104,0.20801770000252873,None,,,,,,75,0,74,360.51446239999495,,,,,,,,,,,,,,,,,,,,,,,360.4985450999957,360.51446239999495,360.99858420000237,,,,,,,,,,,,361.04077239999606,,,,,,,,,,,,,,,361.0376983000024,361.04077239999606,361.04077239999606,361.04077239999606,364.0150102000043,shoe,f,2.3817407000024104,0.20801770000252873,364.0152009000012,364.0152675999998,None,,,,,,,,,,,,,,,,,00065,001,2026-01-20_11h49.32.082,MST_task,2024.2.0,60.15746818670846,2026-01-20 11h49.50.588456 +0530,
,Objects\033a.jpg,75,0,76,,,,,,,f,1.4308932999992976,0.19306929998856504,None,,,,,,76,0,75,364.0316453999985,,,,,,,,,,,,,,,,,,,,,,,364.01555689999077,364.0316453999985,364.51547749999736,,,,,,,,,,,,364.53458589999354,,,,,,,,,,,,,,,364.5313349999924,364.53458589999354,364.53458589999354,364.53458589999354,367.53154929999437,shoe,f,1.4308932999992976,0.19306929998856504,367.5316787999909,367.5317192999937,None,,,,,,,,,,,,,,,,,00065,001,2026-01-20_11h49.32.082,MST_task,2024.2.0,60.15746818670846,2026-01-20 11h49.50.588456 +0530,
,Objects\262a.jpg,76,0,77,,,,,,,f,1.8735513999999966,0.18313730000227224,None,,,,,,77,0,76,367.5477443999989,,,,,,,,,,,,,,,,,,,,,,,367.5319021000032,367.5477443999989,368.03213540000434,,,,,,,,,,,,368.0527035999985,,,,,,,,,,,,,,,368.0494572000025,368.0527035999985,368.0527035999985,368.0527035999985,371.0479750999948,shoe,f,1.8735513999999966,0.18313730000227224,371.0481105999934,371.04815529999905,None,,,,,,,,,,,,,,,,,00065,001,2026-01-20_11h49.32.082,MST_task,2024.2.0,60.15746818670846,2026-01-20 11h49.50.588456 +0530,
,Objects\199a.jpg,77,0,78,,,,,,,j,2.3849901000066893,0.17500619999191258,None,,,,,,78,0,77,371.06446439999854,,,,,,,,,,,,,,,,,,,,,,,371.0483647999936,371.06446439999854,371.54863849999674,,,,,,,,,,,,371.59036000000197,,,,,,,,,,,,,,,371.5872887000005,371.59036000000197,371.59036000000197,371.59036000000197,374.56577319999633,indoor,j,2.3849901000066893,0.17500619999191258,374.57086049999634,374.5709446999972,None,,,,,,,,,,,,,,,,,00065,001,2026-01-20_11h49.32.082,MST_task,2024.2.0,60.15746818670846,2026-01-20 11h49.50.588456 +0530,
,Objects\010a.jpg,78,0,79,,,,,,,f,1.6804684000089765,0.1683855000010226,None,,,,,,79,0,78,374.58105140000407,,,,,,,,,,,,,,,,,,,,,,,374.5712210999918,374.58105140000407,375.06527279999864,,,,,,,,,,,,375.0851968999923,,,,,,,,,,,,,,,375.0818721999967,375.0851968999923,375.0851968999923,375.0851968999923,378.0814637000003,indoor,f,1.6804684000089765,0.1683855000010226,378.08163929999864,378.0817056999949,None,,,,,,,,,,,,,,,,,00065,001,2026-01-20_11h49.32.082,MST_task,2024.2.0,60.15746818670846,2026-01-20 11h49.50.588456 +0530,
,Objects\255a.jpg,79,0,80,,,,,,,f,2.3647418999898946,0.19196200001169927,None,,,,,,80,0,79,378.09816619999765,,,,,,,,,,,,,,,,,,,,,,,378.08204539999133,378.09816619999765,378.5820371000009,,,,,,,,,,,,378.64171799999895,,,,,,,,,,,,,,,378.63856130000204,378.64171799999895,378.64171799999895,378.64171799999895,381.5823432000034,indoor,f,2.3647418999898946,0.19196200001169927,381.5825135999912,381.5825821000035,None,,,,,,,,,,,,,,,,,00065,001,2026-01-20_11h49.32.082,MST_task,2024.2.0,60.15746818670846,2026-01-20 11h49.50.588456 +0530,
,Objects\090a.jpg,80,0,81,,,,,,,j,1.0824585000082152,0.1760126000008313,None,,,,,,81,0,80,381.59758980000333,,,,,,,,,,,,,,,,,,,,,,,381.5827946999925,381.59758980000333,382.0821814999945,,,,,,,,,,,,382.132150999998,,,,,,,,,,,,,,,382.12908489999245,382.132150999998,382.132150999998,382.132150999998,385.0979967000021,indoor,j,1.0824585000082152,0.1760126000008313,385.0981698999967,385.09823770000366,None,,,,,,,,,,,,,,,,,00065,001,2026-01-20_11h49.32.082,MST_task,2024.2.0,60.15746818670846,2026-01-20 11h49.50.588456 +0530,
,Objects\103a.jpg,81,0,82,,,,,,,f,1.7773203999968246,0.19162159999541473,None,,,,,,82,0,81,385.115303700004,,,,,,,,,,,,,,,,,,,,,,,385.09853449999355,385.115303700004,385.6145192999975,,,,,,,,,,,,,,,,,,,,,,,,,,,385.6343920999934,385.63741599999776,385.63741599999776,385.63741599999776,388.59873840000364,indoor,f,1.7773203999968246,0.19162159999541473,388.5989050999924,388.5989567999932,None,,,,,,,,,,,,,,,,,00065,001,2026-01-20_11h49.32.082,MST_task,2024.2.0,60.15746818670846,2026-01-20 11h49.50.588456 +0530,
,Objects\061a.jpg,82,0,83,,,,,,,None,,,j,1.907785999996122,None,,,,83,0,82,388.615214999998,,,,,,,,,,,,,,,,,,,,,,,388.5991532999906,388.615214999998,389.0988393000007,,,,,,,,,,,,389.1201493999979,,,,,,,,,,,,,,,389.1158437999984,389.1201493999979,389.1201493999979,389.1201493999979,392.1151514999947,indoor,None,,,392.11525839999376,394.0496826000017,j,392.13104710000334,392.13104710000334,1.907785999996122,None,,,,,,,,,,,,,00065,001,2026-01-20_11h49.32.082,MST_task,2024.2.0,60.15746818670846,2026-01-20 11h49.50.588456 +0530,
,Objects\149a.jpg,83,0,84,,,,,,,None,,,f,0.9835004000051413,None,,,,84,0,83,394.06435529999726,,,,,,,,,,,,,,,,,,,,,,,394.04993779999495,394.06435529999726,394.549205599993,,,,,,,,,,,,394.5821070999955,,,,,,,,,,,,,,,394.5786697000003,394.5821070999955,394.5821070999955,394.5821070999955,397.5649868000037,indoor,None,,,397.56514289999905,398.5830849000049,f,397.5819030999992,397.5819030999992,0.9835004000051413,None,,,,,,,,,,,,,00065,001,2026-01-20_11h49.32.082,MST_task,2024.2.0,60.15746818670846,2026-01-20 11h49.50.588456 +0530,
,Objects\222a.jpg,84,0,85,,,,,,,j,2.0302289000101155,0.16878819999692496,None,,,,,,85,0,84,398.59781769999245,,,,,,,,,,,,,,,,,,,,,,,398.58333700000367,398.59781769999245,399.0819857000024,,,,,,,,,,,,399.1031367999967,,,,,,,,,,,,,,,399.100145000004,399.1031367999967,399.1031367999967,399.1031367999967,402.098064299993,shoe,j,2.0302289000101155,0.16878819999692496,402.10192760000064,402.10196060000453,None,,,,,,,,,,,,,,,,,00065,001,2026-01-20_11h49.32.082,MST_task,2024.2.0,60.15746818670846,2026-01-20 11h49.50.588456 +0530,
,Objects\054a.jpg,85,0,86,,,,,,,None,,,j,1.1422108999977354,None,,,,86,0,85,402.1143296999944,,,,,,,,,,,,,,,,,,,,,,,402.1020877999981,402.1143296999944,402.59953269999824,,,,,,,,,,,,402.6191975999973,,,,,,,,,,,,,,,402.6164524999913,402.6191975999973,402.6191975999973,402.6191975999973,405.61488409999583,shoe,None,,,405.6150390999974,406.78262410000025,j,405.63113870000234,405.63113870000234,1.1422108999977354,None,,,,,,,,,,,,,00065,001,2026-01-20_11h49.32.082,MST_task,2024.2.0,60.15746818670846,2026-01-20 11h49.50.588456 +0530,
,Objects\327a.jpg,86,0,87,,,,,,,j,1.9826954000018304,0.1434892000106629,None,,,,,,87,0,86,406.7976708999922,,,,,,,,,,,,,,,,,,,,,,,406.78299429999606,406.7976708999922,407.2820769999962,,,,,,,,,,,,407.30342559999553,,,,,,,,,,,,,,,407.30042319999484,407.30342559999553,407.30342559999553,407.30342559999553,410.2982095999905,shoe,j,1.9826954000018304,0.1434892000106629,410.29837699999916,410.2984121000045,None,,,,,,,,,,,,,,,,,00065,001,2026-01-20_11h49.32.082,MST_task,2024.2.0,60.15746818670846,2026-01-20 11h49.50.588456 +0530,
,Objects\243a.jpg,87,0,88,,,,,,,f,2.1102982000011252,0.16734200000064448,None,,,,,,88,0,87,410.31509629999346,,,,,,,,,,,,,,,,,,,,,,,410.2985767999926,410.31509629999346,410.7989566000033,,,,,,,,,,,,410.8236501999927,,,,,,,,,,,,,,,410.8200375000015,410.8236501999927,410.8236501999927,410.8236501999927,413.81489039999724,shoe,f,2.1102982000011252,0.16734200000064448,413.8150467999949,413.81509319999896,None,,,,,,,,,,,,,,,,,00065,001,2026-01-20_11h49.32.082,MST_task,2024.2.0,60.15746818670846,2026-01-20 11h49.50.588456 +0530,
,Objects\300a.jpg,88,0,89,,,,,,,f,1.0980087999923853,0.1672928000043612,None,,,,,,89,0,88,413.83094020000135,,,,,,,,,,,,,,,,,,,,,,,413.8153023999912,413.83094020000135,414.31531180000457,,,,,,,,,,,,414.3484127999982,,,,,,,,,,,,,,,414.34518960000423,414.3484127999982,414.3484127999982,414.3484127999982,417.331468999997,shoe,f,1.0980087999923853,0.1672928000043612,417.33163570000033,417.33167949999915,None,,,,,,,,,,,,,,,,,00065,001,2026-01-20_11h49.32.082,MST_task,2024.2.0,60.15746818670846,2026-01-20 11h49.50.588456 +0530,
,Objects\122a.jpg,89,0,90,,,,,,,f,2.444278099996154,0.1754125000006752,None,,,,,,90,0,89,417.34779960000014,,,,,,,,,,,,,,,,,,,,,,,417.3318841,417.34779960000014,417.83217959999456,,,,,,,,,,,,417.8506621999986,,,,,,,,,,,,,,,417.8477544999914,417.8506621999986,417.8506621999986,417.8506621999986,420.8480258999916,shoe,f,2.444278099996154,0.1754125000006752,420.8482117999956,420.848293499992,None,,,,,,,,,,,,,,,,,00065,001,2026-01-20_11h49.32.082,MST_task,2024.2.0,60.15746818670846,2026-01-20 11h49.50.588456 +0530,
,Objects\229a.jpg,90,0,91,,,,,,,f,1.0191842999920482,0.16777470000670291,None,,,,,,91,0,90,420.8645103000017,,,,,,,,,,,,,,,,,,,,,,,420.8486016999959,420.8645103000017,421.3491453000024,,,,,,,,,,,,421.37096739999834,,,,,,,,,,,,,,,421.3676276000042,421.37096739999834,421.37096739999834,421.37096739999834,424.3648700000049,shoe,f,1.0191842999920482,0.16777470000670291,424.36505130000296,424.3650959999941,None,,,,,,,,,,,,,,,,,00065,001,2026-01-20_11h49.32.082,MST_task,2024.2.0,60.15746818670846,2026-01-20 11h49.50.588456 +0530,
,Objects\135a.jpg,91,0,92,,,,,,,f,1.767634600008023,0.1764167999936035,None,,,,,,92,0,91,424.38116920000175,,,,,,,,,,,,,,,,,,,,,,,424.3653454000014,424.38116920000175,424.8654947000032,,,,,,,,,,,,424.88641789999383,,,,,,,,,,,,,,,424.8831302000035,424.88641789999383,424.88641789999383,424.88641789999383,427.88153089999105,indoor,f,1.767634600008023,0.1764167999936035,427.885223099991,427.88525639999716,None,,,,,,,,,,,,,,,,,00065,001,2026-01-20_11h49.32.082,MST_task,2024.2.0,60.15746818670846,2026-01-20 11h49.50.588456 +0530,
,Objects\060a.jpg,92,0,93,,,,,,,f,1.708641000004718,0.16705449999426492,None,,,,,,93,0,92,427.89741619999404,,,,,,,,,,,,,,,,,,,,,,,427.8853919999965,427.89741619999404,428.38186609999684,,,,,,,,,,,,428.40192289999686,,,,,,,,,,,,,,,428.3991144000029,428.40192289999686,428.40192289999686,428.40192289999686,431.3986170999997,indoor,f,1.708641000004718,0.16705449999426492,431.39878409999073,431.39882459999353,None,,,,,,,,,,,,,,,,,00065,001,2026-01-20_11h49.32.082,MST_task,2024.2.0,60.15746818670846,2026-01-20 11h49.50.588456 +0530,
,Objects\005a.jpg,93,0,94,,,,,,,f,0.7219463999936124,0.15898989999550395,None,,,,,,94,0,93,431.41452029999346,,,,,,,,,,,,,,,,,,,,,,,431.3990097999922,431.41452029999346,431.8989227999991,,,,,,,,,,,,431.91654249999556,,,,,,,,,,,,,,,431.9139392999932,431.91654249999556,431.91654249999556,431.91654249999556,434.9147274999996,indoor,f,0.7219463999936124,0.15898989999550395,434.9148989999958,434.91494049999164,None,,,,,,,,,,,,,,,,,00065,001,2026-01-20_11h49.32.082,MST_task,2024.2.0,60.15746818670846,2026-01-20 11h49.50.588456 +0530,
,Objects\058a.jpg,94,0,95,,,,,,,j,2.2578095000062604,0.20016320000286214,None,,,,,,95,0,94,434.9309108000016,,,,,,,,,,,,,,,,,,,,,,,434.91512969999167,434.9309108000016,435.4154947999923,,,,,,,,,,,,435.43563330000325,,,,,,,,,,,,,,,435.43324899999425,435.43563330000325,435.43563330000325,435.43563330000325,438.4316134999972,indoor,j,2.2578095000062604,0.20016320000286214,438.4317866999918,438.43185419999645,None,,,,,,,,,,,,,,,,,00065,001,2026-01-20_11h49.32.082,MST_task,2024.2.0,60.15746818670846,2026-01-20 11h49.50.588456 +0530,
,Objects\198a.jpg,95,0,96,,,,,,,j,1.1270389999990584,0.1685602000070503,None,,,,,,96,0,95,438.4476655000035,,,,,,,,,,,,,,,,,,,,,,,438.4321454000019,438.4476655000035,438.93207870000333,,,,,,,,,,,,438.9508827999962,,,,,,,,,,,,,,,438.9480326000048,438.9508827999962,438.9508827999962,438.9508827999962,441.94801979999465,indoor,j,1.1270389999990584,0.1685602000070503,441.9482253000024,441.9482944999909,None,,,,,,,,,,,,,,,,,00065,001,2026-01-20_11h49.32.082,MST_task,2024.2.0,60.15746818670846,2026-01-20 11h49.50.588456 +0530,
,Objects\224a.jpg,96,0,97,,,,,,,f,0.8964563000045018,0.20936029999575112,None,,,,,,97,0,96,441.9644469999912,,,,,,,,,,,,,,,,,,,,,,,441.9485710000008,441.9644469999912,442.4488937999995,,,,,,,,,,,,442.4692006999976,,,,,,,,,,,,,,,442.46626610000385,442.4692006999976,442.4692006999976,442.4692006999976,445.46469549999165,indoor,f,0.8964563000045018,0.20936029999575112,445.46488499999396,445.4649530000024,None,,,,,,,,,,,,,,,,,00065,001,2026-01-20_11h49.32.082,MST_task,2024.2.0,60.15746818670846,2026-01-20 11h49.50.588456 +0530,
,Objects\134a.jpg,97,0,98,,,,,,,j,1.9097239000111585,0.21538239999790676,None,,,,,,98,0,97,445.48112919999403,,,,,,,,,,,,,,,,,,,,,,,445.46526569999696,445.48112919999403,445.96548499999335,,,,,,,,,,,,446.0163939999911,,,,,,,,,,,,,,,446.0127465999976,446.0163939999911,446.0163939999911,446.0163939999911,448.98139109999465,indoor,j,1.9097239000111585,0.21538239999790676,448.98152729999856,448.98157780000474,None,,,,,,,,,,,,,,,,,00065,001,2026-01-20_11h49.32.082,MST_task,2024.2.0,60.15746818670846,2026-01-20 11h49.50.588456 +0530,
,Objects\083a.jpg,98,0,99,,,,,,,f,1.2920441000023857,0.17703900000196882,None,,,,,,99,0,98,448.997646799995,,,,,,,,,,,,,,,,,,,,,,,448.98181979999936,448.997646799995,449.4824290999968,,,,,,,,,,,,449.5053499999922,,,,,,,,,,,,,,,449.50276259999373,449.5053499999922,449.5053499999922,449.5053499999922,452.4981067000044,shoe,f,1.2920441000023857,0.17703900000196882,452.5032288999937,452.50328170000284,None,,,,,,,,,,,,,,,,,00065,001,2026-01-20_11h49.32.082,MST_task,2024.2.0,60.15746818670846,2026-01-20 11h49.50.588456 +0530,
,Objects\218a.jpg,99,0,100,,,,,,,j,0.9257199999992736,0.1671881999936886,None,,,,,,100,0,99,452.5147123999923,,,,,,,,,,,,,,,,,,,,,,,452.5035021999938,452.5147123999923,452.99903500000073,,,,,,,,,,,,453.01726949999284,,,,,,,,,,,,,,,453.0146318000043,453.01726949999284,453.01726949999284,453.01726949999284,456.0147825000022,shoe,j,0.9257199999992736,0.1671881999936886,456.01496139999654,456.01502989999426,None,,,,,,,,,,,,,,,,,00065,001,2026-01-20_11h49.32.082,MST_task,2024.2.0,60.15746818670846,2026-01-20 11h49.50.588456 +0530,
,Objects\075a.jpg,100,0,101,,,,,,,f,2.237009400007082,0.18431199999758974,None,,,,,,101,0,100,456.03112939999846,,,,,,,,,,,,,,,,,,,,,,,456.0154077999905,456.03112939999846,456.5159527999931,,,,,,,,,,,,456.53692279999086,,,,,,,,,,,,,,,456.53383519999625,456.53692279999086,456.53692279999086,456.53692279999086,459.5317189999914,shoe,f,2.237009400007082,0.18431199999758974,459.53188979999686,459.53194339999754,None,,,,,,,,,,,,,,,,,00065,001,2026-01-20_11h49.32.082,MST_task,2024.2.0,60.15746818670846,2026-01-20 11h49.50.588456 +0530,
,Objects\343a.jpg,101,0,102,,,,,,,f,2.027663199987728,0.1676084000064293,None,,,,,,102,0,101,459.5477269999974,,,,,,,,,,,,,,,,,,,,,,,459.5322673000046,459.5477269999974,460.03226160000486,,,,,,,,,,,,460.050777299999,,,,,,,,,,,,,,,460.0482628000027,460.050777299999,460.050777299999,460.050777299999,463.04801840000437,shoe,f,2.027663199987728,0.1676084000064293,463.04816690000007,463.0482079999929,None,,,,,,,,,,,,,,,,,00065,001,2026-01-20_11h49.32.082,MST_task,2024.2.0,60.15746818670846,2026-01-20 11h49.50.588456 +0530,
,Objects\282a.jpg,102,0,103,,,,,,,j,1.5423880000016652,0.1586278000031598,None,,,,,,103,0,102,463.064312699993,,,,,,,,,,,,,,,,,,,,,,,463.04839899999206,463.064312699993,463.5483574999962,,,,,,,,,,,,463.5686316999927,,,,,,,,,,,,,,,463.5657058999932,463.5686316999927,463.5686316999927,463.5686316999927,466.5651179999986,shoe,j,1.5423880000016652,0.1586278000031598,466.56527829999686,466.5653211000026,None,,,,,,,,,,,,,,,,,00065,001,2026-01-20_11h49.32.082,MST_task,2024.2.0,60.15746818670846,2026-01-20 11h49.50.588456 +0530,
,Objects\066a.jpg,103,0,104,,,,,,,None,,,j,0.04399869999906514,None,,,,104,0,103,466.58100510000077,,,,,,,,,,,,,,,,,,,,,,,466.5655121000018,466.58100510000077,467.0655977999995,,,,,,,,,,,,467.0862249999918,,,,,,,,,,,,,,,467.0833171999984,467.0862249999918,467.0862249999918,467.0862249999918,470.08127909999166,shoe,None,,,470.0813810999971,470.14948589999403,j,470.09767259999353,470.09767259999353,0.04399869999906514,None,,,,,,,,,,,,,00065,001,2026-01-20_11h49.32.082,MST_task,2024.2.0,60.15746818670846,2026-01-20 11h49.50.588456 +0530,
,Objects\347a.jpg,104,0,105,,,,,,,j,0.9915129000000888,0.16746779999812134,None,,,,,,105,0,104,470.1645153999998,,,,,,,,,,,,,,,,,,,,,,,470.14975309999136,470.1645153999998,470.6486326000013,,,,,,,,,,,,470.6704647000006,,,,,,,,,,,,,,,470.6675198000012,470.6704647000006,470.6704647000006,470.6704647000006,473.66478890000144,shoe,j,0.9915129000000888,0.16746779999812134,473.66492989999824,473.66501729999436,None,,,,,,,,,,,,,,,,,00065,001,2026-01-20_11h49.32.082,MST_task,2024.2.0,60.15746818670846,2026-01-20 11h49.50.588456 +0530,
,Objects\205a.jpg,105,0,106,,,,,,,j,1.8744481999892741,0.16827870000270195,None,,,,,,106,0,105,473.68106350000016,,,,,,,,,,,,,,,,,,,,,,,473.66533619999245,473.68106350000016,474.1655429999955,,,,,,,,,,,,474.18764419999206,,,,,,,,,,,,,,,474.1842470999982,474.18764419999206,474.18764419999206,474.18764419999206,477.18155079999997,indoor,j,1.8744481999892741,0.16827870000270195,477.1850465000025,477.18508470000234,None,,,,,,,,,,,,,,,,,00065,001,2026-01-20_11h49.32.082,MST_task,2024.2.0,60.15746818670846,2026-01-20 11h49.50.588456 +0530,
,Objects\030a.jpg,106,0,107,,,,,,,j,2.312692800012883,0.17639399999461602,None,,,,,,107,0,106,477.1975869000016,,,,,,,,,,,,,,,,,,,,,,,477.1852044999978,477.1975869000016,477.68222790000436,,,,,,,,,,,,477.7012151999952,,,,,,,,,,,,,,,477.69851829999243,477.7012151999952,477.7012151999952,477.7012151999952,480.69803139999567,indoor,j,2.312692800012883,0.17639399999461602,480.6981666999927,480.69821709999815,None,,,,,,,,,,,,,,,,,00065,001,2026-01-20_11h49.32.082,MST_task,2024.2.0,60.15746818670846,2026-01-20 11h49.50.588456 +0530,
,Objects\153a.jpg,107,0,108,,,,,,,j,2.4508798999886494,0.16865510000206996,None,,,,,,108,0,107,480.71435080000083,,,,,,,,,,,,,,,,,,,,,,,480.6984489000024,480.71435080000083,481.1988221999927,,,,,,,,,,,,481.2185102999938,,,,,,,,,,,,,,,481.2152655999962,481.2185102999938,481.2185102999938,481.2185102999938,484.2146991000045,indoor,j,2.4508798999886494,0.16865510000206996,484.2148151000001,484.21486130000267,None,,,,,,,,,,,,,,,,,00065,001,2026-01-20_11h49.32.082,MST_task,2024.2.0,60.15746818670846,2026-01-20 11h49.50.588456 +0530,
,Objects\113a.jpg,108,0,109,,,,,,,j,0.9982576000038534,0.1441393999994034,None,,,,,,109,0,108,484.2313479000004,,,,,,,,,,,,,,,,,,,,,,,484.2150677000027,484.2313479000004,484.7155178999965,,,,,,,,,,,,484.73553409999295,,,,,,,,,,,,,,,484.7325877999974,484.73553409999295,484.73553409999295,484.73553409999295,487.73156649999146,indoor,j,0.9982576000038534,0.1441393999994034,487.7316843000008,487.73172889999114,None,,,,,,,,,,,,,,,,,00065,001,2026-01-20_11h49.32.082,MST_task,2024.2.0,60.15746818670846,2026-01-20 11h49.50.588456 +0530,
,Objects\303a.jpg,109,0,110,,,,,,,j,1.1947270999953616,0.15889489999972284,None,,,,,,110,0,109,487.74783229999593,,,,,,,,,,,,,,,,,,,,,,,487.73193419999734,487.74783229999593,488.23199909999676,,,,,,,,,,,,488.2600600000005,,,,,,,,,,,,,,,488.2570815999934,488.2600600000005,488.2600600000005,488.2600600000005,491.24805759999435,indoor,j,1.1947270999953616,0.15889489999972284,491.2481709999993,491.2482136000035,None,,,,,,,,,,,,,,,,,00065,001,2026-01-20_11h49.32.082,MST_task,2024.2.0,60.15746818670846,2026-01-20 11h49.50.588456 +0530,
,Objects\279a.jpg,110,0,111,,,,,,,f,2.0308631000079913,0.19321789999958128,None,,,,,,111,0,110,491.26431309999316,,,,,,,,,,,,,,,,,,,,,,,491.2484206999943,491.26431309999316,491.748803399998,,,,,,,,,,,,491.79070440000214,,,,,,,,,,,,,,,491.7876072999934,491.79070440000214,491.79070440000214,491.79070440000214,494.7648431999987,indoor,f,2.0308631000079913,0.19321789999958128,494.76503579999553,494.76510289999715,None,,,,,,,,,,,,,,,,,00065,001,2026-01-20_11h49.32.082,MST_task,2024.2.0,60.15746818670846,2026-01-20 11h49.50.588456 +0530,
,Objects\018a.jpg,111,0,112,,,,,,,j,1.2639762000035262,0.14473820000421256,None,,,,,,112,0,111,494.78100709999853,,,,,,,,,,,,,,,,,,,,,,,494.7654493000009,494.78100709999853,495.2660368999932,,,,,,,,,,,,495.28537640000286,,,,,,,,,,,,,,,495.28247449999617,495.28537640000286,495.28537640000286,495.28537640000286,498.28149939999275,indoor,j,1.2639762000035262,0.14473820000421256,498.2816124999954,498.2816546999966,None,,,,,,,,,,,,,,,,,00065,001,2026-01-20_11h49.32.082,MST_task,2024.2.0,60.15746818670846,2026-01-20 11h49.50.588456 +0530,
,Objects\321a.jpg,112,0,113,,,,,,,f,1.3419683999964036,0.14548239999567159,None,,,,,,113,0,112,498.2976115999918,,,,,,,,,,,,,,,,,,,,,,,498.2818477999972,498.2976115999918,498.78215509999427,,,,,,,,,,,,498.80719880000106,,,,,,,,,,,,,,,498.8039887999912,498.80719880000106,498.80719880000106,498.80719880000106,501.79812009999296,shoe,f,1.3419683999964036,0.14548239999567159,501.80363090000174,501.80366750000394,None,,,,,,,,,,,,,,,,,00065,001,2026-01-20_11h49.32.082,MST_task,2024.2.0,60.15746818670846,2026-01-20 11h49.50.588456 +0530,
,Objects\361a.jpg,113,0,114,,,,,,,j,1.1663530999940122,0.16883700000471435,None,,,,,,114,0,113,501.8142998999974,,,,,,,,,,,,,,,,,,,,,,,501.8038050000032,501.8142998999974,502.2988392999978,,,,,,,,,,,,502.3196226,,,,,,,,,,,,,,,502.3167136999982,502.3196226,502.3196226,502.3196226,505.31467619999603,shoe,j,1.1663530999940122,0.16883700000471435,505.31481460000214,505.3148646000045,None,,,,,,,,,,,,,,,,,00065,001,2026-01-20_11h49.32.082,MST_task,2024.2.0,60.15746818670846,2026-01-20 11h49.50.588456 +0530,
,Objects\108a.jpg,114,0,115,,,,,,,j,1.0981633999908809,0.1614045000023907,None,,,,,,115,0,114,505.3313038999913,,,,,,,,,,,,,,,,,,,,,,,505.3151999999973,505.3313038999913,505.8158102000016,,,,,,,,,,,,505.83544009999605,,,,,,,,,,,,,,,505.83236259999103,505.83544009999605,505.83544009999605,505.83544009999605,508.8313358000014,shoe,j,1.0981633999908809,0.1614045000023907,508.8315100000036,508.83157909999136,None,,,,,,,,,,,,,,,,,00065,001,2026-01-20_11h49.32.082,MST_task,2024.2.0,60.15746818670846,2026-01-20 11h49.50.588456 +0530,
,Objects\043a.jpg,115,0,116,,,,,,,j,2.3737847000011243,0.20726170000853017,None,,,,,,116,0,115,508.84769419999793,,,,,,,,,,,,,,,,,,,,,,,508.83199979999335,508.84769419999793,509.332316,,,,,,,,,,,,509.3524316999974,,,,,,,,,,,,,,,509.34901959999115,509.3524316999974,509.3524316999974,509.3524316999974,512.3479775000014,shoe,j,2.3737847000011243,0.20726170000853017,512.348152599996,512.3482198999991,None,,,,,,,,,,,,,,,,,00065,001,2026-01-20_11h49.32.082,MST_task,2024.2.0,60.15746818670846,2026-01-20 11h49.50.588456 +0530,
,Objects\116a.jpg,116,0,117,,,,,,,f,1.223257999998168,0.12020199999096803,None,,,,,,117,0,116,512.3647550000023,,,,,,,,,,,,,,,,,,,,,,,512.3485275999992,512.3647550000023,512.8488706999924,,,,,,,,,,,,512.8707664999965,,,,,,,,,,,,,,,512.8679167999944,512.8707664999965,512.8707664999965,512.8707664999965,515.8648418999946,shoe,f,1.223257999998168,0.12020199999096803,515.865039700002,515.865108500002,None,,,,,,,,,,,,,,,,,00065,001,2026-01-20_11h49.32.082,MST_task,2024.2.0,60.15746818670846,2026-01-20 11h49.50.588456 +0530,
,Objects\369a.jpg,117,0,118,,,,,,,f,1.4851469999994151,0.21562049999192823,None,,,,,,118,0,117,515.8810303999926,,,,,,,,,,,,,,,,,,,,,,,515.8655293999909,515.8810303999926,516.3655943000049,,,,,,,,,,,,516.3850269999966,,,,,,,,,,,,,,,516.3817566999933,516.3850269999966,516.3850269999966,516.3850269999966,519.3814177000022,shoe,f,1.4851469999994151,0.21562049999192823,519.3815427999943,519.3815911999991,None,,,,,,,,,,,,,,,,,00065,001,2026-01-20_11h49.32.082,MST_task,2024.2.0,60.15746818670846,2026-01-20 11h49.50.588456 +0530,
,Objects\042a.jpg,118,0,119,,,,,,,j,1.4188372000062373,0.17659360000106972,None,,,,,,119,0,118,519.3976079999993,,,,,,,,,,,,,,,,,,,,,,,519.3818928999972,519.3976079999993,519.8820194,,,,,,,,,,,,,,,,,,,,,,,,,,,519.8957473999908,519.8985073999938,519.8985073999938,519.8985073999938,522.8832113999961,shoe,j,1.4188372000062373,0.17659360000106972,522.8834286999918,522.8834915999905,None,,,,,522.8976629999961,522.8976629999961,522.8976629999961,,,,,,,,,,00065,001,2026-01-20_11h49.32.082,MST_task,2024.2.0,60.15746818670846,2026-01-20 11h49.50.588456 +0530,
,Objects\332a.jpg,119,0,120,,,,,,,j,1.3630551999958698,0.16815450000285637,None,,,,,,120,0,119,522.8976629999961,,,,,,,,,,,,,,,,,,,,,,,522.8837447999977,522.8976629999961,523.3820906000037,,,,,,,,,,,,523.4108691000001,,,,,,,,,,,,,,,523.4066350999929,523.4108691000001,523.4108691000001,523.4108691000001,526.398210600004,indoor,j,1.3630551999958698,0.16815450000285637,526.403269100003,526.4033190000046,None,,,,,,,,,,,,,,,,,00065,001,2026-01-20_11h49.32.082,MST_task,2024.2.0,60.15746818670846,2026-01-20 11h49.50.588456 +0530,
,Objects\266a.jpg,120,0,121,,,,,,,j,2.4965764000080526,0.16029659999185242,None,,,,,,121,0,120,526.414365699995,,,,,,,,,,,,,,,,,,,,,,,526.4035257999931,526.414365699995,526.8989716999931,,,,,,,,,,,,526.9176969999971,,,,,,,,,,,,,,,526.9147625000041,526.9176969999971,526.9176969999971,526.9176969999971,529.9155817999999,indoor,j,2.4965764000080526,0.16029659999185242,529.9156851000007,529.9157223999937,None,,,,,,,,,,,,,,,,,00065,001,2026-01-20_11h49.32.082,MST_task,2024.2.0,60.15746818670846,2026-01-20 11h49.50.588456 +0530,
,Objects\335a.jpg,121,0,122,,,,,,,j,1.610591500008013,0.19113569999171887,None,,,,,,122,0,121,529.931024199992,,,,,,,,,,,,,,,,,,,,,,,529.9158988999989,529.931024199992,530.4155697999959,,,,,,,,,,,,530.435997099994,,,,,,,,,,,,,,,530.4308635999914,530.435997099994,530.435997099994,530.435997099994,533.4316604999913,indoor,j,1.610591500008013,0.19113569999171887,533.4318539999949,533.4319038999965,None,,,,,,,,,,,,,,,,,00065,001,2026-01-20_11h49.32.082,MST_task,2024.2.0,60.15746818670846,2026-01-20 11h49.50.588456 +0530,
,Objects\261a.jpg,122,0,123,,,,,,,f,2.357474899996305,0.16869860001315828,None,,,,,,123,0,122,533.4479624999949,,,,,,,,,,,,,,,,,,,,,,,533.4321405999945,533.4479624999949,533.9321158999956,,,,,,,,,,,,533.9526806999929,,,,,,,,,,,,,,,533.9497900999995,533.9526806999929,533.9526806999929,533.9526806999929,536.9480276999966,indoor,f,2.357474899996305,0.16869860001315828,536.9482018999988,536.9482703999965,None,,,,,,,,,,,,,,,,,00065,001,2026-01-20_11h49.32.082,MST_task,2024.2.0,60.15746818670846,2026-01-20 11h49.50.588456 +0530,
,Objects\073a.jpg,123,0,124,,,,,,,f,1.5104195000021718,0.15987499999755528,None,,,,,,124,0,123,536.9645517000026,,,,,,,,,,,,,,,,,,,,,,,536.9485840999987,536.9645517000026,537.4485618000035,,,,,,,,,,,,537.5036120000004,,,,,,,,,,,,,,,537.5004576999927,537.5036120000004,537.5036120000004,537.5036120000004,540.4648814999964,indoor,f,1.5104195000021718,0.15987499999755528,540.4650438999961,540.4651174000028,None,,,,,,,,,,,,,,,,,00065,001,2026-01-20_11h49.32.082,MST_task,2024.2.0,60.15746818670846,2026-01-20 11h49.50.588456 +0530,
,Objects\183a.jpg,124,0,125,,,,,,,f,1.6164178999897558,0.1764596000139136,None,,,,,,125,0,124,540.4812972999935,,,,,,,,,,,,,,,,,,,,,,,540.4654611000005,540.4812972999935,540.9652911000012,,,,,,,,,,,,,,,,,,,,,,,,,,,541.0105272999936,541.0134862999985,541.0134862999985,541.0134862999985,543.9819959000015,indoor,f,1.6164178999897558,0.1764596000139136,543.9821835000039,543.9822477999987,None,,,,,,,,,,,,,,,,,00065,001,2026-01-20_11h49.32.082,MST_task,2024.2.0,60.15746818670846,2026-01-20 11h49.50.588456 +0530,
,Objects\137a.jpg,125,0,126,,,,,,,f,1.99319550000655,0.21645179999177344,None,,,,,,126,0,125,543.9976014999993,,,,,,,,,,,,,,,,,,,,,,,543.9825829000038,543.9976014999993,544.4820534000028,,,,,,,,,,,,544.5001340000017,,,,,,,,,,,,,,,544.4971816000034,544.5001340000017,544.5001340000017,544.5001340000017,547.4981924000022,indoor,f,1.99319550000655,0.21645179999177344,547.498374399991,547.4984433999925,None,,,,,,,,,,,,,,,,,00065,001,2026-01-20_11h49.32.082,MST_task,2024.2.0,60.15746818670846,2026-01-20 11h49.50.588456 +0530,
,Objects\150a.jpg,126,0,127,,,,,,,f,1.5237686000036774,0.15110029999050312,None,,,,,,127,0,126,547.5145077999914,,,,,,,,,,,,,,,,,,,,,,,547.4987636000005,547.5145077999914,547.998794500003,,,,,,,,,,,,548.0193852999946,,,,,,,,,,,,,,,548.0168011999922,548.0193852999946,548.0193852999946,548.0193852999946,550.9988830999937,shoe,f,1.5237686000036774,0.15110029999050312,551.0036555999977,551.0037059000024,None,,,,,,,,,,,,,,,,,00065,001,2026-01-20_11h49.32.082,MST_task,2024.2.0,60.15746818670846,2026-01-20 11h49.50.588456 +0530,
,Objects\307a.jpg,127,0,128,,,,,,,j,1.0811882999987574,0.16778119999798946,None,,,,,,128,0,127,551.014391299992,,,,,,,,,,,,,,,,,,,,,,,551.0039015999937,551.014391299992,551.4988687000005,,,,,,,,,,,,551.5166918000032,,,,,,,,,,,,,,,551.5137937999971,551.5166918000032,551.5166918000032,551.5166918000032,554.5147710000019,shoe,j,1.0811882999987574,0.16778119999798946,554.5150256999914,554.5150977000012,None,,,,,,,,,,,,,,,,,00065,001,2026-01-20_11h49.32.082,MST_task,2024.2.0,60.15746818670846,2026-01-20 11h49.50.588456 +0530,
,Objects\177a.jpg,128,0,129,,,,,,,j,1.5624353000021074,0.1442451000039,None,,,,,,129,0,128,554.531356099993,,,,,,,,,,,,,,,,,,,,,,,554.5153848000045,554.531356099993,555.0156552999979,,,,,,,,,,,,555.035208500005,,,,,,,,,,,,,,,555.0321560000011,555.035208500005,555.035208500005,555.035208500005,558.0155470000027,shoe,j,1.5624353000021074,0.1442451000039,558.0157409999956,558.0157843999914,None,,,,,,,,,,,,,,,,,00065,001,2026-01-20_11h49.32.082,MST_task,2024.2.0,60.15746818670846,2026-01-20 11h49.50.588456 +0530,
,Objects\188a.jpg,129,0,130,,,,,,,f,0.8552828999963822,0.1596620000054827,None,,,,,,130,0,129,558.0311010000005,,,,,,,,,,,,,,,,,,,,,,,558.0160651000042,558.0311010000005,558.5153908999928,,,,,,,,,,,,558.5348262000043,,,,,,,,,,,,,,,558.532069199995,558.5348262000043,558.5348262000043,558.5348262000043,561.5316145999968,shoe,f,0.8552828999963822,0.1596620000054827,561.5317514999915,561.5317977999948,None,,,,,,,,,,,,,,,,,00065,001,2026-01-20_11h49.32.082,MST_task,2024.2.0,60.15746818670846,2026-01-20 11h49.50.588456 +0530,
,Objects\315a.jpg,130,0,131,,,,,,,None,,,f,0.35743940000247676,None,,,,131,0,130,561.5477017999947,,,,,,,,,,,,,,,,,,,,,,,561.5320789999969,561.5477017999947,562.0309584999923,,,,,,,,,,,,562.0480924000003,,,,,,,,,,,,,,,562.044607799995,562.0480924000003,562.0480924000003,562.0480924000003,565.0329668999912,shoe,None,,,565.0331241999957,565.4162687999924,f,565.0485707000043,565.0485707000043,0.35743940000247676,None,565.0485707000043,565.0485707000043,565.0485707000043,,,,,,,,,,00065,001,2026-01-20_11h49.32.082,MST_task,2024.2.0,60.15746818670846,2026-01-20 11h49.50.588456 +0530,
,Objects\194a.jpg,131,0,132,,,,,,,f,2.287509099987801,0.159313000011025,None,,,,,,132,0,131,565.4313605999923,,,,,,,,,,,,,,,,,,,,,,,565.4165639999992,565.4313605999923,565.915743599995,,,,,,,,,,,,565.9355441999942,,,,,,,,,,,,,,,565.9327458000043,565.9355441999942,565.9355441999942,565.9355441999942,568.9314428999933,shoe,f,2.287509099987801,0.159313000011025,568.9316164999909,568.931683200004,None,,,,,,,,,,,,,,,,,00065,001,2026-01-20_11h49.32.082,MST_task,2024.2.0,60.15746818670846,2026-01-20 11h49.50.588456 +0530,
,Objects\131a.jpg,132,0,133,,,,,,,None,,,f,0.421549499995308,None,,,,133,0,132,568.9478544000012,,,,,,,,,,,,,,,,,,,,,,,568.9319783999963,568.9478544000012,569.4320876999991,,,,,,,,,,,,569.4538186999998,,,,,,,,,,,,,,,569.4511566000001,569.4538186999998,569.4538186999998,569.4538186999998,572.4319921999995,shoe,None,,,572.4321013000008,572.882887899992,f,572.4477906999964,572.4477906999964,0.421549499995308,None,,,,,,,,,,,,,00065,001,2026-01-20_11h49.32.082,MST_task,2024.2.0,60.15746818670846,2026-01-20 11h49.50.588456 +0530,
,Objects\111a.jpg,133,0,134,,,,,,,f,1.6861141999979736,0.19989270000951365,None,,,,,,134,0,133,572.8980419,,,,,,,,,,,,,,,,,,,,,,,572.8832205999934,572.8980419,573.3822660000005,,,,,,,,,,,,573.4237949999952,,,,,,,,,,,,,,,573.4210290000046,573.4237949999952,573.4237949999952,573.4237949999952,576.3985373000032,indoor,f,1.6861141999979736,0.19989270000951365,576.4040742999932,576.4041429999925,None,,,,,,,,,,,,,,,,,00065,001,2026-01-20_11h49.32.082,MST_task,2024.2.0,60.15746818670846,2026-01-20 11h49.50.588456 +0530,
,Objects\026a.jpg,134,0,135,,,,,,,j,1.1389387999952305,0.14436690000002272,None,,,,,,135,0,134,576.414397799992,,,,,,,,,,,,,,,,,,,,,,,576.4044340999972,576.414397799992,576.8991428000008,,,,,,,,,,,,576.930391300004,,,,,,,,,,,,,,,576.9273333000019,576.930391300004,576.930391300004,576.930391300004,579.9149367999926,indoor,j,1.1389387999952305,0.14436690000002272,579.915067599999,579.9151125999924,None,,,,,,,,,,,,,,,,,00065,001,2026-01-20_11h49.32.082,MST_task,2024.2.0,60.15746818670846,2026-01-20 11h49.50.588456 +0530,
,Objects\096a.jpg,135,0,136,,,,,,,f,1.7319456999975955,0.14410779999161605,None,,,,,,136,0,135,579.9309087000001,,,,,,,,,,,,,,,,,,,,,,,579.9153206000046,579.9309087000001,580.4153602000006,,,,,,,,,,,,580.4338265999977,,,,,,,,,,,,,,,580.4310852999915,580.4338265999977,580.4338265999977,580.4338265999977,583.4313387000002,indoor,f,1.7319456999975955,0.14410779999161605,583.4315055999905,583.431554499999,None,,,,,,,,,,,,,,,,,00065,001,2026-01-20_11h49.32.082,MST_task,2024.2.0,60.15746818670846,2026-01-20 11h49.50.588456 +0530,
,Objects\363a.jpg,136,0,137,,,,,,,f,1.384390399995027,0.17625370000314433,None,,,,,,137,0,136,583.447708599997,,,,,,,,,,,,,,,,,,,,,,,583.4317798999982,583.447708599997,583.9321544999984,,,,,,,,,,,,583.9493933999911,,,,,,,,,,,,,,,583.9463646999939,583.9493933999911,583.9493933999911,583.9493933999911,586.9485912999953,indoor,f,1.384390399995027,0.17625370000314433,586.948733199999,586.948785799992,None,,,,,,,,,,,,,,,,,00065,001,2026-01-20_11h49.32.082,MST_task,2024.2.0,60.15746818670846,2026-01-20 11h49.50.588456 +0530,
,Objects\094a.jpg,137,0,138,,,,,,,f,1.5649590999964857,0.19938980000733864,None,,,,,,138,0,137,586.9643282000034,,,,,,,,,,,,,,,,,,,,,,,586.9490266999928,586.9643282000034,587.4488412999926,,,,,,,,,,,,587.4653751000005,,,,,,,,,,,,,,,587.4630642999982,587.4653751000005,587.4653751000005,587.4653751000005,590.4499144000001,indoor,f,1.5649590999964857,0.19938980000733864,590.4501126999967,590.4501803000021,None,,,,,590.4643472000025,590.4643472000025,590.4643472000025,,,,,,,,,,00065,001,2026-01-20_11h49.32.082,MST_task,2024.2.0,60.15746818670846,2026-01-20 11h49.50.588456 +0530,
,Objects\325a.jpg,138,0,139,,,,,,,f,1.1591172000044025,0.19139459999860264,None,,,,,,139,0,138,590.4643472000025,,,,,,,,,,,,,,,,,,,,,,,590.4504816999979,590.4643472000025,590.9486606999999,,,,,,,,,,,,590.9991347000032,,,,,,,,,,,,,,,590.9956126000034,590.9991347000032,590.9991347000032,590.9991347000032,593.9647523000021,indoor,f,1.1591172000044025,0.19139459999860264,593.9649650999927,593.9650347999996,None,,,,,,,,,,,,,,,,,00065,001,2026-01-20_11h49.32.082,MST_task,2024.2.0,60.15746818670846,2026-01-20 11h49.50.588456 +0530,
,Objects\302a.jpg,139,0,140,,,,,,,j,0.9836820000055013,0.1678496999957133,None,,,,,,140,0,139,593.9812165000039,,,,,,,,,,,,,,,,,,,,,,,593.9653803999972,593.9812165000039,594.4654368000047,,,,,,,,,,,,594.4864811000007,,,,,,,,,,,,,,,594.4835554000019,594.4864811000007,594.4864811000007,594.4864811000007,597.4813963999914,indoor,j,0.9836820000055013,0.1678496999957133,597.4815751999995,597.4816446000041,None,,,,,,,,,,,,,,,,,00065,001,2026-01-20_11h49.32.082,MST_task,2024.2.0,60.15746818670846,2026-01-20 11h49.50.588456 +0530,
,Objects\378a.jpg,140,0,141,,,,,,,j,2.1922816000005696,0.1677818999887677,None,,,,,,141,0,140,597.4976005999924,,,,,,,,,,,,,,,,,,,,,,,597.4819290000014,597.4976005999924,597.9819485999906,,,,,,,,,,,,598.0055399999983,,,,,,,,,,,,,,,598.0029008999991,598.0055399999983,598.0055399999983,598.0055399999983,600.9980163,shoe,j,2.1922816000005696,0.1677818999887677,601.0025135000033,601.0025459000026,None,,,,,,,,,,,,,,,,,00065,001,2026-01-20_11h49.32.082,MST_task,2024.2.0,60.15746818670846,2026-01-20 11h49.50.588456 +0530,
,Objects\091a.jpg,141,0,142,,,,,,,j,1.6041709999990417,0.16739619999134447,None,,,,,,142,0,141,601.0151653999928,,,,,,,,,,,,,,,,,,,,,,,601.0026858999918,601.0151653999928,601.4989679999999,,,,,,,,,,,,601.5458710999956,,,,,,,,,,,,,,,601.5430319000006,601.5458710999956,601.5458710999956,601.5458710999956,604.5147965999931,shoe,j,1.6041709999990417,0.16739619999134447,604.5149685999932,604.5150405000022,None,,,,,,,,,,,,,,,,,00065,001,2026-01-20_11h49.32.082,MST_task,2024.2.0,60.15746818670846,2026-01-20 11h49.50.588456 +0530,
,Objects\270a.jpg,142,0,143,,,,,,,j,0.9801930000103312,0.11968229999183677,None,,,,,,143,0,142,604.5317805999948,,,,,,,,,,,,,,,,,,,,,,,604.5154182999977,604.5317805999948,605.0155272999982,,,,,,,,,,,,605.0342677000008,,,,,,,,,,,,,,,605.0310390999948,605.0342677000008,605.0342677000008,605.0342677000008,608.0314732999977,shoe,j,0.9801930000103312,0.11968229999183677,608.0316316999961,608.0316964999947,None,,,,,,,,,,,,,,,,,00065,001,2026-01-20_11h49.32.082,MST_task,2024.2.0,60.15746818670846,2026-01-20 11h49.50.588456 +0530,
,Objects\341a.jpg,143,0,144,,,,,,,None,,,j,0.4974497999937739,None,,,,144,0,143,608.0476037999906,,,,,,,,,,,,,,,,,,,,,,,608.0319776999968,608.0476037999906,608.5320814000006,,,,,,,,,,,,608.5819610000035,,,,,,,,,,,,,,,608.5785139999934,608.5819610000035,608.5819610000035,608.5819610000035,611.5482647000026,shoe,None,,,611.5483578999992,612.065866399993,j,611.5643162999913,611.5643162999913,0.4974497999937739,None,,,,,,,,,,,,,00065,001,2026-01-20_11h49.32.082,MST_task,2024.2.0,60.15746818670846,2026-01-20 11h49.50.588456 +0530,
,Objects\062a.jpg,144,0,145,,,,,,,j,1.404805900005158,0.13610519999929238,None,,,,,,145,0,144,612.0813557999936,,,,,,,,,,,,,,,,,,,,,,,612.0661630999966,612.0813557999936,612.5657116999937,,,,,,,,,,,,612.5851355999912,,,,,,,,,,,,,,,612.5819626000011,612.5851355999912,612.5851355999912,612.5851355999912,615.5815038000001,shoe,j,1.404805900005158,0.13610519999929238,615.5816850999981,615.5817578999995,None,,,,,,,,,,,,,,,,,00065,001,2026-01-20_11h49.32.082,MST_task,2024.2.0,60.15746818670846,2026-01-20 11h49.50.588456 +0530,
,Objects\195a.jpg,145,0,146,,,,,,,j,0.9695510000019567,0.1526896999857854,None,,,,,,146,0,145,615.5976186000044,,,,,,,,,,,,,,,,,,,,,,,615.5820693999995,615.5976186000044,616.0822208000027,,,,,,,,,,,,616.1091181999946,,,,,,,,,,,,,,,616.106034299999,616.1091181999946,616.1091181999946,616.1091181999946,619.0981821000023,shoe,j,0.9695510000019567,0.1526896999857854,619.0983574999991,619.0984271999914,None,,,,,,,,,,,,,,,,,00065,001,2026-01-20_11h49.32.082,MST_task,2024.2.0,60.15746818670846,2026-01-20 11h49.50.588456 +0530,
,Objects\272a.jpg,146,0,147,,,,,,,f,1.3557539000030374,0.18407719999959227,None,,,,,,147,0,146,619.1146708000015,,,,,,,,,,,,,,,,,,,,,,,619.0987405999913,619.1146708000015,619.5989020999987,,,,,,,,,,,,619.6180194999906,,,,,,,,,,,,,,,619.6147988000012,619.6180194999906,619.6180194999906,619.6180194999906,622.6148050999909,shoe,f,1.3557539000030374,0.18407719999959227,622.6149974,622.6150676999969,None,,,,,,,,,,,,,,,,,00065,001,2026-01-20_11h49.32.082,MST_task,2024.2.0,60.15746818670846,2026-01-20 11h49.50.588456 +0530,
,Objects\306a.jpg,147,0,148,,,,,,,f,2.0281249999970896,0.1929089000041131,None,,,,,,148,0,147,622.6311146999942,,,,,,,,,,,,,,,,,,,,,,,622.615407499994,622.6311146999942,623.1153945999977,,,,,,,,,,,,623.1369517999992,,,,,,,,,,,,,,,623.1337740000017,623.1369517999992,623.1369517999992,623.1369517999992,626.1315147999994,indoor,f,2.0281249999970896,0.1929089000041131,626.1363218999904,626.136391299995,None,,,,,,,,,,,,,,,,,00065,001,2026-01-20_11h49.32.082,MST_task,2024.2.0,60.15746818670846,2026-01-20 11h49.50.588456 +0530,
,Objects\311a.jpg,148,0,149,,,,,,,j,1.5889186000131303,0.16872869999497198,None,,,,,,149,0,148,626.1477206999989,,,,,,,,,,,,,,,,,,,,,,,626.1366304999974,626.1477206999989,626.6319956999941,,,,,,,,,,,,626.6813547999918,,,,,,,,,,,,,,,626.6786332999909,626.6813547999918,626.6813547999918,626.6813547999918,629.6483030999952,indoor,j,1.5889186000131303,0.16872869999497198,629.6484180999978,629.648460299999,None,,,,,,,,,,,,,,,,,00065,001,2026-01-20_11h49.32.082,MST_task,2024.2.0,60.15746818670846,2026-01-20 11h49.50.588456 +0530,
,Objects\274a.jpg,149,0,150,,,,,,,f,1.463768000001437,0.17522649999591522,None,,,,,,150,0,149,629.6644035999925,,,,,,,,,,,,,,,,,,,,,,,629.6486568999971,629.6644035999925,630.1486714999919,,,,,,,,,,,,630.1669098999992,,,,,,,,,,,,,,,630.1641125000024,630.1669098999992,630.1669098999992,630.1669098999992,633.1650823999953,indoor,f,1.463768000001437,0.17522649999591522,633.165273199993,633.1653493999911,None,,,,,,,,,,,,,,,,,00065,001,2026-01-20_11h49.32.082,MST_task,2024.2.0,60.15746818670846,2026-01-20 11h49.50.588456 +0530,
,Objects\078a.jpg,150,0,151,,,,,,,j,1.191987500002142,0.24057579999498557,None,,,,,,151,0,150,633.1810048999905,,,,,,,,,,,,,,,,,,,,,,,633.1656768999965,633.1810048999905,633.6654112999968,,,,,,,,,,,,633.685616799994,,,,,,,,,,,,,,,633.682871099998,633.685616799994,633.685616799994,633.685616799994,636.6815422999935,indoor,j,1.191987500002142,0.24057579999498557,636.6817093999998,636.6817788999906,None,,,,,,,,,,,,,,,,,00065,001,2026-01-20_11h49.32.082,MST_task,2024.2.0,60.15746818670846,2026-01-20 11h49.50.588456 +0530,
,Objects\102a.jpg,151,0,152,,,,,,,f,1.562267500004964,0.19274109999241773,None,,,,,,152,0,151,636.6977728999918,,,,,,,,,,,,,,,,,,,,,,,636.6820286000002,636.6977728999918,637.1818957999931,,,,,,,,,,,,637.2029286000034,,,,,,,,,,,,,,,637.1999898999929,637.2029286000034,637.2029286000034,637.2029286000034,640.1984491000039,indoor,f,1.562267500004964,0.19274109999241773,640.1986292999936,640.1986981999944,None,,,,,,,,,,,,,,,,,00065,001,2026-01-20_11h49.32.082,MST_task,2024.2.0,60.15746818670846,2026-01-20 11h49.50.588456 +0530,
,Objects\014a.jpg,152,0,153,,,,,,,f,1.2136981000076048,0.16106060000311118,None,,,,,,153,0,152,640.2146337000013,,,,,,,,,,,,,,,,,,,,,,,640.198967999997,640.2146337000013,640.6987317000021,,,,,,,,,,,,640.719849999994,,,,,,,,,,,,,,,640.7167594999919,640.719849999994,640.719849999994,640.719849999994,643.7148564999952,indoor,f,1.2136981000076048,0.16106060000311118,643.7150203999918,643.7150624999922,None,,,,,,,,,,,,,,,,,00065,001,2026-01-20_11h49.32.082,MST_task,2024.2.0,60.15746818670846,2026-01-20 11h49.50.588456 +0530,
,Objects\251a.jpg,153,0,154,,,,,,,f,0.9621919999917736,0.19299429999955464,None,,,,,,154,0,153,643.7312378999923,,,,,,,,,,,,,,,,,,,,,,,643.7152558999951,643.7312378999923,644.2156880999974,,,,,,,,,,,,644.2353872999956,,,,,,,,,,,,,,,644.232107799995,644.2353872999956,644.2353872999956,644.2353872999956,647.2153279000049,indoor,f,0.9621919999917736,0.19299429999955464,647.2154463999905,647.2154878000001,None,,,,,,,,,,,,,,,,,00065,001,2026-01-20_11h49.32.082,MST_task,2024.2.0,60.15746818670846,2026-01-20 11h49.50.588456 +0530,
,Objects\037a.jpg,154,0,155,,,,,,,f,2.4208285000058822,0.17516929999692366,None,,,,,,155,0,154,647.2309535999957,,,,,,,,,,,,,,,,,,,,,,,647.2156829000014,647.2309535999957,647.7154921000038,,,,,,,,,,,,647.7376596999966,,,,,,,,,,,,,,,647.7344539000042,647.7376596999966,647.7376596999966,647.7376596999966,650.7318861999956,shoe,f,2.4208285000058822,0.17516929999692366,650.7371555999998,650.7371951999958,None,,,,,,,,,,,,,,,,,00065,001,2026-01-20_11h49.32.082,MST_task,2024.2.0,60.15746818670846,2026-01-20 11h49.50.588456 +0530,
,Objects\340a.jpg,155,0,156,,,,,,,f,1.8143923000025097,0.15973109999322332,None,,,,,,156,0,155,650.7477328999958,,,,,,,,,,,,,,,,,,,,,,,650.7374030999927,650.7477328999958,651.2324583000009,,,,,,,,,,,,651.2564211999997,,,,,,,,,,,,,,,651.2528529999981,651.2564211999997,651.2564211999997,651.2564211999997,654.2483001999935,shoe,f,1.8143923000025097,0.15973109999322332,654.2484079999995,654.2484497999976,None,,,,,,,,,,,,,,,,,00065,001,2026-01-20_11h49.32.082,MST_task,2024.2.0,60.15746818670846,2026-01-20 11h49.50.588456 +0530,
,Objects\298a.jpg,156,0,157,,,,,,,j,1.0599232999957167,0.16639969999960158,None,,,,,,157,0,156,654.2644598000043,,,,,,,,,,,,,,,,,,,,,,,654.2486392999999,654.2644598000043,654.7488188999996,,,,,,,,,,,,654.7712537999905,,,,,,,,,,,,,,,654.7679156999948,654.7712537999905,654.7712537999905,654.7712537999905,657.7648381000035,shoe,j,1.0599232999957167,0.16639969999960158,657.7649487000017,657.7649919999967,None,,,,,,,,,,,,,,,,,00065,001,2026-01-20_11h49.32.082,MST_task,2024.2.0,60.15746818670846,2026-01-20 11h49.50.588456 +0530,
,Objects\242a.jpg,157,0,158,,,,,,,j,1.3524866000079783,0.15188669999770354,None,,,,,,158,0,157,657.7809494999965,,,,,,,,,,,,,,,,,,,,,,,657.7651860000042,657.7809494999965,658.2653732000035,,,,,,,,,,,,658.2929062000039,,,,,,,,,,,,,,,658.2894842999958,658.2929062000039,658.2929062000039,658.2929062000039,661.2811422999948,shoe,j,1.3524866000079783,0.15188669999770354,661.2812415999942,661.2812792000041,None,,,,,,,,,,,,,,,,,00065,001,2026-01-20_11h49.32.082,MST_task,2024.2.0,60.15746818670846,2026-01-20 11h49.50.588456 +0530,
,Objects\365a.jpg,158,0,159,,,,,,,f,2.018368199991528,0.15290910001203883,None,,,,,,159,0,158,661.2977282999927,,,,,,,,,,,,,,,,,,,,,,,661.2814523999987,661.2977282999927,661.7820841999928,,,,,,,,,,,,661.8032288999966,,,,,,,,,,,,,,,661.7996377999953,661.8032288999966,661.8032288999966,661.8032288999966,664.7814597999968,shoe,f,2.018368199991528,0.15290910001203883,664.7815880999988,664.7816331999929,None,,,,,,,,,,,,,,,,,00065,001,2026-01-20_11h49.32.082,MST_task,2024.2.0,60.15746818670846,2026-01-20 11h49.50.588456 +0530,
,Objects\182a.jpg,159,0,160,,,,,,,j,1.2135427000030177,0.18397809998714365,None,,,,,,160,0,159,664.7977327999979,,,,,,,,,,,,,,,,,,,,,,,664.7818356999924,664.7977327999979,665.282286200003,,,,,,,,,,,,665.3042666999972,,,,,,,,,,,,,,,665.3010542999982,665.3042666999972,665.3042666999972,665.3042666999972,668.2983252999984,shoe,j,1.2135427000030177,0.18397809998714365,668.298501600002,668.2985705000028,None,,,,,,,,,,,,,,,,,00065,001,2026-01-20_11h49.32.082,MST_task,2024.2.0,60.15746818670846,2026-01-20 11h49.50.588456 +0530,
,Objects\171a.jpg,160,0,161,,,,,,,j,0.7487817999935942,0.1588023000076646,None,,,,,,161,0,160,668.3143836999952,,,,,,,,,,,,,,,,,,,,,,,668.2988823999913,668.3143836999952,668.7987357999955,,,,,,,,,,,,668.8422800999979,,,,,,,,,,,,,,,668.8393830999994,668.8422800999979,668.8422800999979,668.8422800999979,671.8147924999939,shoe,j,0.7487817999935942,0.1588023000076646,671.8149583999912,671.8150006999931,None,,,,,,,,,,,,,,,,,00065,001,2026-01-20_11h49.32.082,MST_task,2024.2.0,60.15746818670846,2026-01-20 11h49.50.588456 +0530,
,Objects\317a.jpg,161,0,162,,,,,,,j,2.5560822000115877,0.16798309999285266,None,,,,,,162,0,161,671.830951099997,,,,,,,,,,,,,,,,,,,,,,,671.8152865000011,671.830951099997,672.3154351999983,,,,,,,,,,,,672.3379936999991,,,,,,,,,,,,,,,672.3350944999984,672.3379936999991,672.3379936999991,672.3379936999991,675.3313595999934,indoor,j,2.5560822000115877,0.16798309999285266,675.3366409000009,675.3367083000048,None,,,,,,,,,,,,,,,,,00065,001,2026-01-20_11h49.32.082,MST_task,2024.2.0,60.15746818670846,2026-01-20 11h49.50.588456 +0530,
,Objects\101a.jpg,162,0,163,,,,,,,j,1.3206359000032535,0.15835969999898225,None,,,,,,163,0,162,675.3483130999957,,,,,,,,,,,,,,,,,,,,,,,675.3369380999939,675.3483130999957,675.832150000002,,,,,,,,,,,,675.8542013999977,,,,,,,,,,,,,,,675.8509623999998,675.8542013999977,675.8542013999977,675.8542013999977,678.8480946999916,indoor,j,1.3206359000032535,0.15835969999898225,678.8482214999967,678.8482653999963,None,,,,,,,,,,,,,,,,,00065,001,2026-01-20_11h49.32.082,MST_task,2024.2.0,60.15746818670846,2026-01-20 11h49.50.588456 +0530,
,Objects\065a.jpg,163,0,164,,,,,,,None,,,f,None,None,,,,164,0,163,678.8646977000026,,,,,,,,,,,,,,,,,,,,,,,678.8484795999975,678.8646977000026,679.3492880999984,,,,,,,,,,,,679.3679799999954,,,,,,,,,,,,,,,679.365023899998,679.3679799999954,679.3679799999954,679.3679799999954,682.3484950999991,indoor,None,,,682.3486250999995,682.5494788999931,f,682.3644848999975,682.3644848999975,None,None,,,,,,,,,,,,,00065,001,2026-01-20_11h49.32.082,MST_task,2024.2.0,60.15746818670846,2026-01-20 11h49.50.588456 +0530,
,Objects\249a.jpg,164,0,165,,,,,,,j,1.0576740999968024,0.18390350000117905,None,,,,,,165,0,164,682.5644156999915,,,,,,,,,,,,,,,,,,,,,,,682.5498534999933,682.5644156999915,683.0488402999908,,,,,,,,,,,,683.1001624999917,,,,,,,,,,,,,,,683.0973761999921,683.1001624999917,683.1001624999917,683.1001624999917,686.0647370999941,indoor,j,1.0576740999968024,0.18390350000117905,686.0648636999977,686.0649115999986,None,,,,,,,,,,,,,,,,,00065,001,2026-01-20_11h49.32.082,MST_task,2024.2.0,60.15746818670846,2026-01-20 11h49.50.588456 +0530,
,Objects\276a.jpg,165,0,166,,,,,,,j,1.122436599995126,0.15910260000964627,None,,,,,,166,0,165,686.081253700002,,,,,,,,,,,,,,,,,,,,,,,686.0651319000026,686.081253700002,686.5657391999994,,,,,,,,,,,,686.5879334999918,,,,,,,,,,,,,,,686.5837868999952,686.5879334999918,686.5879334999918,686.5879334999918,689.5814327999979,indoor,j,1.122436599995126,0.15910260000964627,689.5815622999944,689.5816094000038,None,,,,,,,,,,,,,,,,,00065,001,2026-01-20_11h49.32.082,MST_task,2024.2.0,60.15746818670846,2026-01-20 11h49.50.588456 +0530,
,Objects\136a.jpg,166,0,167,,,,,,,f,1.9199328999966383,0.22425769999972545,None,,,,,,167,0,166,689.5976940999972,,,,,,,,,,,,,,,,,,,,,,,689.5818268000003,689.5976940999972,690.0821578000032,,,,,,,,,,,,,,,,,,,,,,,,,,,690.0991902999958,690.102336099997,690.102336099997,690.102336099997,693.098059099997,indoor,f,1.9199328999966383,0.22425769999972545,693.0982591999928,693.0983256000036,None,,,,,,,,,,,,,,,,,00065,001,2026-01-20_11h49.32.082,MST_task,2024.2.0,60.15746818670846,2026-01-20 11h49.50.588456 +0530,
,Objects\253a.jpg,167,0,168,,,,,,,f,0.6687369999999646,0.1922714999964228,None,,,,,,168,0,167,693.1151837999932,,,,,,,,,,,,,,,,,,,,,,,693.0986580000026,693.1151837999932,693.5990811999945,,,,,,,,,,,,693.6175286999933,,,,,,,,,,,,,,,693.6148427000007,693.6175286999933,693.6175286999933,693.6175286999933,696.6148439999961,indoor,f,0.6687369999999646,0.1922714999964228,696.6150130000024,696.6150579999958,None,,,,,,,,,,,,,,,,,00065,001,2026-01-20_11h49.32.082,MST_task,2024.2.0,60.15746818670846,2026-01-20 11h49.50.588456 +0530,
,Objects\212a.jpg,168,0,169,,,,,,,j,1.5092115000006743,0.16839880000043195,None,,,,,,169,0,168,696.6310590999929,,,,,,,,,,,,,,,,,,,,,,,696.6152572999999,696.6310590999929,697.1154043999995,,,,,,,,,,,,697.1445573999954,,,,,,,,,,,,,,,697.1408741999912,697.1445573999954,697.1445573999954,697.1445573999954,700.1152545999939,shoe,j,1.5092115000006743,0.16839880000043195,700.1207911999954,700.1208441999916,None,,,,,,,,,,,,,,,,,00065,001,2026-01-20_11h49.32.082,MST_task,2024.2.0,60.15746818670846,2026-01-20 11h49.50.588456 +0530,
,Objects\022a.jpg,169,0,170,,,,,,,f,2.2149037000053795,0.191142999989097,None,,,,,,170,0,169,700.1311580000038,,,,,,,,,,,,,,,,,,,,,,,700.1210592999996,700.1311580000038,700.6156530000007,,,,,,,,,,,,700.6391464000044,,,,,,,,,,,,,,,700.6354041000013,700.6391464000044,700.6391464000044,700.6391464000044,703.6314772000042,shoe,f,2.2149037000053795,0.191142999989097,703.6316585000022,703.631727999993,None,,,,,,,,,,,,,,,,,00065,001,2026-01-20_11h49.32.082,MST_task,2024.2.0,60.15746818670846,2026-01-20 11h49.50.588456 +0530,
,Objects\231a.jpg,170,0,171,,,,,,,j,2.075772100011818,0.19341989999520592,None,,,,,,171,0,170,703.6476492999936,,,,,,,,,,,,,,,,,,,,,,,703.6320475999964,703.6476492999936,704.1323298999923,,,,,,,,,,,,704.1536460999923,,,,,,,,,,,,,,,704.1508861000038,704.1536460999923,704.1536460999923,704.1536460999923,707.1482432000048,shoe,j,2.075772100011818,0.19341989999520592,707.1484646000026,707.1485347999987,None,,,,,,,,,,,,,,,,,00065,001,2026-01-20_11h49.32.082,MST_task,2024.2.0,60.15746818670846,2026-01-20 11h49.50.588456 +0530,
,Objects\278a.jpg,171,0,172,,,,,,,None,,,j,0.4521110000059707,None,,,,172,0,171,707.1645038999995,,,,,,,,,,,,,,,,,,,,,,,707.1488443999988,707.1645038999995,707.6490494000027,,,,,,,,,,,,707.6712105999904,,,,,,,,,,,,,,,707.6675651999976,707.6712105999904,707.6712105999904,707.6712105999904,710.6648285999981,shoe,None,,,710.6649807999929,711.1496119999938,j,710.6814209000004,710.6814209000004,0.4521110000059707,None,,,,,,,,,,,,,00065,001,2026-01-20_11h49.32.082,MST_task,2024.2.0,60.15746818670846,2026-01-20 11h49.50.588456 +0530,
