Sl_no,image_path,thisN,thisTrialN,thisRepN,key_resp_5.keys,key_resp_7.keys,key_resp_7.rt,key_resp_7.duration,key_resp_5.rt,key_resp_5.duration,key_resp_9.keys,key_resp_9.rt,key_resp_9.duration,key_resp_8.keys,key_resp_8.rt,key_resp_8.duration,practice.thisRepN,practice.thisTrialN,practice.thisN,trials.thisRepN,trials.thisTrialN,trials.thisN,thisRow.t,notes,welcome_page.started,text.started,key_resp.started,welcome_page.stopped,key_resp.keys,key_resp.rt,key_resp.duration,instructions.started,ins.started,key_resp_2.started,instructions.stopped,key_resp_2.keys,key_resp_2.rt,key_resp_2.duration,objects_only_instruction.started,text_3.started,key_resp_3.started,objects_only_instruction.stopped,key_resp_3.keys,key_resp_3.rt,key_resp_3.duration,ISI.started,text_4.started,ISI.stopped,practice_block.started,image.started,key_resp_5.started,text_5.started,practice_block.stopped,practice.key_resp_5.keys,indoor_outdoor.started,text_7.started,key_resp_7.started,indoor_outdoor.stopped,practice.key_resp_7.keys,practice.key_resp_7.rt,practice.key_resp_7.duration,text_4.stopped,practice.key_resp_5.rt,practice.key_resp_5.duration,practice_to_main.started,text_2.started,key_resp_4.started,practice_to_main.stopped,key_resp_4.keys,key_resp_4.rt,key_resp_4.duration,objects.started,image_2.started,text_9.started,key_resp_9.started,objects.stopped,category,trials.key_resp_9.keys,trials.key_resp_9.rt,trials.key_resp_9.duration,encoding_task.started,encoding_task.stopped,trials.key_resp_8.keys,text_8.started,key_resp_8.started,trials.key_resp_8.rt,trials.key_resp_8.duration,end_experiment.started,text_6.started,key_resp_6.started,end_experiment.stopped,key_resp_6.keys,key_resp_6.rt,key_resp_6.duration,list_of_stimuli,encoding_task_accuracy,participant,session,date,expName,psychopyVersion,frameRate,expStart,
,,,,,,,,,,,,,,,,,,,,,,,,,0.0012120000010327203,0.003688000000693137,0.003688000000693137,8.919850000000224,space,8.907070199998998,None,,,,,,,,,,,,,,,,,,,,,,,,,,,,,,,,,,,,,,,,,,,,,,,,,,,,,,,,,,,,,,,,,,00069,001,2026-01-25_15h44.35.264,MST_task,2024.2.0,59.763182413380974,2026-01-25 15h44.41.088682 +0530,
,,,,,,,,,,,,,,,,,,,,,,,,,,,,,,,,8.91988670000137,8.932366200000615,8.932366200000615,12.366175900000599,space,3.418090699999084,None,,,,,,,,,,,,,,,,,,,,,,,,,,,,,,,,,,,,,,,,,,,,,,,,,,,,,,,,,,,00069,001,2026-01-25_15h44.35.264,MST_task,2024.2.0,59.763182413380974,2026-01-25 15h44.41.088682 +0530,
,,,,,,,,,,,,,,,,,,,,,,,,,,,,,,,,,,,,,,,12.36628380000002,12.393249000000651,12.393249000000651,13.932877700000972,space,1.5332823999997345,None,,,,,,,,,,,,,,,,,,,,,,,,,,,,,,,,,,,,,,,,,,,,,,,,,,,,00069,001,2026-01-25_15h44.35.264,MST_task,2024.2.0,59.763182413380974,2026-01-25 15h44.41.088682 +0530,
9,practice_images/180a.jpg,0,0,1,None,f,1.8376330999999482,None,,,,,,,,,1,0,0,,,,13.96445020000101,,,,,,,,,,,,,,,,,,,,,,,13.961653399999705,13.96445020000101,14.449408600001334,14.496384400001261,14.539821899999879,14.539821899999879,14.539821899999879,17.449561500001437,None,17.455185900000288,17.465485599999738,17.465485599999738,19.316377099999954,f,1.8376330999999482,None,,,,,,,,,,,,,,,,,,,,,,,,,,,,,,,,,,,,00069,001,2026-01-25_15h44.35.264,MST_task,2024.2.0,59.763182413380974,2026-01-25 15h44.41.088682 +0530,
3,practice_images/037a.jpg,1,1,1,f,None,,,2.304497299999639,0.11186160000033851,,,,,,,1,1,1,,,,19.332436400000006,,,,,,,,,,,,,,,,,,,,,,,19.316733400000885,19.332436400000006,19.816234100000656,19.835613600000215,19.838612499999726,19.838612499999726,19.838612499999726,22.817279700000654,f,22.817428100001052,,,22.81749090000085,None,,,19.838612499999726,2.304497299999639,0.11186160000033851,,,,,,,,,,,,,,,,,,,,,,,,,,,,,,,,,00069,001,2026-01-25_15h44.35.264,MST_task,2024.2.0,59.763182413380974,2026-01-25 15h44.41.088682 +0530,
7,practice_images/166a.jpg,2,2,1,f,None,,,2.547196999999869,0.16830579999987094,,,,,,,1,2,2,,,,22.832433499999752,,,,,,,,,,,,,,,,,,,,,,,22.817765800000416,22.832433499999752,23.316223200001332,23.33664409999983,23.339911799999754,23.339911799999754,23.339911799999754,26.332604100000026,f,26.332745600000635,,,26.33280780000132,None,,,23.339911799999754,2.547196999999869,0.16830579999987094,,,,,,,,,,,,,,,,,,,,,,,,,,,,,,,,,00069,001,2026-01-25_15h44.35.264,MST_task,2024.2.0,59.763182413380974,2026-01-25 15h44.41.088682 +0530,
2,practice_images/031a.jpg,3,3,1,None,j,0.4932501000002958,None,,,,,,,,,1,3,3,,,,26.349182900001324,,,,,,,,,,,,,,,,,,,,,,,26.333079500000167,26.349182900001324,26.83282060000056,26.854254600000786,26.857048699999723,26.857048699999723,26.857048699999723,29.849391900001137,None,29.849515100000644,29.86585120000018,29.86585120000018,30.366359999999986,j,0.4932501000002958,None,26.857048699999723,,,,,,,,,,,,,,,,,,,,,,,,,,,,,,,,,,,00069,001,2026-01-25_15h44.35.264,MST_task,2024.2.0,59.763182413380974,2026-01-25 15h44.41.088682 +0530,
1,practice_images/013a.jpg,4,4,1,j,None,,,1.86490749999939,0.1358531000005314,,,,,,,1,4,4,,,,30.38245040000038,,,,,,,,,,,,,,,,,,,,,,,30.366701500001,30.38245040000038,30.86624490000031,30.890988900000593,30.894361800001207,30.894361800001207,30.894361800001207,33.882443700000294,j,33.88257909999993,,,33.88263720000032,None,,,30.894361800001207,1.86490749999939,0.1358531000005314,,,,,,,,,,,,,,,,,,,,,,,,,,,,,,,,,00069,001,2026-01-25_15h44.35.264,MST_task,2024.2.0,59.763182413380974,2026-01-25 15h44.41.088682 +0530,
4,practice_images/002b.jpg,5,5,1,None,j,1.4233636999997543,None,,,,,,,,,1,5,5,,,,33.89882860000034,,,,,,,,,,,,,,,,,,,,,,,33.8828938000006,33.89882860000034,34.382857700000386,34.40786819999994,34.41000950000125,34.41000950000125,34.41000950000125,37.382947900001454,None,37.38910450000003,37.39922780000052,37.39922780000052,38.83289359999981,j,1.4233636999997543,None,34.41000950000125,,,,,,,,,,,,,,,,,,,,,,,,,,,,,,,,,,,00069,001,2026-01-25_15h44.35.264,MST_task,2024.2.0,59.763182413380974,2026-01-25 15h44.41.088682 +0530,
8,practice_images/178a.jpg,6,6,1,None,f,0.8003521999999066,None,,,,,,,,,1,6,6,,,,38.84918950000065,,,,,,,,,,,,,,,,,,,,,,,38.83321210000031,38.84918950000065,39.3328161999998,39.35016040000119,39.353181000000404,39.353181000000404,39.353181000000404,42.35089880000123,None,42.35102780000125,42.36638630000016,42.36638630000016,43.1839058000005,f,0.8003521999999066,None,39.353181000000404,,,,,,,,,,,,,,,,,,,,,,,,,,,,,,,,,,,00069,001,2026-01-25_15h44.35.264,MST_task,2024.2.0,59.763182413380974,2026-01-25 15h44.41.088682 +0530,
5,practice_images/139a.jpg,7,7,1,None,j,0.2347938000002614,None,,,,,,,,,1,7,7,,,,43.199191300000166,,,,,,,,,,,,,,,,,,,,,,,43.18423310000071,43.199191300000166,43.68286369999987,43.7037818000008,43.70680710000124,43.70680710000124,43.70680710000124,46.69950170000084,None,46.69963500000085,46.71586500000012,46.71586500000012,46.9662739000014,j,0.2347938000002614,None,43.70680710000124,,,,,,,,,,,,,,,,,,,,,,,,,,,,,,,,,,,00069,001,2026-01-25_15h44.35.264,MST_task,2024.2.0,59.763182413380974,2026-01-25 15h44.41.088682 +0530,
6,practice_images/158a.jpg,8,8,1,j,None,,,1.4767265999998926,0.16036910000002536,,,,,,,1,8,8,,,,46.98245810000117,,,,,,,,,,,,,,,,,,,,,,,46.96658910000042,46.98245810000117,47.46789239999998,47.48658840000098,47.4900159000008,47.4900159000008,47.4900159000008,50.482843600000706,j,50.482986099999835,,,50.48304530000132,None,,,,1.4767265999998926,0.16036910000002536,,,,,,,,,,,,,,,,,,,,,,,,,,,,,,,,,00069,001,2026-01-25_15h44.35.264,MST_task,2024.2.0,59.763182413380974,2026-01-25 15h44.41.088682 +0530,
10,practice_images/182a.jpg,9,9,1,f,None,,,2.3888434000000416,0.20801179999943997,,,,,,,1,9,9,,,,50.49919829999999,,,,,,,,,,,,,,,,,,,,,,,50.483322100000805,50.49919829999999,50.982890600000246,51.01407250000011,51.018301500000234,51.018301500000234,51.018301500000234,53.99959730000046,f,53.99974110000039,,,53.99980230000074,None,,,51.018301500000234,2.3888434000000416,0.20801179999943997,,,,,,,,,,,,,,,,,,,,,,,,,,,,,,,,,00069,001,2026-01-25_15h44.35.264,MST_task,2024.2.0,59.763182413380974,2026-01-25 15h44.41.088682 +0530,
,,,,,,,,,,,,,,,,,,,,,,,,,,,,,,,,,,,,,,,,,,,,,,,,,,,,,,,,,,,,,,,,,53.999984300000506,54.015536700000666,54.015536700000666,55.682861299999786,space,1.6631751999993867,None,,,,,,,,,,,,,,,,,,,,,,,,,,00069,001,2026-01-25_15h44.35.264,MST_task,2024.2.0,59.763182413380974,2026-01-25 15h44.41.088682 +0530,
,Objects\207a.jpg,0,0,1,,,,,,,j,2.841325000001234,None,None,,,,,,1,0,0,55.698948200000814,,,,,,,,,,,,,,,,,,,,,,,55.68611630000123,55.698948200000814,56.182867200001056,,,,,,,,,,,,,,56.30126550000023,,,,,,,,,,56.297164700001304,56.30126550000023,56.30126550000023,56.30126550000023,59.19959750000089,shoe,j,2.841325000001234,None,59.20611149999968,59.206176499999856,None,,,,,,,,,,,,,,00069,001,2026-01-25_15h44.35.264,MST_task,2024.2.0,59.763182413380974,2026-01-25 15h44.41.088682 +0530,
,Objects\363a.jpg,1,0,2,,,,,,,f,2.6036237999996956,0.19994860000042536,None,,,,,,2,0,1,59.21582500000113,,,,,,,,,,,,,,,,,,,,,,,59.20642820000103,59.21582500000113,59.699360600001455,,,,,,,,,,,,,,59.746775499999785,,,,,,,,,,59.743758000000525,59.746775499999785,59.746775499999785,59.746775499999785,62.71616710000126,shoe,f,2.6036237999996956,0.19994860000042536,62.716336299999966,62.71640020000086,None,,,,,,,,,,,,,,00069,001,2026-01-25_15h44.35.264,MST_task,2024.2.0,59.763182413380974,2026-01-25 15h44.41.088682 +0530,
,Objects\328a.jpg,2,0,3,,,,,,,None,,,f,4.757666299999983,None,,,,3,0,2,62.732036000001244,,,,,,,,,,,,,,,,,,,,,,,62.71669430000111,62.732036000001244,63.216215500000544,,,,,,,,,,,,,,63.27516380000088,,,,,,,,,,63.27249240000128,63.27516380000088,63.27516380000088,63.27516380000088,66.23284290000083,shoe,None,,,66.2329907000003,71.0164050000003,f,66.24922080000033,66.24922080000033,4.757666299999983,None,,,,,,,,,,00069,001,2026-01-25_15h44.35.264,MST_task,2024.2.0,59.763182413380974,2026-01-25 15h44.41.088682 +0530,
,Objects\011a.jpg,3,0,4,,,,,,,None,,,f,1.8497665000013512,None,,,,4,0,3,71.03246740000031,,,,,,,,,,,,,,,,,,,,,,,71.01676709999992,71.03246740000031,71.5162806999997,,,,,,,,,,,,,,71.56120460000056,,,,,,,,,,71.55840140000146,71.56120460000056,71.56120460000056,71.56120460000056,74.53288179999981,shoe,None,,,74.5330382000011,76.40030920000027,f,74.54924550000032,74.54924550000032,1.8497665000013512,None,,,,,,,,,,00069,001,2026-01-25_15h44.35.264,MST_task,2024.2.0,59.763182413380974,2026-01-25 15h44.41.088682 +0530,
,Objects\366a.jpg,4,0,5,,,,,,,None,,,j,0.7388941999997769,None,,,,5,0,4,76.41555270000026,,,,,,,,,,,,,,,,,,,,,,,76.40066540000043,76.41555270000026,76.89963160000116,,,,,,,,,,,,,,76.94070920000013,,,,,,,,,,76.93804590000036,76.94070920000013,76.94070920000013,76.94070920000013,79.91628090000086,shoe,None,,,79.91643020000083,80.68314920000012,j,79.93220010000005,79.93220010000005,0.7388941999997769,None,,,,,,,,,,00069,001,2026-01-25_15h44.35.264,MST_task,2024.2.0,59.763182413380974,2026-01-25 15h44.41.088682 +0530,
,Objects\254a.jpg,5,0,6,,,,,,,None,,,j,5.030596599999626,None,,,,6,0,5,80.69923519999975,,,,,,,,,,,,,,,,,,,,,,,80.68350370000007,80.69923519999975,81.18289920000097,,,,,,,,,,,,,,81.23460979999982,,,,,,,,,,81.23183210000025,81.23460979999982,81.23460979999982,81.23460979999982,84.1995637,shoe,None,,,84.19971489999989,89.24938840000141,j,84.21586080000088,84.21586080000088,5.030596599999626,None,,,,,,,,,,00069,001,2026-01-25_15h44.35.264,MST_task,2024.2.0,59.763182413380974,2026-01-25 15h44.41.088682 +0530,
,Objects\147a.jpg,6,0,7,,,,,,,None,,,j,0.11986459999934596,None,,,,7,0,6,89.26594240000122,,,,,,,,,,,,,,,,,,,,,,,89.24984260000019,89.26594240000122,89.74977310000031,,,,,,,,,,,,,,89.80143230000067,,,,,,,,,,89.79840560000048,89.80143230000067,89.80143230000067,89.80143230000067,92.76595559999987,shoe,None,,,92.76610570000048,92.91635330000099,j,92.78258430000096,92.78258430000096,0.11986459999934596,None,,,,,,,,,,00069,001,2026-01-25_15h44.35.264,MST_task,2024.2.0,59.763182413380974,2026-01-25 15h44.41.088682 +0530,
,Objects\004a.jpg,7,0,8,,,,,,,None,,,f,1.9014082000012422,None,,,,8,0,7,92.93259540000145,,,,,,,,,,,,,,,,,,,,,,,92.91669139999976,92.93259540000145,93.41625380000005,,,,,,,,,,,,,,93.45910660000118,,,,,,,,,,93.45729380000012,93.45910660000118,93.45910660000118,93.45910660000118,96.43361900000127,indoor,None,,,96.43870950000019,98.36637300000075,f,96.44926280000072,96.44926280000072,1.9014082000012422,None,,,,,,,,,,00069,001,2026-01-25_15h44.35.264,MST_task,2024.2.0,59.763182413380974,2026-01-25 15h44.41.088682 +0530,
,Objects\159a.jpg,8,0,9,,,,,,,f,1.6161026999998285,0.2563214000001608,None,,,,,,9,0,8,98.38230440000007,,,,,,,,,,,,,,,,,,,,,,,98.36671840000054,98.38230440000007,98.86626419999993,,,,,,,,,,,,,,98.94263470000078,,,,,,,,,,98.9396469000003,98.94263470000078,98.94263470000078,98.94263470000078,101.88281760000064,indoor,f,1.6161026999998285,0.2563214000001608,101.88299780000125,101.88306310000007,None,,,,,,,,,,,,,,00069,001,2026-01-25_15h44.35.264,MST_task,2024.2.0,59.763182413380974,2026-01-25 15h44.41.088682 +0530,
,Objects\342a.jpg,9,0,10,,,,,,,None,,,f,0.42977000000064436,None,,,,10,0,9,101.89915760000076,,,,,,,,,,,,,,,,,,,,,,,101.88337339999998,101.89915760000076,102.38277209999978,,,,,,,,,,,,,,102.41287720000037,,,,,,,,,,102.41063220000069,102.41287720000037,102.41287720000037,102.41287720000037,105.39966030000141,indoor,None,,,105.39980710000054,105.85021270000107,f,105.41685430000143,105.41685430000143,0.42977000000064436,None,,,,,,,,,,00069,001,2026-01-25_15h44.35.264,MST_task,2024.2.0,59.763182413380974,2026-01-25 15h44.41.088682 +0530,
,Objects\129a.jpg,10,0,11,,,,,,,f,1.9202661999988777,0.32865830000082497,None,,,,,,11,0,10,105.86684700000114,,,,,,,,,,,,,,,,,,,,,,,105.85055009999996,105.86684700000114,106.35020799999984,,,,,,,,,,,,,,106.3981573000001,,,,,,,,,,106.39552470000126,106.3981573000001,106.3981573000001,106.3981573000001,109.36623060000056,indoor,f,1.9202661999988777,0.32865830000082497,109.3663962999999,109.36645959999987,None,,,,,,,,,,,,,,00069,001,2026-01-25_15h44.35.264,MST_task,2024.2.0,59.763182413380974,2026-01-25 15h44.41.088682 +0530,
,Objects\264a.jpg,11,0,12,,,,,,,None,,,j,1.3395525000014459,None,,,,12,0,11,109.38261740000053,,,,,,,,,,,,,,,,,,,,,,,109.36674510000012,109.38261740000053,109.86617970000043,,,,,,,,,,,,,,109.91469890000008,,,,,,,,,,109.9116967000009,109.91469890000008,109.91469890000008,109.91469890000008,112.8829194000009,indoor,None,,,112.883085200001,114.24980470000082,j,112.89909559999978,112.89909559999978,1.3395525000014459,None,,,,,,,,,,00069,001,2026-01-25_15h44.35.264,MST_task,2024.2.0,59.763182413380974,2026-01-25 15h44.41.088682 +0530,
,Objects\257a.jpg,12,0,13,,,,,,,None,,,f,0.36816989999897487,None,,,,13,0,12,114.26594260000093,,,,,,,,,,,,,,,,,,,,,,,114.2501228000001,114.26594260000093,114.74966950000089,,,,,,,,,,,,,,114.77985090000038,,,,,,,,,,114.77752130000044,114.77985090000038,114.77985090000038,114.77985090000038,117.76612670000031,indoor,None,,,117.76627630000075,118.16641080000045,f,117.78253010000117,117.78253010000117,0.36816989999897487,None,,,,,,,,,,00069,001,2026-01-25_15h44.35.264,MST_task,2024.2.0,59.763182413380974,2026-01-25 15h44.41.088682 +0530,
,Objects\186a.jpg,13,0,14,,,,,,,f,2.3063810000003286,0.2884336999995867,None,,,,,,14,0,13,118.18224770000052,,,,,,,,,,,,,,,,,,,,,,,118.1667594999999,118.18224770000052,118.66616150000118,,,,,,,,,,,,,,118.7083218000007,,,,,,,,,,118.70578139999998,118.7083218000007,118.7083218000007,118.7083218000007,121.66669069999989,indoor,f,2.3063810000003286,0.2884336999995867,121.66687420000017,121.66694000000098,None,,,,,,,,,,,,,,00069,001,2026-01-25_15h44.35.264,MST_task,2024.2.0,59.763182413380974,2026-01-25 15h44.41.088682 +0530,
,Objects\295a.jpg,14,0,15,,,,,,,f,2.03292109999893,0.31146369999987655,None,,,,,,15,0,14,121.68221340000127,,,,,,,,,,,,,,,,,,,,,,,121.66723679999996,121.68221340000127,122.16611610000109,,,,,,,,,,,,,,122.22196000000076,,,,,,,,,,122.21803929999987,122.22196000000076,122.22196000000076,122.22196000000076,125.18301520000023,shoe,f,2.03292109999893,0.31146369999987655,125.18871709999985,125.1887372000001,None,,,,,,,,,,,,,,00069,001,2026-01-25_15h44.35.264,MST_task,2024.2.0,59.763182413380974,2026-01-25 15h44.41.088682 +0530,
,Objects\102a.jpg,15,0,16,,,,,,,None,,,j,0.8911871999989671,None,,,,16,0,15,125.19963030000144,,,,,,,,,,,,,,,,,,,,,,,125.18885480000063,125.19963030000144,125.68300439999985,,,,,,,,,,,,,,125.74164060000112,,,,,,,,,,125.73706080000011,125.74164060000112,125.74164060000112,125.74164060000112,128.69956880000063,shoe,None,,,128.69971350000014,129.6164084000011,j,128.71590149999975,128.71590149999975,0.8911871999989671,None,,,,,,,,,,00069,001,2026-01-25_15h44.35.264,MST_task,2024.2.0,59.763182413380974,2026-01-25 15h44.41.088682 +0530,
,Objects\360a.jpg,16,0,17,,,,,,,None,,,f,1.9144784000000072,None,,,,17,0,16,129.6326284000006,,,,,,,,,,,,,,,,,,,,,,,129.61674250000033,129.6326284000006,130.11543600000005,,,,,,,,,,,,,,130.1468261000009,,,,,,,,,,130.14440520000062,130.1468261000009,130.1468261000009,130.1468261000009,133.1168748,shoe,None,,,133.117027100001,135.0496443000011,f,133.1326327000006,133.1326327000006,1.9144784000000072,None,,,,,,,,,,00069,001,2026-01-25_15h44.35.264,MST_task,2024.2.0,59.763182413380974,2026-01-25 15h44.41.088682 +0530,
,Objects\003a.jpg,17,0,18,,,,,,,j,1.3734650000005786,0.2563300000001618,None,,,,,,18,0,17,135.0657583000011,,,,,,,,,,,,,,,,,,,,,,,135.0499845000013,135.0657583000011,135.54974940000102,,,,,,,,,,,,,,135.59329640000033,,,,,,,,,,135.59084230000008,135.59329640000033,135.59329640000033,135.59329640000033,138.56628050000108,shoe,j,1.3734650000005786,0.2563300000001618,138.56645039999967,138.56651600000077,None,,,,,,,,,,,,,,00069,001,2026-01-25_15h44.35.264,MST_task,2024.2.0,59.763182413380974,2026-01-25 15h44.41.088682 +0530,
,Objects\029a.jpg,18,0,19,,,,,,,f,1.5535168999995221,0.32789080000111426,None,,,,,,19,0,18,138.58265519999986,,,,,,,,,,,,,,,,,,,,,,,138.56680150000102,138.58265519999986,139.06597580000016,,,,,,,,,,,,,,139.1170173999999,,,,,,,,,,139.11396760000025,139.1170173999999,139.1170173999999,139.1170173999999,142.0830775000013,shoe,f,1.5535168999995221,0.32789080000111426,142.0832549000006,142.0833246000002,None,,,,,,,,,,,,,,00069,001,2026-01-25_15h44.35.264,MST_task,2024.2.0,59.763182413380974,2026-01-25 15h44.41.088682 +0530,
,Objects\261a.jpg,19,0,20,,,,,,,f,1.4624101000008523,0.24727009999878646,None,,,,,,20,0,19,142.09899850000147,,,,,,,,,,,,,,,,,,,,,,,142.08374660000118,142.09899850000147,142.5827900000004,,,,,,,,,,,,,,142.60871080000106,,,,,,,,,,142.60559880000073,142.60871080000106,142.60871080000106,142.60871080000106,145.59952450000128,shoe,f,1.4624101000008523,0.24727009999878646,145.59969170000113,145.59975980000127,None,,,,,,,,,,,,,,00069,001,2026-01-25_15h44.35.264,MST_task,2024.2.0,59.763182413380974,2026-01-25 15h44.41.088682 +0530,
,Objects\317a.jpg,20,0,21,,,,,,,None,,,j,0.4263338000000658,None,,,,21,0,20,145.61596540000028,,,,,,,,,,,,,,,,,,,,,,,145.60004570000092,145.61596540000028,146.09963510000125,,,,,,,,,,,,,,146.13155310000002,,,,,,,,,,146.1287828000004,146.13155310000002,146.13155310000002,146.13155310000002,149.11628120000023,shoe,None,,,149.11642870000105,149.5664334000012,j,149.13241130000097,149.13241130000097,0.4263338000000658,None,,,,,,,,,,00069,001,2026-01-25_15h44.35.264,MST_task,2024.2.0,59.763182413380974,2026-01-25 15h44.41.088682 +0530,
,Objects\154a.jpg,21,0,22,,,,,,,None,,,j,0.7317960000000312,None,,,,22,0,21,149.58230550000007,,,,,,,,,,,,,,,,,,,,,,,149.5669011000009,149.58230550000007,150.06643450000047,,,,,,,,,,,,,,150.0980916999997,,,,,,,,,,150.09573450000062,150.0980916999997,150.0980916999997,150.0980916999997,153.08367680000083,indoor,None,,,153.08901760000117,153.8327448,j,153.0993408000013,153.0993408000013,0.7317960000000312,None,,,,,,,,,,00069,001,2026-01-25_15h44.35.264,MST_task,2024.2.0,59.763182413380974,2026-01-25 15h44.41.088682 +0530,
,Objects\237a.jpg,22,0,23,,,,,,,f,2.2568649999993795,0.2881985000003624,None,,,,,,23,0,22,153.8492855000004,,,,,,,,,,,,,,,,,,,,,,,153.83308410000063,153.8492855000004,154.33296859999973,,,,,,,,,,,,,,154.38207200000033,,,,,,,,,,154.3790595999999,154.38207200000033,154.38207200000033,154.38207200000033,157.33307419999983,indoor,f,2.2568649999993795,0.2881985000003624,157.33326240000133,157.33333409999977,None,,,,,,,,,,,,,,00069,001,2026-01-25_15h44.35.264,MST_task,2024.2.0,59.763182413380974,2026-01-25 15h44.41.088682 +0530,
,Objects\145a.jpg,23,0,24,,,,,,,f,2.460777500000404,0.22449819999928877,None,,,,,,24,0,23,157.34896970000045,,,,,,,,,,,,,,,,,,,,,,,157.3336663000009,157.34896970000045,157.83305380000093,,,,,,,,,,,,,,157.87384310000016,,,,,,,,,,157.87096139999994,157.87384310000016,157.87384310000016,157.87384310000016,160.8496341000009,indoor,f,2.460777500000404,0.22449819999928877,160.84979960000055,160.84986290000052,None,,,,,,,,,,,,,,00069,001,2026-01-25_15h44.35.264,MST_task,2024.2.0,59.763182413380974,2026-01-25 15h44.41.088682 +0530,
,Objects\206a.jpg,24,0,25,,,,,,,j,1.9084617999997135,0.2553231000001688,None,,,,,,25,0,24,160.86600080000062,,,,,,,,,,,,,,,,,,,,,,,160.8501522000006,160.86600080000062,161.34967430000142,,,,,,,,,,,,,,161.38665000000037,,,,,,,,,,161.38397820000137,161.38665000000037,161.38665000000037,161.38665000000037,164.3663677000004,indoor,j,1.9084617999997135,0.2553231000001688,164.36653529999967,164.3666002000009,None,,,,,,,,,,,,,,00069,001,2026-01-25_15h44.35.264,MST_task,2024.2.0,59.763182413380974,2026-01-25 15h44.41.088682 +0530,
,Objects\024a.jpg,25,0,26,,,,,,,f,1.538807299999462,0.29642020000028424,None,,,,,,26,0,25,164.38266230000045,,,,,,,,,,,,,,,,,,,,,,,164.36688440000034,164.38266230000045,164.86659560000044,,,,,,,,,,,,,,164.9163195000001,,,,,,,,,,164.9137929999997,164.9163195000001,164.9163195000001,164.9163195000001,167.88307170000007,indoor,f,1.538807299999462,0.29642020000028424,167.88323820000005,167.8832996000001,None,,,,,,,,,,,,,,00069,001,2026-01-25_15h44.35.264,MST_task,2024.2.0,59.763182413380974,2026-01-25 15h44.41.088682 +0530,
,Objects\127a.jpg,26,0,27,,,,,,,None,,,f,1.9184750999993412,None,,,,27,0,26,167.8990362000004,,,,,,,,,,,,,,,,,,,,,,,167.88358380000136,167.8990362000004,168.3830350999997,,,,,,,,,,,,,,168.4203049000007,,,,,,,,,,168.41800669999975,168.4203049000007,168.4203049000007,168.4203049000007,171.39954089999992,indoor,None,,,171.39970880000146,173.34988570000132,f,171.41595299999972,171.41595299999972,1.9184750999993412,None,,,,,,,,,,00069,001,2026-01-25_15h44.35.264,MST_task,2024.2.0,59.763182413380974,2026-01-25 15h44.41.088682 +0530,
,Objects\042a.jpg,27,0,28,,,,,,,j,1.3105644999996002,0.19194710000010673,None,,,,,,28,0,27,173.36594200000036,,,,,,,,,,,,,,,,,,,,,,,173.35023300000103,173.36594200000036,173.85071340000104,,,,,,,,,,,,,,,,,,,,,,,,173.88563440000144,173.88795089999985,173.88795089999985,173.88795089999985,176.86638529999982,indoor,j,1.3105644999996002,0.19194710000010673,176.8665529000009,176.86661500000082,None,,,,,,,,,,,,,,00069,001,2026-01-25_15h44.35.264,MST_task,2024.2.0,59.763182413380974,2026-01-25 15h44.41.088682 +0530,
,Objects\336a.jpg,28,0,29,,,,,,,f,2.329068600000028,0.2726367000013852,None,,,,,,29,0,28,176.8823400000001,,,,,,,,,,,,,,,,,,,,,,,176.8669006,176.8823400000001,177.36685490000127,,,,,,,,,,,,,,,,,,,,,,,,177.42680590000055,177.42944510000052,177.42944510000052,177.42944510000052,180.38285910000013,shoe,f,2.329068600000028,0.2726367000013852,180.3889248000014,180.3889861000007,None,,,,,,,,,,,,,,00069,001,2026-01-25_15h44.35.264,MST_task,2024.2.0,59.763182413380974,2026-01-25 15h44.41.088682 +0530,
,Objects\077a.jpg,29,0,30,,,,,,,j,2.354743199999575,0.271392200000264,None,,,,,,30,0,29,180.39938480000092,,,,,,,,,,,,,,,,,,,,,,,180.38923530000102,180.39938480000092,180.8830052000012,,,,,,,,,,,,,,180.95639389999997,,,,,,,,,,180.95394880000094,180.95639389999997,180.95639389999997,180.95639389999997,183.89974230000007,shoe,j,2.354743199999575,0.271392200000264,183.89990800000123,183.89997060000132,None,,,,,,,,,,,,,,00069,001,2026-01-25_15h44.35.264,MST_task,2024.2.0,59.763182413380974,2026-01-25 15h44.41.088682 +0530,
,Objects\103a.jpg,30,0,31,,,,,,,j,2.6077050999992935,0.2640776000007463,None,,,,,,31,0,30,183.915950300001,,,,,,,,,,,,,,,,,,,,,,,183.90037550000125,183.915950300001,184.40070860000014,,,,,,,,,,,,,,,,,,,,,,,,184.48380859999997,184.4869486000007,184.4869486000007,184.4869486000007,187.41609620000054,shoe,j,2.6077050999992935,0.2640776000007463,187.41626010000073,187.41631880000023,None,,,,,,,,,,,,,,00069,001,2026-01-25_15h44.35.264,MST_task,2024.2.0,59.763182413380974,2026-01-25 15h44.41.088682 +0530,
,Objects\251a.jpg,31,0,32,,,,,,,None,,,f,0.4658192000006238,None,,,,32,0,31,187.43247640000118,,,,,,,,,,,,,,,,,,,,,,,187.41671099999985,187.43247640000118,187.91632480000044,,,,,,,,,,,,,,187.95029969999996,,,,,,,,,,187.9476665000002,187.95029969999996,187.95029969999996,187.95029969999996,190.93279989999974,shoe,None,,,190.93294590000005,191.4165334999998,f,190.9493695000001,190.9493695000001,0.4658192000006238,None,,,,,,,,,,00069,001,2026-01-25_15h44.35.264,MST_task,2024.2.0,59.763182413380974,2026-01-25 15h44.41.088682 +0530,
,Objects\316a.jpg,32,0,33,,,,,,,f,2.5923245000012685,0.27266229999986535,None,,,,,,33,0,32,191.4325313999998,,,,,,,,,,,,,,,,,,,,,,,191.41690709999966,191.4325313999998,191.91634440000053,,,,,,,,,,,,,,191.95811990000038,,,,,,,,,,191.95504849999998,191.95811990000038,191.95811990000038,191.95811990000038,194.93308969999998,shoe,f,2.5923245000012685,0.27266229999986535,194.9332609000012,194.93332630000077,None,,,,,,,,,,,,,,00069,001,2026-01-25_15h44.35.264,MST_task,2024.2.0,59.763182413380974,2026-01-25 15h44.41.088682 +0530,
,Objects\039a.jpg,33,0,34,,,,,,,j,1.4935428999997384,0.240092399999412,None,,,,,,34,0,33,194.94921650000106,,,,,,,,,,,,,,,,,,,,,,,194.9336127000006,194.94921650000106,195.433054000001,,,,,,,,,,,,,,195.48900120000144,,,,,,,,,,195.4865557000012,195.48900120000144,195.48900120000144,195.48900120000144,198.44975440000053,shoe,j,1.4935428999997384,0.240092399999412,198.4499405000006,198.4500022000011,None,,,,,,,,,,,,,,00069,001,2026-01-25_15h44.35.264,MST_task,2024.2.0,59.763182413380974,2026-01-25 15h44.41.088682 +0530,
,Objects\329a.jpg,34,0,35,,,,,,,None,,,f,0.4078817000008712,None,,,,35,0,34,198.4660287000006,,,,,,,,,,,,,,,,,,,,,,,198.45042190000095,198.4660287000006,198.94941870000002,,,,,,,,,,,,,,198.99562490000062,,,,,,,,,,198.99260529999992,198.99562490000062,198.99562490000062,198.99562490000062,201.96718930000134,shoe,None,,,201.9673598999998,202.39987480000127,f,201.9826439999997,201.9826439999997,0.4078817000008712,None,,,,,,,,,,00069,001,2026-01-25_15h44.35.264,MST_task,2024.2.0,59.763182413380974,2026-01-25 15h44.41.088682 +0530,
,Objects\220a.jpg,35,0,36,,,,,,,j,1.6938964000000851,0.23936300000059418,None,,,,,,36,0,35,202.41604850000112,,,,,,,,,,,,,,,,,,,,,,,202.40032710000014,202.41604850000112,202.89979830000084,,,,,,,,,,,,,,202.9532538000003,,,,,,,,,,202.95061970000097,202.9532538000003,202.9532538000003,202.9532538000003,205.9181193000004,indoor,j,1.6938964000000851,0.23936300000059418,205.9236587000014,205.9237318000014,None,,,,,,,,,,,,,,00069,001,2026-01-25_15h44.35.264,MST_task,2024.2.0,59.763182413380974,2026-01-25 15h44.41.088682 +0530,
,Objects\291a.jpg,36,0,37,,,,,,,None,,,f,1.2136491000001115,None,,,,37,0,36,205.93288570000004,,,,,,,,,,,,,,,,,,,,,,,205.9240222999997,205.93288570000004,206.41611139999986,,,,,,,,,,,,,,206.44181780000144,,,,,,,,,,206.43953049999982,206.44181780000144,206.44181780000144,206.44181780000144,209.4328985000011,indoor,None,,,209.43304830000125,210.66664540000056,f,209.44932640000115,209.44932640000115,1.2136491000001115,None,,,,,,,,,,00069,001,2026-01-25_15h44.35.264,MST_task,2024.2.0,59.763182413380974,2026-01-25 15h44.41.088682 +0530,
,Objects\370a.jpg,37,0,38,,,,,,,f,2.658988600000157,0.21601209999971616,None,,,,,,38,0,37,210.68271000000095,,,,,,,,,,,,,,,,,,,,,,,210.66700670000137,210.68271000000095,211.1664438000007,,,,,,,,,,,,,,211.22013680000055,,,,,,,,,,211.21743910000077,211.22013680000055,211.22013680000055,211.22013680000055,214.1829897000007,indoor,f,2.658988600000157,0.21601209999971616,214.18315950000033,214.18322100000114,None,,,,,,,,,,,,,,00069,001,2026-01-25_15h44.35.264,MST_task,2024.2.0,59.763182413380974,2026-01-25 15h44.41.088682 +0530,
,Objects\044a.jpg,38,0,39,,,,,,,f,2.1392527999996673,0.21599520000017947,None,,,,,,39,0,38,214.19936820000112,,,,,,,,,,,,,,,,,,,,,,,214.18350740000096,214.19936820000112,214.68302159999985,,,,,,,,,,,,,,214.72387880000133,,,,,,,,,,214.72078630000033,214.72387880000133,214.72387880000133,214.72387880000133,217.69976430000133,indoor,f,2.1392527999996673,0.21599520000017947,217.69993710000017,217.70000410000102,None,,,,,,,,,,,,,,00069,001,2026-01-25_15h44.35.264,MST_task,2024.2.0,59.763182413380974,2026-01-25 15h44.41.088682 +0530,
,Objects\028a.jpg,39,0,40,,,,,,,f,2.4695081999998365,0.24795059999996738,None,,,,,,40,0,39,217.7159943000006,,,,,,,,,,,,,,,,,,,,,,,217.70029290000093,217.7159943000006,218.19979530000091,,,,,,,,,,,,,,218.23300550000022,,,,,,,,,,218.23077550000016,218.23300550000022,218.23300550000022,218.23300550000022,221.2165726000003,indoor,f,2.4695081999998365,0.24795059999996738,221.21692770000118,221.21699050000097,None,,,,,,,,,,,,,,00069,001,2026-01-25_15h44.35.264,MST_task,2024.2.0,59.763182413380974,2026-01-25 15h44.41.088682 +0530,
,Objects\149a.jpg,40,0,41,,,,,,,None,,,f,1.058265499999834,None,,,,41,0,40,221.23269690000052,,,,,,,,,,,,,,,,,,,,,,,221.21729050000067,221.23269690000052,221.7161754000008,,,,,,,,,,,,,,221.7653768,,,,,,,,,,221.76262599999973,221.7653768,221.7653768,221.7653768,224.71757570000045,indoor,None,,,224.71772450000026,225.79991789999985,f,224.73264010000094,224.73264010000094,1.058265499999834,None,,,,,,,,,,00069,001,2026-01-25_15h44.35.264,MST_task,2024.2.0,59.763182413380974,2026-01-25 15h44.41.088682 +0530,
,Objects\126a.jpg,41,0,42,,,,,,,f,2.4409548999992694,0.24071739999999409,None,,,,,,42,0,41,225.81612459999997,,,,,,,,,,,,,,,,,,,,,,,225.8002574000002,225.81612459999997,226.29946350000137,,,,,,,,,,,,,,226.33354380000128,,,,,,,,,,226.33041290000074,226.33354380000128,226.33354380000128,226.33354380000128,229.31635710000046,indoor,f,2.4409548999992694,0.24071739999999409,229.31653019999976,229.31659430000036,None,,,,,,,,,,,,,,00069,001,2026-01-25_15h44.35.264,MST_task,2024.2.0,59.763182413380974,2026-01-25 15h44.41.088682 +0530,
,Objects\216a.jpg,42,0,43,,,,,,,f,2.335121500000241,0.2312818000009429,None,,,,,,43,0,42,229.3325375000004,,,,,,,,,,,,,,,,,,,,,,,229.31688060000124,229.3325375000004,229.81653890000052,,,,,,,,,,,,,,229.87202539999998,,,,,,,,,,229.8694871000007,229.87202539999998,229.87202539999998,229.87202539999998,232.83312500000102,shoe,f,2.335121500000241,0.2312818000009429,232.8396031000011,232.83965140000146,None,,,,,,,,,,,,,,00069,001,2026-01-25_15h44.35.264,MST_task,2024.2.0,59.763182413380974,2026-01-25 15h44.41.088682 +0530,
,Objects\214a.jpg,43,0,44,,,,,,,f,1.1062992000006489,0.1925993999993807,None,,,,,,44,0,43,232.84935490000134,,,,,,,,,,,,,,,,,,,,,,,232.8398341000011,232.84935490000134,233.33314020000034,,,,,,,,,,,,,,233.38019870000062,,,,,,,,,,233.37716280000132,233.38019870000062,233.38019870000062,233.38019870000062,236.3497266000013,shoe,f,1.1062992000006489,0.1925993999993807,236.34989880000103,236.34996150000006,None,,,,,,,,,,,,,,00069,001,2026-01-25_15h44.35.264,MST_task,2024.2.0,59.763182413380974,2026-01-25 15h44.41.088682 +0530,
,Objects\302a.jpg,44,0,45,,,,,,,f,1.9922714000003907,0.2237662999996246,None,,,,,,45,0,44,236.3661000000011,,,,,,,,,,,,,,,,,,,,,,,236.3502454999998,236.3661000000011,236.8496197000004,,,,,,,,,,,,,,236.88646640000115,,,,,,,,,,236.88322030000018,236.88646640000115,236.88646640000115,236.88646640000115,239.8664692000002,shoe,f,1.9922714000003907,0.2237662999996246,239.8666334999998,239.86669849999998,None,,,,,,,,,,,,,,00069,001,2026-01-25_15h44.35.264,MST_task,2024.2.0,59.763182413380974,2026-01-25 15h44.41.088682 +0530,
,Objects\284a.jpg,45,0,46,,,,,,,f,2.0950852999994822,0.2393047999994451,None,,,,,,46,0,45,239.8827605000006,,,,,,,,,,,,,,,,,,,,,,,239.86698400000023,239.8827605000006,240.3664884000009,,,,,,,,,,,,,,240.4160713000001,,,,,,,,,,240.41311289999976,240.4160713000001,240.4160713000001,240.4160713000001,243.38316060000034,shoe,f,2.0950852999994822,0.2393047999994451,243.3833267000009,243.3833924999999,None,,,,,,,,,,,,,,00069,001,2026-01-25_15h44.35.264,MST_task,2024.2.0,59.763182413380974,2026-01-25 15h44.41.088682 +0530,
,Objects\072a.jpg,46,0,47,,,,,,,f,2.061694999998508,0.25570260000131384,None,,,,,,47,0,46,243.39943440000025,,,,,,,,,,,,,,,,,,,,,,,243.3836753000014,243.39943440000025,243.88317220000135,,,,,,,,,,,,,,243.9293527000009,,,,,,,,,,243.9264445000008,243.9293527000009,243.9293527000009,243.9293527000009,246.89981799999987,shoe,f,2.061694999998508,0.25570260000131384,246.89998800000103,246.900051300001,None,,,,,,,,,,,,,,00069,001,2026-01-25_15h44.35.264,MST_task,2024.2.0,59.763182413380974,2026-01-25 15h44.41.088682 +0530,
,Objects\275a.jpg,47,0,48,,,,,,,f,1.2024044999998296,0.21569319999980507,None,,,,,,48,0,47,246.91602349999994,,,,,,,,,,,,,,,,,,,,,,,246.90033630000107,246.91602349999994,247.39988460000131,,,,,,,,,,,,,,247.49239060000036,,,,,,,,,,247.48977530000047,247.49239060000036,247.49239060000036,247.49239060000036,250.41606169999977,shoe,f,1.2024044999998296,0.21569319999980507,250.4162326000005,250.41629570000077,None,,,,,,,,,,,,,,00069,001,2026-01-25_15h44.35.264,MST_task,2024.2.0,59.763182413380974,2026-01-25 15h44.41.088682 +0530,
,Objects\298a.jpg,48,0,49,,,,,,,f,1.5556149000003643,0.23928679999880842,None,,,,,,49,0,48,250.43249990000004,,,,,,,,,,,,,,,,,,,,,,,250.41658160000043,250.43249990000004,250.9159834000002,,,,,,,,,,,,,,250.93953350000083,,,,,,,,,,250.93725660000018,250.93953350000083,250.93953350000083,250.93953350000083,253.93285620000097,shoe,f,1.5556149000003643,0.23928679999880842,253.93304640000133,253.93311220000032,None,,,,,,,,,,,,,,00069,001,2026-01-25_15h44.35.264,MST_task,2024.2.0,59.763182413380974,2026-01-25 15h44.41.088682 +0530,
,Objects\181a.jpg,49,0,50,,,,,,,j,1.1021534999999858,0.43139630000041507,None,,,,,,50,0,49,253.94941970000036,,,,,,,,,,,,,,,,,,,,,,,253.93339930000002,253.94941970000036,254.4326615000009,,,,,,,,,,,,,,254.4889860000003,,,,,,,,,,254.48635269999977,254.4889860000003,254.4889860000003,254.4889860000003,257.4493637000014,indoor,j,1.1021534999999858,0.43139630000041507,257.4547609000001,257.4548321000002,None,,,,,,,,,,,,,,00069,001,2026-01-25_15h44.35.264,MST_task,2024.2.0,59.763182413380974,2026-01-25 15h44.41.088682 +0530,
,Objects\076a.jpg,50,0,51,,,,,,,j,1.6251850000007835,0.2159776000007696,None,,,,,,51,0,50,257.4656740999999,,,,,,,,,,,,,,,,,,,,,,,257.45505050000065,257.4656740999999,257.94982730000083,,,,,,,,,,,,,,258.00596680000126,,,,,,,,,,258.0029907999997,258.00596680000126,258.00596680000126,258.00596680000126,260.9662207000001,indoor,j,1.6251850000007835,0.2159776000007696,260.96638820000044,260.96645030000036,None,,,,,,,,,,,,,,00069,001,2026-01-25_15h44.35.264,MST_task,2024.2.0,59.763182413380974,2026-01-25 15h44.41.088682 +0530,
,Objects\113a.jpg,51,0,52,,,,,,,None,,,j,0.6031627000011213,None,,,,52,0,51,260.98270650000086,,,,,,,,,,,,,,,,,,,,,,,260.9668440000005,260.98270650000086,261.46621159999995,,,,,,,,,,,,,,261.5067717000002,,,,,,,,,,261.50451130000147,261.5067717000002,261.5067717000002,261.5067717000002,264.48316570000134,indoor,None,,,264.4833120000003,265.11667940000007,j,264.4993536000002,264.4993536000002,0.6031627000011213,None,,,,,,,,,,00069,001,2026-01-25_15h44.35.264,MST_task,2024.2.0,59.763182413380974,2026-01-25 15h44.41.088682 +0530,
,Objects\331a.jpg,52,0,53,,,,,,,j,2.6672024999988935,0.20858600000065053,None,,,,,,53,0,52,265.1327919000014,,,,,,,,,,,,,,,,,,,,,,,265.1170398000013,265.1327919000014,265.6165077000005,,,,,,,,,,,,,,265.65128110000114,,,,,,,,,,265.6473270000006,265.65128110000114,265.65128110000114,265.65128110000114,268.6331902000002,indoor,j,2.6672024999988935,0.20858600000065053,268.63336450000133,268.63342680000096,None,,,,,,,,,,,,,,00069,001,2026-01-25_15h44.35.264,MST_task,2024.2.0,59.763182413380974,2026-01-25 15h44.41.088682 +0530,
,Objects\094a.jpg,53,0,54,,,,,,,f,2.2174137999991217,0.2405956000002334,None,,,,,,54,0,53,268.6494081000001,,,,,,,,,,,,,,,,,,,,,,,268.6337125000009,268.6494081000001,269.13317110000025,,,,,,,,,,,,,,269.1731173999997,,,,,,,,,,269.1700062,269.1731173999997,269.1731173999997,269.1731173999997,272.1494670000011,indoor,f,2.2174137999991217,0.2405956000002334,272.14963570000145,272.14969759999985,None,,,,,,,,,,,,,,00069,001,2026-01-25_15h44.35.264,MST_task,2024.2.0,59.763182413380974,2026-01-25 15h44.41.088682 +0530,
,Objects\322a.jpg,54,0,55,,,,,,,f,1.935584299999391,0.23995769999964978,None,,,,,,55,0,54,272.16592630000014,,,,,,,,,,,,,,,,,,,,,,,272.1499788000001,272.16592630000014,272.64980040000046,,,,,,,,,,,,,,272.7034992000008,,,,,,,,,,272.7000205000004,272.7034992000008,272.7034992000008,272.7034992000008,275.66642150000007,indoor,f,1.935584299999391,0.23995769999964978,275.6665886999999,275.6666509000006,None,,,,,,,,,,,,,,00069,001,2026-01-25_15h44.35.264,MST_task,2024.2.0,59.763182413380974,2026-01-25 15h44.41.088682 +0530,
,Objects\048a.jpg,55,0,56,,,,,,,j,1.0913523000017449,0.191641499999605,None,,,,,,56,0,55,275.6824579000004,,,,,,,,,,,,,,,,,,,,,,,275.66735920000065,275.6824579000004,276.1664946000001,,,,,,,,,,,,,,276.2035212999999,,,,,,,,,,276.2005695000007,276.2035212999999,276.2035212999999,276.2035212999999,279.18307280000045,indoor,j,1.0913523000017449,0.191641499999605,279.18323800000144,279.1833013000014,None,,,,,,,,,,,,,,00069,001,2026-01-25_15h44.35.264,MST_task,2024.2.0,59.763182413380974,2026-01-25 15h44.41.088682 +0530,
,Objects\143a.jpg,56,0,57,,,,,,,None,,,j,0.7230988999999681,None,,,,57,0,56,279.19938320000074,,,,,,,,,,,,,,,,,,,,,,,279.1839529000008,279.19938320000074,279.683157200001,,,,,,,,,,,,,,279.73401320000085,,,,,,,,,,279.7315971000007,279.73401320000085,279.73401320000085,279.73401320000085,282.6998414999998,shoe,None,,,282.70589330000075,283.44996250000077,j,282.7161487000012,282.7161487000012,0.7230988999999681,None,,,,,,,,,,00069,001,2026-01-25_15h44.35.264,MST_task,2024.2.0,59.763182413380974,2026-01-25 15h44.41.088682 +0530,
,Objects\125a.jpg,57,0,58,,,,,,,j,2.1077860000004875,0.20801340000070923,None,,,,,,58,0,57,283.4661190000006,,,,,,,,,,,,,,,,,,,,,,,283.4502063,283.4661190000006,283.9498488999998,,,,,,,,,,,,,,283.9793275000011,,,,,,,,,,283.9771531000006,283.9793275000011,283.9793275000011,283.9793275000011,286.9662805000007,shoe,j,2.1077860000004875,0.20801340000070923,286.96644780000133,286.96651160000147,None,,,,,,,,,,,,,,00069,001,2026-01-25_15h44.35.264,MST_task,2024.2.0,59.763182413380974,2026-01-25 15h44.41.088682 +0530,
,Objects\172a.jpg,58,0,59,,,,,,,j,1.1075565000010101,0.2401257000001351,None,,,,,,59,0,58,286.98235990000103,,,,,,,,,,,,,,,,,,,,,,,286.9669432999999,286.98235990000103,287.4663857000014,,,,,,,,,,,,,,287.515430200001,,,,,,,,,,287.5122893000007,287.515430200001,287.515430200001,287.515430200001,290.4831826000009,shoe,j,1.1075565000010101,0.2401257000001351,290.4833414000004,290.4834036000011,None,,,,,,,,,,,,,,00069,001,2026-01-25_15h44.35.264,MST_task,2024.2.0,59.763182413380974,2026-01-25 15h44.41.088682 +0530,
,Objects\310a.jpg,59,0,60,,,,,,,None,,,f,1.1271682000005967,None,,,,60,0,59,290.4994005000008,,,,,,,,,,,,,,,,,,,,,,,290.4837954000013,290.4994005000008,290.98320609999973,,,,,,,,,,,,,,291.0411830000012,,,,,,,,,,291.03851510000095,291.0411830000012,291.0411830000012,291.0411830000012,293.99987239999973,shoe,None,,,294.0000173999997,295.1500016000009,f,294.0159635,294.0159635,1.1271682000005967,None,,,,,,,,,,00069,001,2026-01-25_15h44.35.264,MST_task,2024.2.0,59.763182413380974,2026-01-25 15h44.41.088682 +0530,
,Objects\358a.jpg,60,0,61,,,,,,,None,,,j,1.5644737000002351,None,,,,61,0,60,295.1660107000007,,,,,,,,,,,,,,,,,,,,,,,295.15033610000137,295.1660107000007,295.64988170000106,,,,,,,,,,,,,,295.6960164000011,,,,,,,,,,295.6935551000006,295.6960164000011,295.6960164000011,295.6960164000011,298.6664505000008,shoe,None,,,298.66662879999967,300.2498144000001,j,298.6826469000007,298.6826469000007,1.5644737000002351,None,,,,,,,,,,00069,001,2026-01-25_15h44.35.264,MST_task,2024.2.0,59.763182413380974,2026-01-25 15h44.41.088682 +0530,
,Objects\213a.jpg,61,0,62,,,,,,,None,,,f,0.38393859999996494,None,,,,62,0,61,300.2660422000008,,,,,,,,,,,,,,,,,,,,,,,300.2501546000003,300.2660422000008,300.74989860000096,,,,,,,,,,,,,,300.7768790000009,,,,,,,,,,300.7744906000007,300.7768790000009,300.7768790000009,300.7768790000009,303.7663327999999,shoe,None,,,303.7664814,304.1833529000014,f,303.7828281000002,303.7828281000002,0.38393859999996494,None,,,,,,,,,,00069,001,2026-01-25_15h44.35.264,MST_task,2024.2.0,59.763182413380974,2026-01-25 15h44.41.088682 +0530,
,Objects\095a.jpg,62,0,63,,,,,,,f,1.0473996000000625,0.17695119999916642,None,,,,,,63,0,62,304.199480700001,,,,,,,,,,,,,,,,,,,,,,,304.18368460000056,304.199480700001,304.6832267000009,,,,,,,,,,,,,,304.7187561999999,,,,,,,,,,304.71593050000047,304.7187561999999,304.7187561999999,304.7187561999999,307.7004605000002,shoe,f,1.0473996000000625,0.17695119999916642,307.7006376999998,307.7007016000007,None,,,,,,,,,,,,,,00069,001,2026-01-25_15h44.35.264,MST_task,2024.2.0,59.763182413380974,2026-01-25 15h44.41.088682 +0530,
,Objects\218a.jpg,63,0,64,,,,,,,None,,,j,0.15830620000087947,None,,,,64,0,63,307.71589250000034,,,,,,,,,,,,,,,,,,,,,,,307.7010968000013,307.71589250000034,308.19991839999966,,,,,,,,,,,,,,308.24834809999993,,,,,,,,,,308.245551,308.24834809999993,308.24834809999993,308.24834809999993,311.2165365000001,indoor,None,,,311.22203609999997,311.4000149000003,j,311.2327008000011,311.2327008000011,0.15830620000087947,None,,,,,,,,,,00069,001,2026-01-25_15h44.35.264,MST_task,2024.2.0,59.763182413380974,2026-01-25 15h44.41.088682 +0530,
,Objects\306a.jpg,64,0,65,,,,,,,f,2.7581434000003355,None,None,,,,,,65,0,64,311.4161589000014,,,,,,,,,,,,,,,,,,,,,,,311.400345,311.4161589000014,311.8994569000006,,,,,,,,,,,,,,311.94429610000043,,,,,,,,,,311.9414652000014,311.94429610000043,311.94429610000043,311.94429610000043,314.91654000000017,indoor,f,2.7581434000003355,None,314.91672260000087,314.91678649999994,None,,,,,,,,,,,,,,00069,001,2026-01-25_15h44.35.264,MST_task,2024.2.0,59.763182413380974,2026-01-25 15h44.41.088682 +0530,
,Objects\190a.jpg,65,0,66,,,,,,,f,2.156025399999635,0.2323883000008209,None,,,,,,66,0,65,314.93274960000053,,,,,,,,,,,,,,,,,,,,,,,314.91707060000044,314.93274960000053,315.41656220000004,,,,,,,,,,,,,,315.44275390000075,,,,,,,,,,315.4403007000001,315.44275390000075,315.44275390000075,315.44275390000075,318.4328125000011,indoor,f,2.156025399999635,0.2323883000008209,318.43294100000094,318.43298680000044,None,,,,,,,,,,,,,,00069,001,2026-01-25_15h44.35.264,MST_task,2024.2.0,59.763182413380974,2026-01-25 15h44.41.088682 +0530,
,Objects\079a.jpg,66,0,67,,,,,,,f,2.44116970000141,0.2394389000000956,None,,,,,,67,0,66,318.4492534000001,,,,,,,,,,,,,,,,,,,,,,,318.43320360000143,318.4492534000001,318.9327432000009,,,,,,,,,,,,,,318.9659995000002,,,,,,,,,,318.9635489000011,318.9659995000002,318.9659995000002,318.9659995000002,321.9331677000009,indoor,f,2.44116970000141,0.2394389000000956,321.9333471000009,321.93340739999985,None,,,,,,,,,,,,,,00069,001,2026-01-25_15h44.35.264,MST_task,2024.2.0,59.763182413380974,2026-01-25 15h44.41.088682 +0530,
,Objects\352a.jpg,67,0,68,,,,,,,None,,,f,7.652337099998476,None,,,,68,0,67,321.94950020000033,,,,,,,,,,,,,,,,,,,,,,,321.9336980999997,321.94950020000033,322.4328206000009,,,,,,,,,,,,,,322.51403870000104,,,,,,,,,,322.51074510000035,322.51403870000104,322.51403870000104,322.51403870000104,325.4497465000004,indoor,None,,,325.44989220000025,333.13340770000104,f,325.4661057000012,325.4661057000012,7.652337099998476,None,,,,,,,,,,00069,001,2026-01-25_15h44.35.264,MST_task,2024.2.0,59.763182413380974,2026-01-25 15h44.41.088682 +0530,
,Objects\027a.jpg,68,0,69,,,,,,,None,,,j,0.39696469999944384,None,,,,69,0,68,333.1494652000001,,,,,,,,,,,,,,,,,,,,,,,333.13372770000024,333.1494652000001,333.6329592000002,,,,,,,,,,,,,,333.68327070000123,,,,,,,,,,333.6807740000004,333.68327070000123,333.68327070000123,333.68327070000123,336.64992189999975,indoor,None,,,336.65007330000117,337.0664682000006,j,336.66618220000055,336.66618220000055,0.39696469999944384,None,,,,,,,,,,00069,001,2026-01-25_15h44.35.264,MST_task,2024.2.0,59.763182413380974,2026-01-25 15h44.41.088682 +0530,
,Objects\041a.jpg,69,0,70,,,,,,,j,1.5281106999991607,0.21559680000063963,None,,,,,,70,0,69,337.08249270000124,,,,,,,,,,,,,,,,,,,,,,,337.0667967999998,337.08249270000124,337.5665755000009,,,,,,,,,,,,,,337.6150617000003,,,,,,,,,,337.6115862000006,337.6150617000003,337.6150617000003,337.6150617000003,340.5831459000001,indoor,j,1.5281106999991607,0.21559680000063963,340.58332750000045,340.58339570000135,None,,,,,,,,,,,,,,00069,001,2026-01-25_15h44.35.264,MST_task,2024.2.0,59.763182413380974,2026-01-25 15h44.41.088682 +0530,
,Objects\300a.jpg,70,0,71,,,,,,,f,1.8127948000001197,0.1913016999988031,None,,,,,,71,0,70,340.59944990000076,,,,,,,,,,,,,,,,,,,,,,,340.58377199999995,340.59944990000076,341.0832418000009,,,,,,,,,,,,,,341.13040440000077,,,,,,,,,,341.127500300001,341.13040440000077,341.13040440000077,341.13040440000077,344.09984749999967,shoe,f,1.8127948000001197,0.1913016999988031,344.1061540999999,344.10619570000017,None,,,,,,,,,,,,,,00069,001,2026-01-25_15h44.35.264,MST_task,2024.2.0,59.763182413380974,2026-01-25 15h44.41.088682 +0530,
,Objects\128a.jpg,71,0,72,,,,,,,f,2.3694476000000577,0.23173300000053132,None,,,,,,72,0,71,344.11619320000136,,,,,,,,,,,,,,,,,,,,,,,344.1063589000005,344.11619320000136,344.5998453000011,,,,,,,,,,,,,,344.65349270000115,,,,,,,,,,344.6505923000004,344.65349270000115,344.65349270000115,344.65349270000115,347.61650420000115,shoe,f,2.3694476000000577,0.23173300000053132,347.6166745999999,347.6167363000004,None,,,,,,,,,,,,,,00069,001,2026-01-25_15h44.35.264,MST_task,2024.2.0,59.763182413380974,2026-01-25 15h44.41.088682 +0530,
,Objects\194a.jpg,72,0,73,,,,,,,f,1.5482100999997783,0.2161775000004127,None,,,,,,73,0,72,347.6328762000012,,,,,,,,,,,,,,,,,,,,,,,347.61702010000045,347.6328762000012,348.1163899000003,,,,,,,,,,,,,,348.1542924000005,,,,,,,,,,348.1509137000012,348.1542924000005,348.1542924000005,348.1542924000005,351.13324699999976,shoe,f,1.5482100999997783,0.2161775000004127,351.1334122999997,351.13347410000097,None,,,,,,,,,,,,,,00069,001,2026-01-25_15h44.35.264,MST_task,2024.2.0,59.763182413380974,2026-01-25 15h44.41.088682 +0530,
,Objects\118a.jpg,73,0,74,,,,,,,f,2.214019699998971,0.2566311999999016,None,,,,,,74,0,73,351.14954840000064,,,,,,,,,,,,,,,,,,,,,,,351.13376120000066,351.14954840000064,351.63329560000057,,,,,,,,,,,,,,351.67248819999986,,,,,,,,,,351.66954330000044,351.67248819999986,351.67248819999986,351.67248819999986,354.64993680000043,shoe,f,2.214019699998971,0.2566311999999016,354.6501089000012,354.65017350000016,None,,,,,,,,,,,,,,00069,001,2026-01-25_15h44.35.264,MST_task,2024.2.0,59.763182413380974,2026-01-25 15h44.41.088682 +0530,
,Objects\315a.jpg,74,0,75,,,,,,,f,1.7387357000006887,0.33665640000072017,None,,,,,,75,0,74,354.6658281,,,,,,,,,,,,,,,,,,,,,,,354.6504612000008,354.6658281,355.1499304000008,,,,,,,,,,,,,,355.19574470000043,,,,,,,,,,355.19264920000023,355.19574470000043,355.19574470000043,355.19574470000043,358.16640160000134,shoe,f,1.7387357000006887,0.33665640000072017,358.16657320000013,358.1666380000006,None,,,,,,,,,,,,,,00069,001,2026-01-25_15h44.35.264,MST_task,2024.2.0,59.763182413380974,2026-01-25 15h44.41.088682 +0530,
,Objects\245a.jpg,75,0,76,,,,,,,f,0.8657719000002544,0.2559292000005371,None,,,,,,76,0,75,358.18276460000016,,,,,,,,,,,,,,,,,,,,,,,358.16692239999975,358.18276460000016,358.6665885000002,,,,,,,,,,,,,,358.7090325999998,,,,,,,,,,358.70599180000136,358.7090325999998,358.7090325999998,358.7090325999998,361.68326890000026,shoe,f,0.8657719000002544,0.2559292000005371,361.68343190000087,361.6834961000004,None,,,,,,,,,,,,,,00069,001,2026-01-25_15h44.35.264,MST_task,2024.2.0,59.763182413380974,2026-01-25 15h44.41.088682 +0530,
,Objects\136a.jpg,76,0,77,,,,,,,None,,,f,0.015381399998659617,None,,,,77,0,76,361.69954830000097,,,,,,,,,,,,,,,,,,,,,,,361.68377970000074,361.69954830000097,362.1831650000004,,,,,,,,,,,,,,362.2277369000003,,,,,,,,,,362.2249401000008,362.2277369000003,362.2277369000003,362.2277369000003,365.1993300000013,shoe,None,,,365.1993921000012,365.2330780000011,f,365.21583030000147,365.21583030000147,0.015381399998659617,None,,,,,,,,,,00069,001,2026-01-25_15h44.35.264,MST_task,2024.2.0,59.763182413380974,2026-01-25 15h44.41.088682 +0530,
,Objects\038a.jpg,77,0,78,,,,,,,f,1.6168674000000465,0.21619880000071134,None,,,,,,78,0,77,365.2495615000007,,,,,,,,,,,,,,,,,,,,,,,365.2333716000012,365.2495615000007,365.73297770000136,,,,,,,,,,,,,,365.7817518000011,,,,,,,,,,365.7792640000007,365.7817518000011,365.7817518000011,365.7817518000011,368.74993560000075,indoor,f,1.6168674000000465,0.21619880000071134,368.755355700001,368.7553783000003,None,,,,,,,,,,,,,,00069,001,2026-01-25_15h44.35.264,MST_task,2024.2.0,59.763182413380974,2026-01-25 15h44.41.088682 +0530,
,Objects\059a.jpg,78,0,79,,,,,,,None,,,f,0.8676133000008122,None,,,,79,0,78,368.76628710000114,,,,,,,,,,,,,,,,,,,,,,,368.75546589999976,368.76628710000114,369.25002010000026,,,,,,,,,,,,,,369.2859368999998,,,,,,,,,,369.2832892000006,369.2859368999998,369.2859368999998,369.2859368999998,372.266501600001,indoor,None,,,372.2666551000002,373.1664894000005,f,372.28273290000106,372.28273290000106,0.8676133000008122,None,,,,,,,,,,00069,001,2026-01-25_15h44.35.264,MST_task,2024.2.0,59.763182413380974,2026-01-25 15h44.41.088682 +0530,
,Objects\131a.jpg,79,0,80,,,,,,,None,,,f,0.26747210000030464,None,,,,80,0,79,373.18258369999967,,,,,,,,,,,,,,,,,,,,,,,373.16682930000024,373.18258369999967,373.6663602999997,,,,,,,,,,,,,,373.6890377,,,,,,,,,,373.68646760000047,373.6890377,373.6890377,373.6890377,376.68309150000096,indoor,None,,,376.683234600001,376.98339000000124,f,376.6993218000007,376.6993218000007,0.26747210000030464,None,,,,,,,,,,00069,001,2026-01-25_15h44.35.264,MST_task,2024.2.0,59.763182413380974,2026-01-25 15h44.41.088682 +0530,
,Objects\067a.jpg,80,0,81,,,,,,,f,1.7866842999992514,0.2405259000006481,None,,,,,,81,0,80,376.9995705000001,,,,,,,,,,,,,,,,,,,,,,,376.9837251000008,376.9995705000001,377.4832142000014,,,,,,,,,,,,,,377.5319010000003,,,,,,,,,,377.5283797000011,377.5319010000003,377.5319010000003,377.5319010000003,380.4998503000006,indoor,f,1.7866842999992514,0.2405259000006481,380.50001239999983,380.50007730000107,None,,,,,,,,,,,,,,00069,001,2026-01-25_15h44.35.264,MST_task,2024.2.0,59.763182413380974,2026-01-25 15h44.41.088682 +0530,
,Objects\383a.jpg,81,0,82,,,,,,,None,,,f,0.9581952999997156,None,,,,82,0,81,380.51624620000075,,,,,,,,,,,,,,,,,,,,,,,380.5003598000003,380.51624620000075,380.99990290000096,,,,,,,,,,,,,,381.0495298000005,,,,,,,,,,381.0470819000002,381.0495298000005,381.0495298000005,381.0495298000005,384.01595110000017,indoor,None,,,384.0160839,385.00009580000005,f,384.03294860000096,384.03294860000096,0.9581952999997156,None,,,,,,,,,,00069,001,2026-01-25_15h44.35.264,MST_task,2024.2.0,59.763182413380974,2026-01-25 15h44.41.088682 +0530,
,Objects\258a.jpg,82,0,83,,,,,,,f,1.097425399999338,0.27933049999955983,None,,,,,,83,0,82,385.0161558,,,,,,,,,,,,,,,,,,,,,,,385.0004263999999,385.0161558,385.49999970000135,,,,,,,,,,,,,,385.54972180000004,,,,,,,,,,385.5466787000005,385.54972180000004,385.54972180000004,385.54972180000004,388.51661969999986,indoor,f,1.097425399999338,0.27933049999955983,388.5167837000008,388.5168458999997,None,,,,,,,,,,,,,,00069,001,2026-01-25_15h44.35.264,MST_task,2024.2.0,59.763182413380974,2026-01-25 15h44.41.088682 +0530,
,Objects\231a.jpg,83,0,84,,,,,,,j,1.0019159000003128,0.28808570000001055,None,,,,,,84,0,83,388.5328404000011,,,,,,,,,,,,,,,,,,,,,,,388.5171267000005,388.5328404000011,389.0167246000001,,,,,,,,,,,,,,389.0687697000012,,,,,,,,,,389.0654540000014,389.0687697000012,389.0687697000012,389.0687697000012,392.03331940000135,indoor,j,1.0019159000003128,0.28808570000001055,392.03348370000094,392.0335462000003,None,,,,,,,,,,,,,,00069,001,2026-01-25_15h44.35.264,MST_task,2024.2.0,59.763182413380974,2026-01-25 15h44.41.088682 +0530,
,Objects\151a.jpg,84,0,85,,,,,,,f,2.3205052000012074,0.2713640999991185,None,,,,,,85,0,84,392.04927730000054,,,,,,,,,,,,,,,,,,,,,,,392.0338296000009,392.04927730000054,392.5337491999999,,,,,,,,,,,,,,392.574681600001,,,,,,,,,,392.5717452000008,392.574681600001,392.574681600001,392.574681600001,395.5498742,shoe,f,2.3205052000012074,0.2713640999991185,395.555650100001,395.55570550000084,None,,,,,,,,,,,,,,00069,001,2026-01-25_15h44.35.264,MST_task,2024.2.0,59.763182413380974,2026-01-25 15h44.41.088682 +0530,
,Objects\158a.jpg,85,0,86,,,,,,,None,,,f,0.2758673999996972,None,,,,86,0,85,395.56632530000024,,,,,,,,,,,,,,,,,,,,,,,395.55592160000015,395.56632530000024,396.0499142000008,,,,,,,,,,,,,,396.1182398000001,,,,,,,,,,396.1150899000004,396.1182398000001,396.1182398000001,396.1182398000001,399.06657050000103,shoe,None,,,399.0667469,399.36714159999974,f,399.0826926000009,399.0826926000009,0.2758673999996972,None,,,,,,,,,,00069,001,2026-01-25_15h44.35.264,MST_task,2024.2.0,59.763182413380974,2026-01-25 15h44.41.088682 +0530,
,Objects\080a.jpg,86,0,87,,,,,,,f,2.930840900000476,None,None,,,,,,87,0,86,399.3824217000001,,,,,,,,,,,,,,,,,,,,,,,399.3675307000012,399.3824217000001,399.86664270000074,,,,,,,,,,,,,,399.90834580000046,,,,,,,,,,399.90540730000066,399.90834580000046,399.90834580000046,399.90834580000046,402.8832454000003,shoe,f,2.930840900000476,None,402.88341089999994,402.8834759000001,None,,,,,,,,,,,,,,00069,001,2026-01-25_15h44.35.264,MST_task,2024.2.0,59.763182413380974,2026-01-25 15h44.41.088682 +0530,
,Objects\034a.jpg,87,0,88,,,,,,,f,1.2829676999990625,0.271427900001072,None,,,,,,88,0,87,402.8996487000004,,,,,,,,,,,,,,,,,,,,,,,402.88375740000083,402.8996487000004,403.38306209999973,,,,,,,,,,,,,,403.42819390000113,,,,,,,,,,403.42490400000133,403.42819390000113,403.42819390000113,403.42819390000113,406.3999168999999,shoe,f,1.2829676999990625,0.271427900001072,406.4000934000014,406.4001638000009,None,,,,,,,,,,,,,,00069,001,2026-01-25_15h44.35.264,MST_task,2024.2.0,59.763182413380974,2026-01-25 15h44.41.088682 +0530,
,Objects\153a.jpg,88,0,89,,,,,,,f,0.9913854999995237,0.2561541000013676,None,,,,,,89,0,88,406.41593770000145,,,,,,,,,,,,,,,,,,,,,,,406.4005807000012,406.41593770000145,406.9000087000004,,,,,,,,,,,,,,406.9431096999997,,,,,,,,,,406.94058920000134,406.9431096999997,406.9431096999997,406.9431096999997,409.9166445999999,shoe,f,0.9913854999995237,0.2561541000013676,409.9168073000001,409.91686990000017,None,,,,,,,,,,,,,,00069,001,2026-01-25_15h44.35.264,MST_task,2024.2.0,59.763182413380974,2026-01-25 15h44.41.088682 +0530,
,Objects\182a.jpg,89,0,90,,,,,,,None,,,f,1.5810705000003509,None,,,,90,0,89,409.9328951000007,,,,,,,,,,,,,,,,,,,,,,,409.91715100000147,409.9328951000007,410.41665040000044,,,,,,,,,,,,,,410.44291410000005,,,,,,,,,,410.44011219999993,410.44291410000005,410.44291410000005,410.44291410000005,413.43388589999995,shoe,None,,,413.4339455999998,415.03229960000135,f,413.44922659999975,413.44922659999975,1.5810705000003509,None,,,,,,,,,,00069,001,2026-01-25_15h44.35.264,MST_task,2024.2.0,59.763182413380974,2026-01-25 15h44.41.088682 +0530,
,Objects\135a.jpg,90,0,91,,,,,,,None,,,f,0.39288610000039625,None,,,,91,0,90,415.04889000000003,,,,,,,,,,,,,,,,,,,,,,,415.03242339999997,415.04889000000003,415.5331186000003,,,,,,,,,,,,,,,,,,,,,,,,415.5746830999997,415.57750769999984,415.57750769999984,415.57750769999984,418.53331380000054,shoe,None,,,418.5334698000006,418.94960700000047,f,418.5496479000012,418.5496479000012,0.39288610000039625,None,,,,,,,,,,00069,001,2026-01-25_15h44.35.264,MST_task,2024.2.0,59.763182413380974,2026-01-25 15h44.41.088682 +0530,
,Objects\380a.jpg,91,0,92,,,,,,,j,1.6615629000007175,0.2406544000004942,None,,,,,,92,0,91,418.9658954000006,,,,,,,,,,,,,,,,,,,,,,,418.9500650000009,418.9658954000006,419.45001240000056,,,,,,,,,,,,,,419.4889250000015,,,,,,,,,,419.4866008000008,419.4889250000015,419.4889250000015,419.4889250000015,422.4504769000014,indoor,j,1.6615629000007175,0.2406544000004942,422.45626880000054,422.4563412000007,None,,,,,,,,,,,,,,00069,001,2026-01-25_15h44.35.264,MST_task,2024.2.0,59.763182413380974,2026-01-25 15h44.41.088682 +0530,
,Objects\141a.jpg,92,0,93,,,,,,,j,1.0188099000006332,0.27268759999969916,None,,,,,,93,0,92,422.46610710000095,,,,,,,,,,,,,,,,,,,,,,,422.4566082000001,422.46610710000095,422.9500132000012,,,,,,,,,,,,,,422.9876519999998,,,,,,,,,,422.9846680999999,422.9876519999998,422.9876519999998,422.9876519999998,425.966442500001,indoor,j,1.0188099000006332,0.27268759999969916,425.96675810000124,425.9668222,None,,,,,,,,,,,,,,00069,001,2026-01-25_15h44.35.264,MST_task,2024.2.0,59.763182413380974,2026-01-25 15h44.41.088682 +0530,
,Objects\253a.jpg,93,0,94,,,,,,,f,1.4819661999990785,0.2166136000014376,None,,,,,,94,0,93,425.9827688000005,,,,,,,,,,,,,,,,,,,,,,,425.96710669999993,425.9827688000005,426.4667375000008,,,,,,,,,,,,,,426.5325732000001,,,,,,,,,,426.5302535999999,426.5325732000001,426.5325732000001,426.5325732000001,429.4831711000006,indoor,f,1.4819661999990785,0.2166136000014376,429.4833352000005,429.48339730000043,None,,,,,,,,,,,,,,00069,001,2026-01-25_15h44.35.264,MST_task,2024.2.0,59.763182413380974,2026-01-25 15h44.41.088682 +0530,
,Objects\134a.jpg,94,0,95,,,,,,,j,1.168572700000368,0.2559930000006716,None,,,,,,95,0,94,429.4996253999998,,,,,,,,,,,,,,,,,,,,,,,429.4836780000005,429.4996253999998,429.98337230000107,,,,,,,,,,,,,,430.0225745000007,,,,,,,,,,430.0203066000013,430.0225745000007,430.0225745000007,430.0225745000007,432.9999559000007,indoor,j,1.168572700000368,0.2559930000006716,433.0001420000008,433.00021190000007,None,,,,,,,,,,,,,,00069,001,2026-01-25_15h44.35.264,MST_task,2024.2.0,59.763182413380974,2026-01-25 15h44.41.088682 +0530,
,Objects\166a.jpg,95,0,96,,,,,,,f,1.7582965999990847,0.27977110000028915,None,,,,,,96,0,95,433.0158998000006,,,,,,,,,,,,,,,,,,,,,,,433.00052250000044,433.0158998000006,433.50004230000013,,,,,,,,,,,,,,433.53688280000097,,,,,,,,,,433.53432470000007,433.53688280000097,433.53688280000097,433.53688280000097,436.5166403000003,indoor,f,1.7582965999990847,0.27977110000028915,436.5167496000013,436.516788500001,None,,,,,,,,,,,,,,00069,001,2026-01-25_15h44.35.264,MST_task,2024.2.0,59.763182413380974,2026-01-25 15h44.41.088682 +0530,
,Objects\233a.jpg,96,0,97,,,,,,,None,,,f,0.1323216999990109,None,,,,97,0,96,436.53297770000063,,,,,,,,,,,,,,,,,,,,,,,436.51696860000084,436.53297770000063,437.01658510000016,,,,,,,,,,,,,,437.0536326000001,,,,,,,,,,437.05042930000127,437.0536326000001,437.0536326000001,437.0536326000001,440.0334223000009,indoor,None,,,440.03357810000125,440.1834654000013,f,440.0502879000014,440.0502879000014,0.1323216999990109,None,,,,,,,,,,00069,001,2026-01-25_15h44.35.264,MST_task,2024.2.0,59.763182413380974,2026-01-25 15h44.41.088682 +0530,
,Objects\361a.jpg,97,0,98,,,,,,,f,1.610675199999605,0.1844216999998025,None,,,,,,98,0,97,440.19962430000123,,,,,,,,,,,,,,,,,,,,,,,440.18379840000125,440.19962430000123,440.68337600000086,,,,,,,,,,,,,,440.7397447000003,,,,,,,,,,440.73673320000125,440.7397447000003,440.7397447000003,440.7397447000003,443.6997922999999,indoor,f,1.610675199999605,0.1844216999998025,443.69996379999975,443.70003050000014,None,,,,,,,,,,,,,,00069,001,2026-01-25_15h44.35.264,MST_task,2024.2.0,59.763182413380974,2026-01-25 15h44.41.088682 +0530,
,Objects\009a.jpg,98,0,99,,,,,,,None,,,f,1.0383180999997421,None,,,,99,0,98,443.7159956000014,,,,,,,,,,,,,,,,,,,,,,,443.70031390000076,443.7159956000014,444.20001890000094,,,,,,,,,,,,,,444.2505828000012,,,,,,,,,,444.2482940000009,444.2505828000012,444.2505828000012,444.2505828000012,447.2165015999999,shoe,None,,,447.22248580000087,448.2835648,f,447.232847700001,447.232847700001,1.0383180999997421,None,,,,,,,,,,00069,001,2026-01-25_15h44.35.264,MST_task,2024.2.0,59.763182413380974,2026-01-25 15h44.41.088682 +0530,
,Objects\348a.jpg,99,0,100,,,,,,,f,1.1068854000004649,0.23206440000103612,None,,,,,,100,0,99,448.29925379999986,,,,,,,,,,,,,,,,,,,,,,,448.28389340000103,448.29925379999986,448.78321080000023,,,,,,,,,,,,,,448.8276424000014,,,,,,,,,,448.8242429000002,448.8276424000014,448.8276424000014,448.8276424000014,451.7999619000002,shoe,f,1.1068854000004649,0.23206440000103612,451.8001339000002,451.8001995000013,None,,,,,,,,,,,,,,00069,001,2026-01-25_15h44.35.264,MST_task,2024.2.0,59.763182413380974,2026-01-25 15h44.41.088682 +0530,
,Objects\296a.jpg,100,0,101,,,,,,,j,2.120359099999405,0.21561079999992216,None,,,,,,101,0,100,451.8163381000013,,,,,,,,,,,,,,,,,,,,,,,451.80048689999967,451.8163381000013,452.29995340000096,,,,,,,,,,,,,,452.3431829000001,,,,,,,,,,452.3399731999998,452.3431829000001,452.3431829000001,452.3431829000001,455.3167095000008,shoe,j,2.120359099999405,0.21561079999992216,455.3168732000013,455.3169342000001,None,,,,,,,,,,,,,,00069,001,2026-01-25_15h44.35.264,MST_task,2024.2.0,59.763182413380974,2026-01-25 15h44.41.088682 +0530,
,Objects\277a.jpg,101,0,102,,,,,,,f,0.7645518999997876,0.25608180000017455,None,,,,,,102,0,101,455.3326840999998,,,,,,,,,,,,,,,,,,,,,,,455.3172172000013,455.3326840999998,455.8167254,,,,,,,,,,,,,,455.86598100000083,,,,,,,,,,455.8623841999997,455.86598100000083,455.86598100000083,455.86598100000083,458.8333683000001,shoe,f,0.7645518999997876,0.25608180000017455,458.833535400001,458.83359759999985,None,,,,,,,,,,,,,,00069,001,2026-01-25_15h44.35.264,MST_task,2024.2.0,59.763182413380974,2026-01-25 15h44.41.088682 +0530,
,Objects\222a.jpg,102,0,103,,,,,,,j,1.5135475999995833,0.19998739999937243,None,,,,,,103,0,102,458.8496382000012,,,,,,,,,,,,,,,,,,,,,,,458.8338786000004,458.8496382000012,459.3330882999999,,,,,,,,,,,,,,459.3576131000009,,,,,,,,,,459.35457020000104,459.3576131000009,459.3576131000009,459.3576131000009,462.3500311000007,shoe,j,1.5135475999995833,0.19998739999937243,462.3501988000007,462.3502612000011,None,,,,,,,,,,,,,,00069,001,2026-01-25_15h44.35.264,MST_task,2024.2.0,59.763182413380974,2026-01-25 15h44.41.088682 +0530,
,Objects\090a.jpg,103,0,104,,,,,,,None,,,f,0.2516967999999906,None,,,,104,0,103,462.36620070000026,,,,,,,,,,,,,,,,,,,,,,,462.3505406000004,462.36620070000026,462.8500746999998,,,,,,,,,,,,,,462.89635890000136,,,,,,,,,,462.89378899999974,462.89635890000136,462.89635890000136,462.89635890000136,465.86667900000066,shoe,None,,,465.8668269000009,466.15024900000026,f,465.8830023999999,465.8830023999999,0.2516967999999906,None,,,,,,,,,,00069,001,2026-01-25_15h44.35.264,MST_task,2024.2.0,59.763182413380974,2026-01-25 15h44.41.088682 +0530,
,Objects\179a.jpg,104,0,105,,,,,,,f,1.782927500000369,0.25646620000043185,None,,,,,,105,0,104,466.16603080000095,,,,,,,,,,,,,,,,,,,,,,,466.15058020000106,466.16603080000095,466.6499478000005,,,,,,,,,,,,,,466.70377200000075,,,,,,,,,,466.7005869000004,466.70377200000075,466.70377200000075,466.70377200000075,469.66660729999967,shoe,f,1.782927500000369,0.25646620000043185,469.6667730999998,469.66683490000105,None,,,,,,,,,,,,,,00069,001,2026-01-25_15h44.35.264,MST_task,2024.2.0,59.763182413380974,2026-01-25 15h44.41.088682 +0530,
,Objects\083a.jpg,105,0,106,,,,,,,f,0.8158383999998478,0.24838249999993423,None,,,,,,106,0,105,469.6826338999999,,,,,,,,,,,,,,,,,,,,,,,469.667236700001,469.6826338999999,470.1667331999997,,,,,,,,,,,,,,470.20696130000033,,,,,,,,,,470.2041500000014,470.20696130000033,470.20696130000033,470.20696130000033,473.1831761000012,indoor,f,0.8158383999998478,0.24838249999993423,473.1884542000007,473.18847430000096,None,,,,,,,,,,,,,,00069,001,2026-01-25_15h44.35.264,MST_task,2024.2.0,59.763182413380974,2026-01-25 15h44.41.088682 +0530,
,Objects\025a.jpg,106,0,107,,,,,,,None,,,j,0.8105512999991333,None,,,,107,0,106,473.19935910000095,,,,,,,,,,,,,,,,,,,,,,,473.1885557000005,473.19935910000095,473.6833342000009,,,,,,,,,,,,,,473.721851100001,,,,,,,,,,473.7188103999997,473.721851100001,473.721851100001,473.721851100001,476.69985030000134,indoor,None,,,476.7001001999997,477.533421600001,j,476.7163701999998,476.7163701999998,0.8105512999991333,None,,,,,,,,,,00069,001,2026-01-25_15h44.35.264,MST_task,2024.2.0,59.763182413380974,2026-01-25 15h44.41.088682 +0530,
,Objects\285a.jpg,107,0,108,,,,,,,f,1.500959499999226,0.256091600000218,None,,,,,,108,0,107,477.54941640000106,,,,,,,,,,,,,,,,,,,,,,,477.5338085000003,477.54941640000106,478.0333378000014,,,,,,,,,,,,,,478.0741016000011,,,,,,,,,,478.0713195999997,478.0741016000011,478.0741016000011,478.0741016000011,481.0500778000005,indoor,f,1.500959499999226,0.256091600000218,481.05024109999977,481.05030540000007,None,,,,,,,,,,,,,,00069,001,2026-01-25_15h44.35.264,MST_task,2024.2.0,59.763182413380974,2026-01-25 15h44.41.088682 +0530,
,Objects\265a.jpg,108,0,109,,,,,,,None,,,f,1.5601913999998942,None,,,,109,0,108,481.06633390000025,,,,,,,,,,,,,,,,,,,,,,,481.05058629999985,481.06633390000025,481.5497817000014,,,,,,,,,,,,,,481.57527240000127,,,,,,,,,,481.5724792000001,481.57527240000127,481.57527240000127,481.57527240000127,484.5667344000012,indoor,None,,,484.5668846999997,486.15007630000036,f,484.58299140000054,484.58299140000054,1.5601913999998942,None,,,,,,,,,,00069,001,2026-01-25_15h44.35.264,MST_task,2024.2.0,59.763182413380974,2026-01-25 15h44.41.088682 +0530,
,Objects\084a.jpg,109,0,110,,,,,,,f,1.5645674999996118,0.19189670000014303,None,,,,,,110,0,109,486.16635660000065,,,,,,,,,,,,,,,,,,,,,,,486.1504143000002,486.16635660000065,486.65011290000075,,,,,,,,,,,,,,486.6982100000005,,,,,,,,,,486.69581970000036,486.6982100000005,486.6982100000005,486.6982100000005,489.6667502,indoor,f,1.5645674999996118,0.19189670000014303,489.66691730000093,489.66697960000056,None,,,,,,,,,,,,,,00069,001,2026-01-25_15h44.35.264,MST_task,2024.2.0,59.763182413380974,2026-01-25 15h44.41.088682 +0530,
,Objects\174a.jpg,110,0,111,,,,,,,f,1.999447100000907,0.20016869999926712,None,,,,,,111,0,110,489.68269770000006,,,,,,,,,,,,,,,,,,,,,,,489.66725580000093,489.68269770000006,490.16662200000064,,,,,,,,,,,,,,490.2151028999997,,,,,,,,,,490.21159830000033,490.2151028999997,490.2151028999997,490.2151028999997,493.18320010000025,indoor,f,1.999447100000907,0.20016869999926712,493.1833607000008,493.1834248000014,None,,,,,,,,,,,,,,00069,001,2026-01-25_15h44.35.264,MST_task,2024.2.0,59.763182413380974,2026-01-25 15h44.41.088682 +0530,
,Objects\326a.jpg,111,0,112,,,,,,,f,1.859818599999926,0.2566270000006625,None,,,,,,112,0,111,493.1995332000006,,,,,,,,,,,,,,,,,,,,,,,493.1837105000013,493.1995332000006,493.6833587000001,,,,,,,,,,,,,,493.72276899999997,,,,,,,,,,493.72027920000073,493.72276899999997,493.72276899999997,493.72276899999997,496.70009050000044,indoor,f,1.859818599999926,0.2566270000006625,496.70025239999995,496.7003138,None,,,,,,,,,,,,,,00069,001,2026-01-25_15h44.35.264,MST_task,2024.2.0,59.763182413380974,2026-01-25 15h44.41.088682 +0530,
,Objects\040a.jpg,112,0,113,,,,,,,f,2.3234391000005417,0.2556409999997413,None,,,,,,113,0,112,496.71637590000137,,,,,,,,,,,,,,,,,,,,,,,496.7005945000001,496.71637590000137,497.1999572000004,,,,,,,,,,,,,,497.2433793,,,,,,,,,,497.2409939999998,497.2433793,497.2433793,497.2433793,500.21677830000044,shoe,f,2.3234391000005417,0.2556409999997413,500.2237022999998,500.2237486000013,None,,,,,,,,,,,,,,00069,001,2026-01-25_15h44.35.264,MST_task,2024.2.0,59.763182413380974,2026-01-25 15h44.41.088682 +0530,
,Objects\123a.jpg,113,0,114,,,,,,,f,1.6376674999992247,0.07935189999989234,None,,,,,,114,0,113,500.23298270000123,,,,,,,,,,,,,,,,,,,,,,,500.22393790000024,500.23298270000123,500.7167608,,,,,,,,,,,,,,500.7535089000012,,,,,,,,,,500.75048510000124,500.7535089000012,500.7535089000012,500.7535089000012,503.73327419999987,shoe,f,1.6376674999992247,0.07935189999989234,503.7334613000003,503.7335254999998,None,,,,,,,,,,,,,,00069,001,2026-01-25_15h44.35.264,MST_task,2024.2.0,59.763182413380974,2026-01-25 15h44.41.088682 +0530,
,Objects\066a.jpg,114,0,115,,,,,,,j,2.1578251000009914,0.2323882999990019,None,,,,,,115,0,114,503.749710600001,,,,,,,,,,,,,,,,,,,,,,,503.73381340000014,503.749710600001,504.2333577999998,,,,,,,,,,,,,,504.2729388000007,,,,,,,,,,504.2701244,504.2729388000007,504.2729388000007,504.2729388000007,507.2500916000008,shoe,j,2.1578251000009914,0.2323882999990019,507.25025650000134,507.250320000001,None,,,,,,,,,,,,,,00069,001,2026-01-25_15h44.35.264,MST_task,2024.2.0,59.763182413380974,2026-01-25 15h44.41.088682 +0530,
,Objects\026a.jpg,115,0,116,,,,,,,f,1.8577939999995579,0.2398449000011169,None,,,,,,116,0,115,507.2661318999999,,,,,,,,,,,,,,,,,,,,,,,507.25060099999973,507.2661318999999,507.75012010000137,,,,,,,,,,,,,,507.7890115000009,,,,,,,,,,507.78626930000064,507.7890115000009,507.7890115000009,507.7890115000009,510.76679350000086,shoe,f,1.8577939999995579,0.2398449000011169,510.7669571000006,510.76701980000144,None,,,,,,,,,,,,,,00069,001,2026-01-25_15h44.35.264,MST_task,2024.2.0,59.763182413380974,2026-01-25 15h44.41.088682 +0530,
,Objects\292a.jpg,116,0,117,,,,,,,f,2.804101699999592,None,None,,,,,,117,0,116,510.78275759999997,,,,,,,,,,,,,,,,,,,,,,,510.76740750000135,510.78275759999997,511.2665768000006,,,,,,,,,,,,,,511.2983823000013,,,,,,,,,,511.2948296000013,511.2983823000013,511.2983823000013,511.2983823000013,514.2833702999997,shoe,f,2.804101699999592,None,514.2835403000008,514.2836093000005,None,,,,,,,,,,,,,,00069,001,2026-01-25_15h44.35.264,MST_task,2024.2.0,59.763182413380974,2026-01-25 15h44.41.088682 +0530,
,Objects\234a.jpg,117,0,118,,,,,,,j,1.953488199998901,0.21625409999978729,None,,,,,,118,0,117,514.2997300000006,,,,,,,,,,,,,,,,,,,,,,,514.2839729000007,514.2997300000006,514.7832310000013,,,,,,,,,,,,,,514.8130839000005,,,,,,,,,,514.8104275000005,514.8130839000005,514.8130839000005,514.8130839000005,517.8002295000006,shoe,j,1.953488199998901,0.21625409999978729,517.8003955000004,517.8004571000001,None,,,,,,,,,,,,,,00069,001,2026-01-25_15h44.35.264,MST_task,2024.2.0,59.763182413380974,2026-01-25 15h44.41.088682 +0530,
,Objects\263a.jpg,118,0,119,,,,,,,j,2.849349899999652,None,None,,,,,,119,0,118,517.8162649000005,,,,,,,,,,,,,,,,,,,,,,,517.800744600001,517.8162649000005,518.3001105000003,,,,,,,,,,,,,,518.3331960000014,,,,,,,,,,518.3300297000005,518.3331960000014,518.3331960000014,518.3331960000014,521.3167797000006,shoe,j,2.849349899999652,None,521.3169594999999,521.3170230000014,None,,,,,,,,,,,,,,00069,001,2026-01-25_15h44.35.264,MST_task,2024.2.0,59.763182413380974,2026-01-25 15h44.41.088682 +0530,
,Objects\037a.jpg,119,0,120,,,,,,,f,1.8740983999996388,0.21577650000108406,None,,,,,,120,0,119,521.3329584000003,,,,,,,,,,,,,,,,,,,,,,,521.3174201000002,521.3329584000003,521.8167893000009,,,,,,,,,,,,,,521.8529063000005,,,,,,,,,,521.8502079999998,521.8529063000005,521.8529063000005,521.8529063000005,524.8334167000012,indoor,f,1.8740983999996388,0.21577650000108406,524.8388050000012,524.8388540000014,None,,,,,,,,,,,,,,00069,001,2026-01-25_15h44.35.264,MST_task,2024.2.0,59.763182413380974,2026-01-25 15h44.41.088682 +0530,
,Objects\286a.jpg,120,0,121,,,,,,,f,2.6810452999998233,0.24759259999882488,None,,,,,,121,0,120,524.8497416000009,,,,,,,,,,,,,,,,,,,,,,,524.8390529000008,524.8497416000009,525.3334363000013,,,,,,,,,,,,,,525.3661592999997,,,,,,,,,,525.3637744000007,525.3661592999997,525.3661592999997,525.3661592999997,528.3505012000005,indoor,f,2.6810452999998233,0.24759259999882488,528.3506632999997,528.3507261000013,None,,,,,,,,,,,,,,00069,001,2026-01-25_15h44.35.264,MST_task,2024.2.0,59.763182413380974,2026-01-25 15h44.41.088682 +0530,
,Objects\157a.jpg,121,0,122,,,,,,,f,1.8146204999993643,0.2800133000000642,None,,,,,,122,0,121,528.3660698000003,,,,,,,,,,,,,,,,,,,,,,,528.3510087000013,528.3660698000003,528.8501871000008,,,,,,,,,,,,,,528.9039177000013,,,,,,,,,,528.9014648000011,528.9039177000013,528.9039177000013,528.9039177000013,531.8664698000011,indoor,f,1.8146204999993643,0.2800133000000642,531.8666322000008,531.8666938000006,None,,,,,,,,,,,,,,00069,001,2026-01-25_15h44.35.264,MST_task,2024.2.0,59.763182413380974,2026-01-25 15h44.41.088682 +0530,
,Objects\290a.jpg,122,0,123,,,,,,,j,2.6011689999995724,0.24057259999972302,None,,,,,,123,0,122,531.8830797999999,,,,,,,,,,,,,,,,,,,,,,,531.8669749000001,531.8830797999999,532.3666601000004,,,,,,,,,,,,,,532.4053861000011,,,,,,,,,,532.4021639000002,532.4053861000011,532.4053861000011,532.4053861000011,535.3834612999999,indoor,j,2.6011689999995724,0.24057259999972302,535.3836293000004,535.383690300001,None,,,,,,,,,,,,,,00069,001,2026-01-25_15h44.35.264,MST_task,2024.2.0,59.763182413380974,2026-01-25 15h44.41.088682 +0530,
,Objects\005a.jpg,123,0,124,,,,,,,f,1.5376312999997026,0.2724343999998382,None,,,,,,124,0,123,535.3996758000012,,,,,,,,,,,,,,,,,,,,,,,535.3839709000003,535.3996758000012,535.883424900001,,,,,,,,,,,,,,535.9170945000005,,,,,,,,,,535.9140395000013,535.9170945000005,535.9170945000005,535.9170945000005,538.9011573000007,indoor,f,1.5376312999997026,0.2724343999998382,538.9013226000006,538.9013993999997,None,,,,,,,,,,,,,,00069,001,2026-01-25_15h44.35.264,MST_task,2024.2.0,59.763182413380974,2026-01-25 15h44.41.088682 +0530,
,Objects\164a.jpg,124,0,125,,,,,,,f,2.103301900000588,0.22330370000054245,None,,,,,,125,0,124,538.9161128000014,,,,,,,,,,,,,,,,,,,,,,,538.9016824999999,538.9161128000014,539.4000831000012,,,,,,,,,,,,,,539.4559181000004,,,,,,,,,,539.4530802999998,539.4559181000004,539.4559181000004,539.4559181000004,542.4164945000011,indoor,f,2.103301900000588,0.22330370000054245,542.4166593000009,542.4167210000014,None,,,,,,,,,,,,,,00069,001,2026-01-25_15h44.35.264,MST_task,2024.2.0,59.763182413380974,2026-01-25 15h44.41.088682 +0530,
,Objects\138a.jpg,125,0,126,,,,,,,j,2.3557700000001205,0.23922850000053586,None,,,,,,126,0,125,542.4330774000009,,,,,,,,,,,,,,,,,,,,,,,542.4170033999999,542.4330774000009,542.9167401000013,,,,,,,,,,,,,,542.9554638000009,,,,,,,,,,542.9525864000007,542.9554638000009,542.9554638000009,542.9554638000009,545.9331441000013,indoor,j,2.3557700000001205,0.23922850000053586,545.9333060000008,545.9333693000008,None,,,,,,,,,,,,,,00069,001,2026-01-25_15h44.35.264,MST_task,2024.2.0,59.763182413380974,2026-01-25 15h44.41.088682 +0530,
,Objects\314a.jpg,126,0,127,,,,,,,None,,,j,0.4206945000005362,None,,,,127,0,126,545.9497968000014,,,,,,,,,,,,,,,,,,,,,,,545.9336543000009,545.9497968000014,546.433495700001,,,,,,,,,,,,,,546.5583230000011,,,,,,,,,,546.5556535000014,546.5583230000011,546.5583230000011,546.5583230000011,549.4509310000012,shoe,None,,,549.4568061999998,549.9002486999998,j,549.4664674000014,549.4664674000014,0.4206945000005362,None,,,,,,,,,,00069,001,2026-01-25_15h44.35.264,MST_task,2024.2.0,59.763182413380974,2026-01-25 15h44.41.088682 +0530,
,Objects\197a.jpg,127,0,128,,,,,,,None,,,j,2.40571380000074,None,,,,128,0,127,549.916419000001,,,,,,,,,,,,,,,,,,,,,,,549.900590700001,549.916419000001,550.4001288,,,,,,,,,,,,,,550.4850341000001,,,,,,,,,,550.4816511999998,550.4850341000001,550.4850341000001,550.4850341000001,553.4165503000004,shoe,None,,,553.4167123000007,555.8501621000014,j,553.433074300001,553.433074300001,2.40571380000074,None,,,,,,,,,,00069,001,2026-01-25_15h44.35.264,MST_task,2024.2.0,59.763182413380974,2026-01-25 15h44.41.088682 +0530,
,Objects\035a.jpg,128,0,129,,,,,,,j,1.6726091000000451,0.23999489999914658,None,,,,,,129,0,128,555.8664119000005,,,,,,,,,,,,,,,,,,,,,,,555.8506173000005,555.8664119000005,556.3501033000011,,,,,,,,,,,,,,556.3985646000001,,,,,,,,,,556.3953388999998,556.3985646000001,556.3985646000001,556.3985646000001,559.3666317000007,shoe,j,1.6726091000000451,0.23999489999914658,559.3667958000005,559.3668608999997,None,,,,,,,,,,,,,,00069,001,2026-01-25_15h44.35.264,MST_task,2024.2.0,59.763182413380974,2026-01-25 15h44.41.088682 +0530,
,Objects\089a.jpg,129,0,130,,,,,,,j,2.164822599999752,0.23292099999889615,None,,,,,,130,0,129,559.3830898000015,,,,,,,,,,,,,,,,,,,,,,,559.3671453000006,559.3830898000015,559.8667729999997,,,,,,,,,,,,,,559.8983764000004,,,,,,,,,,559.8961422000011,559.8983764000004,559.8983764000004,559.8983764000004,562.8833200999998,shoe,j,2.164822599999752,0.23292099999889615,562.8834805000006,562.8835446000012,None,,,,,,,,,,,,,,00069,001,2026-01-25_15h44.35.264,MST_task,2024.2.0,59.763182413380974,2026-01-25 15h44.41.088682 +0530,
,Objects\205a.jpg,130,0,131,,,,,,,f,1.8413571000000957,0.2637042999995174,None,,,,,,131,0,130,562.8997673000013,,,,,,,,,,,,,,,,,,,,,,,562.8839322000003,562.8997673000013,563.3835236000014,,,,,,,,,,,,,,563.4377442000005,,,,,,,,,,563.4348128000001,563.4377442000005,563.4377442000005,563.4377442000005,566.4001549000004,shoe,f,1.8413571000000957,0.2637042999995174,566.4003166000002,566.4003775000001,None,,,,,,,,,,,,,,00069,001,2026-01-25_15h44.35.264,MST_task,2024.2.0,59.763182413380974,2026-01-25 15h44.41.088682 +0530,
,Objects\155a.jpg,131,0,132,,,,,,,f,2.3722837999994226,0.25564480000139156,None,,,,,,132,0,131,566.416451000001,,,,,,,,,,,,,,,,,,,,,,,566.400656400001,566.416451000001,566.9002077000005,,,,,,,,,,,,,,566.9389050000009,,,,,,,,,,566.9357582000011,566.9389050000009,566.9389050000009,566.9389050000009,569.9168734000014,shoe,f,2.3722837999994226,0.25564480000139156,569.9170551000007,569.9171232000008,None,,,,,,,,,,,,,,00069,001,2026-01-25_15h44.35.264,MST_task,2024.2.0,59.763182413380974,2026-01-25 15h44.41.088682 +0530,
,Objects\163a.jpg,132,0,133,,,,,,,None,,,f,1.6610245000010764,None,,,,133,0,132,569.9330633000009,,,,,,,,,,,,,,,,,,,,,,,569.9175602000014,569.9330633000009,570.4165634000001,,,,,,,,,,,,,,570.4626457000013,,,,,,,,,,570.4597681000014,570.4626457000013,570.4626457000013,570.4626457000013,573.4333932999998,shoe,None,,,573.4335393000001,575.1171890000005,f,573.4497900000006,573.4497900000006,1.6610245000010764,None,,,,,,,,,,00069,001,2026-01-25_15h44.35.264,MST_task,2024.2.0,59.763182413380974,2026-01-25 15h44.41.088682 +0530,
,Objects\073a.jpg,133,0,134,,,,,,,f,2.343149900001663,0.335278799999287,None,,,,,,134,0,133,575.1329091000007,,,,,,,,,,,,,,,,,,,,,,,575.1175270000003,575.1329091000007,575.616499400001,,,,,,,,,,,,,,575.6720466000006,,,,,,,,,,575.6692227000003,575.6720466000006,575.6720466000006,575.6720466000006,578.633502300001,indoor,f,2.343149900001663,0.335278799999287,578.6390652999999,578.6391349000005,None,,,,,,,,,,,,,,00069,001,2026-01-25_15h44.35.264,MST_task,2024.2.0,59.763182413380974,2026-01-25 15h44.41.088682 +0530,
,Objects\191a.jpg,134,0,135,,,,,,,j,2.1123499000004813,0.21577609999985725,None,,,,,,135,0,134,578.6497259000007,,,,,,,,,,,,,,,,,,,,,,,578.6394180000007,578.6497259000007,579.1334056000014,,,,,,,,,,,,,,579.1743564000008,,,,,,,,,,579.1710643000006,579.1743564000008,579.1743564000008,579.1743564000008,582.1501260000005,indoor,j,2.1123499000004813,0.21577609999985725,582.1503013000001,582.1503702999998,None,,,,,,,,,,,,,,00069,001,2026-01-25_15h44.35.264,MST_task,2024.2.0,59.763182413380974,2026-01-25 15h44.41.088682 +0530,
,Objects\008a.jpg,135,0,136,,,,,,,f,2.592681800000719,0.2799938000007387,None,,,,,,136,0,135,582.1664519000005,,,,,,,,,,,,,,,,,,,,,,,582.1506771000004,582.1664519000005,582.6497971000008,,,,,,,,,,,,,,582.7024880000008,,,,,,,,,,582.7000879000007,582.7024880000008,582.7024880000008,582.7024880000008,585.6666970000006,indoor,f,2.592681800000719,0.2799938000007387,585.6668691000013,585.6669290000009,None,,,,,,,,,,,,,,00069,001,2026-01-25_15h44.35.264,MST_task,2024.2.0,59.763182413380974,2026-01-25 15h44.41.088682 +0530,
,Objects\212a.jpg,136,0,137,,,,,,,None,,,j,0.9113686000000598,None,,,,137,0,136,585.6830688999999,,,,,,,,,,,,,,,,,,,,,,,585.6672237000002,585.6830688999999,586.1668983,,,,,,,,,,,,,,586.2189577000008,,,,,,,,,,586.216257600001,586.2189577000008,586.2189577000008,586.2189577000008,589.1832434999997,indoor,None,,,589.1833997000012,590.1169834000011,j,589.1997919000005,589.1997919000005,0.9113686000000598,None,,,,,,,,,,00069,001,2026-01-25_15h44.35.264,MST_task,2024.2.0,59.763182413380974,2026-01-25 15h44.41.088682 +0530,
,Objects\175a.jpg,137,0,138,,,,,,,f,1.0495835000001534,0.21601799999916693,None,,,,,,138,0,137,590.1330596000007,,,,,,,,,,,,,,,,,,,,,,,590.1173092999998,590.1330596000007,590.6168702000014,,,,,,,,,,,,,,590.652885200001,,,,,,,,,,590.6501119000004,590.652885200001,590.652885200001,590.652885200001,593.6342967,indoor,f,1.0495835000001534,0.21601799999916693,593.6344588000011,593.6345232000003,None,,,,,,,,,,,,,,00069,001,2026-01-25_15h44.35.264,MST_task,2024.2.0,59.763182413380974,2026-01-25 15h44.41.088682 +0530,
,Objects\379a.jpg,138,0,139,,,,,,,f,2.382268600000316,0.24058469999908993,None,,,,,,139,0,138,593.6498064000007,,,,,,,,,,,,,,,,,,,,,,,593.634804700001,593.6498064000007,594.1333272000011,,,,,,,,,,,,,,594.1683205999998,,,,,,,,,,594.1656792000013,594.1683205999998,594.1683205999998,594.1683205999998,597.1502116000011,indoor,f,2.382268600000316,0.24058469999908993,597.1503775000001,597.1504405000014,None,,,,,,,,,,,,,,00069,001,2026-01-25_15h44.35.264,MST_task,2024.2.0,59.763182413380974,2026-01-25 15h44.41.088682 +0530,
,Objects\120a.jpg,139,0,140,,,,,,,f,1.524718299999222,0.2323874000012438,None,,,,,,140,0,139,597.166313400001,,,,,,,,,,,,,,,,,,,,,,,597.1507247000009,597.166313400001,597.6498643000014,,,,,,,,,,,,,,597.6900610000012,,,,,,,,,,597.687117200001,597.6900610000012,597.6900610000012,597.6900610000012,600.6668669999999,indoor,f,1.524718299999222,0.2323874000012438,600.6670460000005,600.6671112000004,None,,,,,,,,,,,,,,00069,001,2026-01-25_15h44.35.264,MST_task,2024.2.0,59.763182413380974,2026-01-25 15h44.41.088682 +0530,
,Objects\362a.jpg,140,0,141,,,,,,,f,2.7096130000008998,None,None,,,,,,141,0,140,600.6830642000004,,,,,,,,,,,,,,,,,,,,,,,600.6674265000001,600.6830642000004,601.1668602000009,,,,,,,,,,,,,,601.2089543000002,,,,,,,,,,601.2060226000012,601.2089543000002,601.2089543000002,601.2089543000002,604.1835126000005,shoe,f,2.7096130000008998,None,604.1889037000001,604.1889228,None,,,,,,,,,,,,,,00069,001,2026-01-25_15h44.35.264,MST_task,2024.2.0,59.763182413380974,2026-01-25 15h44.41.088682 +0530,
,Objects\374a.jpg,141,0,142,,,,,,,None,,,f,1.6589851999997336,None,,,,142,0,141,604.1997123000001,,,,,,,,,,,,,,,,,,,,,,,604.1890216000011,604.1997123000001,604.6834779000001,,,,,,,,,,,,,,604.7222987000005,,,,,,,,,,604.7192551000007,604.7222987000005,604.7222987000005,604.7222987000005,607.7002631000014,shoe,None,,,607.7004209000006,609.3836069000008,f,607.7161804000007,607.7161804000007,1.6589851999997336,None,,,,,,,,,,00069,001,2026-01-25_15h44.35.264,MST_task,2024.2.0,59.763182413380974,2026-01-25 15h44.41.088682 +0530,
,Objects\108a.jpg,142,0,143,,,,,,,j,2.200783099999171,0.1763387999999395,None,,,,,,143,0,142,609.3998174999997,,,,,,,,,,,,,,,,,,,,,,,609.384118,609.3998174999997,609.8834981,,,,,,,,,,,,,,609.9337603000004,,,,,,,,,,609.9312414000015,609.9337603000004,609.9337603000004,609.9337603000004,612.9000800000013,shoe,j,2.200783099999171,0.1763387999999395,612.9002409000004,612.9003030000003,None,,,,,,,,,,,,,,00069,001,2026-01-25_15h44.35.264,MST_task,2024.2.0,59.763182413380974,2026-01-25 15h44.41.088682 +0530,
,Objects\167a.jpg,143,0,144,,,,,,,f,2.7800067000007402,None,None,,,,,,144,0,143,612.9165042000004,,,,,,,,,,,,,,,,,,,,,,,612.9006915000009,612.9165042000004,613.3998048000012,,,,,,,,,,,,,,613.4352250000011,,,,,,,,,,613.4323566000003,613.4352250000011,613.4352250000011,613.4352250000011,616.4164999000004,shoe,f,2.7800067000007402,None,616.4166566000004,616.4167205000012,None,,,,,,,,,,,,,,00069,001,2026-01-25_15h44.35.264,MST_task,2024.2.0,59.763182413380974,2026-01-25 15h44.41.088682 +0530,
,Objects\217a.jpg,144,0,145,,,,,,,f,1.5025165999995806,0.23932799999965937,None,,,,,,145,0,144,616.4330870000013,,,,,,,,,,,,,,,,,,,,,,,616.4170004000007,616.4330870000013,616.9169792000012,,,,,,,,,,,,,,616.9686674000004,,,,,,,,,,616.9655959000011,616.9686674000004,616.9686674000004,616.9686674000004,619.9331798000003,shoe,f,1.5025165999995806,0.23932799999965937,619.9333173000014,619.9333665000013,None,,,,,,,,,,,,,,00069,001,2026-01-25_15h44.35.264,MST_task,2024.2.0,59.763182413380974,2026-01-25 15h44.41.088682 +0530,
,Objects\189a.jpg,145,0,146,,,,,,,j,1.7639529000007315,0.2472302000005584,None,,,,,,146,0,145,619.9494713000004,,,,,,,,,,,,,,,,,,,,,,,619.9335619000012,619.9494713000004,620.4336129000003,,,,,,,,,,,,,,620.4752447999999,,,,,,,,,,620.4719278000011,620.4752447999999,620.4752447999999,620.4752447999999,623.4337051000002,shoe,j,1.7639529000007315,0.2472302000005584,623.4338978000014,623.4339627999998,None,,,,,,,,,,,,,,00069,001,2026-01-25_15h44.35.264,MST_task,2024.2.0,59.763182413380974,2026-01-25 15h44.41.088682 +0530,
,Objects\323a.jpg,146,0,147,,,,,,,f,1.5391101999994135,0.2398138000007748,None,,,,,,147,0,146,623.4495203000006,,,,,,,,,,,,,,,,,,,,,,,623.4343618000003,623.4495203000006,623.9335959,,,,,,,,,,,,,,623.9715388000004,,,,,,,,,,623.9683412000013,623.9715388000004,623.9715388000004,623.9715388000004,626.9501762,shoe,f,1.5391101999994135,0.2398138000007748,626.9503388000012,626.9504037000006,None,,,,,,,,,,,,,,00069,001,2026-01-25_15h44.35.264,MST_task,2024.2.0,59.763182413380974,2026-01-25 15h44.41.088682 +0530,
,Objects\056a.jpg,147,0,148,,,,,,,None,,,f,0.10721859999830485,None,,,,148,0,147,626.9660378000008,,,,,,,,,,,,,,,,,,,,,,,626.9506909000011,626.9660378000008,627.4502475999998,,,,,,,,,,,,,,627.4926847000006,,,,,,,,,,627.4900149000005,627.4926847000006,627.4926847000006,627.4926847000006,630.4666460000008,indoor,None,,,630.4719334000001,630.6003911000007,f,630.483163500001,630.483163500001,0.10721859999830485,None,,,,,,,,,,00069,001,2026-01-25_15h44.35.264,MST_task,2024.2.0,59.763182413380974,2026-01-25 15h44.41.088682 +0530,
,Objects\058a.jpg,148,0,149,,,,,,,f,1.7785897000012483,0.22394419999909587,None,,,,,,149,0,148,630.6164550000012,,,,,,,,,,,,,,,,,,,,,,,630.6006429999998,630.6164550000012,631.0997041999999,,,,,,,,,,,,,,631.1319627000012,,,,,,,,,,631.1291712000002,631.1319627000012,631.1319627000012,631.1319627000012,634.1164839000012,indoor,f,1.7785897000012483,0.22394419999909587,634.1166485000012,634.1167127000008,None,,,,,,,,,,,,,,00069,001,2026-01-25_15h44.35.264,MST_task,2024.2.0,59.763182413380974,2026-01-25 15h44.41.088682 +0530,
,Objects\236a.jpg,149,0,150,,,,,,,None,,,f,1.0144813000006252,None,,,,150,0,149,634.1331848999998,,,,,,,,,,,,,,,,,,,,,,,634.1169965000008,634.1331848999998,634.6168441999998,,,,,,,,,,,,,,634.669952100001,,,,,,,,,,634.6667699000009,634.669952100001,634.669952100001,634.669952100001,637.6168825000004,indoor,None,,,637.6170410000013,638.6501161000015,f,637.6328543,637.6328543,1.0144813000006252,None,,,,,,,,,,00069,001,2026-01-25_15h44.35.264,MST_task,2024.2.0,59.763182413380974,2026-01-25 15h44.41.088682 +0530,
,Objects\069a.jpg,150,0,151,,,,,,,j,1.7406315000007453,0.23939199999949778,None,,,,,,151,0,150,638.6665814999997,,,,,,,,,,,,,,,,,,,,,,,638.6504507999998,638.6665814999997,639.1502460000011,,,,,,,,,,,,,,639.1865612000001,,,,,,,,,,639.1840597999999,639.1865612000001,639.1865612000001,639.1865612000001,642.1668065000013,indoor,j,1.7406315000007453,0.23939199999949778,642.167000200001,642.1670685000008,None,,,,,,,,,,,,,,00069,001,2026-01-25_15h44.35.264,MST_task,2024.2.0,59.763182413380974,2026-01-25 15h44.41.088682 +0530,
,Objects\022a.jpg,151,0,152,,,,,,,j,1.304156399999556,0.24035580000054324,None,,,,,,152,0,151,642.1830956000013,,,,,,,,,,,,,,,,,,,,,,,642.1674024000004,642.1830956000013,642.6669235999998,,,,,,,,,,,,,,642.7186571000002,,,,,,,,,,642.7157487000004,642.7186571000002,642.7186571000002,642.7186571000002,645.6835757000008,indoor,j,1.304156399999556,0.24035580000054324,645.6837414000001,645.6838033000004,None,,,,,,,,,,,,,,00069,001,2026-01-25_15h44.35.264,MST_task,2024.2.0,59.763182413380974,2026-01-25 15h44.41.088682 +0530,
,Objects\097a.jpg,152,0,153,,,,,,,j,1.2193625999989308,0.1919804999997723,None,,,,,,153,0,152,645.6998045,,,,,,,,,,,,,,,,,,,,,,,645.6840869000007,645.6998045,646.1834859999999,,,,,,,,,,,,,,646.2358332000003,,,,,,,,,,646.2326785000005,646.2358332000003,646.2358332000003,646.2358332000003,649.1999228000004,indoor,j,1.2193625999989308,0.1919804999997723,649.2000840000001,649.2001464000004,None,,,,,,,,,,,,,,00069,001,2026-01-25_15h44.35.264,MST_task,2024.2.0,59.763182413380974,2026-01-25 15h44.41.088682 +0530,
,Objects\115a.jpg,153,0,154,,,,,,,f,2.7055085000010877,None,None,,,,,,154,0,153,649.2164786000012,,,,,,,,,,,,,,,,,,,,,,,649.2004250999998,649.2164786000012,649.7002002000008,,,,,,,,,,,,,,649.7576851000013,,,,,,,,,,649.7544349,649.7576851000013,649.7576851000013,649.7576851000013,652.7169162999999,indoor,f,2.7055085000010877,None,652.7170783000001,652.7171389000014,None,,,,,,,,,,,,,,00069,001,2026-01-25_15h44.35.264,MST_task,2024.2.0,59.763182413380974,2026-01-25 15h44.41.088682 +0530,
,Objects\082a.jpg,154,0,155,,,,,,,j,2.1453636000005645,0.2563666000005469,None,,,,,,155,0,154,652.7330609,,,,,,,,,,,,,,,,,,,,,,,652.7174384999998,652.7330609,653.2169511000011,,,,,,,,,,,,,,653.2774760000011,,,,,,,,,,653.274838700001,653.2774760000011,653.2774760000011,653.2774760000011,656.2337540999997,shoe,j,2.1453636000005645,0.2563666000005469,656.2403117000013,656.2403599999998,None,,,,,,,,,,,,,,00069,001,2026-01-25_15h44.35.264,MST_task,2024.2.0,59.763182413380974,2026-01-25 15h44.41.088682 +0530,
,Objects\210a.jpg,155,0,156,,,,,,,None,,,f,0.4083604999996169,None,,,,156,0,155,656.2497687000014,,,,,,,,,,,,,,,,,,,,,,,656.2406172999999,656.2497687000014,656.7332705999997,,,,,,,,,,,,,,656.7761483000013,,,,,,,,,,656.7730109000004,656.7761483000013,656.7761483000013,656.7761483000013,659.7498547000014,shoe,None,,,659.7500164000012,660.1838568000003,f,659.7665496999998,659.7665496999998,0.4083604999996169,None,,,,,,,,,,00069,001,2026-01-25_15h44.35.264,MST_task,2024.2.0,59.763182413380974,2026-01-25 15h44.41.088682 +0530,
,Objects\081a.jpg,156,0,157,,,,,,,f,2.765388800000437,None,None,,,,,,157,0,156,660.1995973000012,,,,,,,,,,,,,,,,,,,,,,,660.1843453000001,660.1995973000012,660.6836252000012,,,,,,,,,,,,,,660.7376357000012,,,,,,,,,,660.7345657000005,660.7376357000012,660.7376357000012,660.7376357000012,663.7002615000001,shoe,f,2.765388800000437,None,663.7004225000001,663.7004859999997,None,,,,,,,,,,,,,,00069,001,2026-01-25_15h44.35.264,MST_task,2024.2.0,59.763182413380974,2026-01-25 15h44.41.088682 +0530,
,Objects\112a.jpg,157,0,158,,,,,,,j,2.5228322000002663,0.23261730000012903,None,,,,,,158,0,157,663.7182735000006,,,,,,,,,,,,,,,,,,,,,,,663.7007673999997,663.7182735000006,664.2165096999997,,,,,,,,,,,,,,,,,,,,,,,,664.2569289000003,664.2597516000005,664.2597516000005,664.2597516000005,667.2165873000013,shoe,j,2.5228322000002663,0.23261730000012903,667.2167526000012,667.2168092000011,None,,,,,,,,,,,,,,00069,001,2026-01-25_15h44.35.264,MST_task,2024.2.0,59.763182413380974,2026-01-25 15h44.41.088682 +0530,
,Objects\345a.jpg,158,0,159,,,,,,,f,2.0572807000007742,0.215327799998704,None,,,,,,159,0,158,667.2332612999999,,,,,,,,,,,,,,,,,,,,,,,667.2170963000008,667.2332612999999,667.7169273,,,,,,,,,,,,,,667.7579497000006,,,,,,,,,,667.7544119000013,667.7579497000006,667.7579497000006,667.7579497000006,670.7336203000013,shoe,f,2.0572807000007742,0.215327799998704,670.7337855000005,670.7338474999997,None,,,,,,,,,,,,,,00069,001,2026-01-25_15h44.35.264,MST_task,2024.2.0,59.763182413380974,2026-01-25 15h44.41.088682 +0530,
,Objects\211a.jpg,159,0,160,,,,,,,None,,,j,0.6681922999996459,None,,,,160,0,159,670.7495852000011,,,,,,,,,,,,,,,,,,,,,,,670.7341324000008,670.7495852000011,671.2336611999999,,,,,,,,,,,,,,671.2699470000007,,,,,,,,,,671.2669076000002,671.2699470000007,671.2699470000007,671.2699470000007,674.2502909000013,shoe,None,,,674.2504492000007,674.9504136000014,j,674.2666122999999,674.2666122999999,0.6681922999996459,None,,,,,,,,,,00069,001,2026-01-25_15h44.35.264,MST_task,2024.2.0,59.763182413380974,2026-01-25 15h44.41.088682 +0530,
,Objects\368a.jpg,160,0,161,,,,,,,f,1.617699000000357,0.21537929999976768,None,,,,,,161,0,160,674.9665031000004,,,,,,,,,,,,,,,,,,,,,,,674.9507625000006,674.9665031000004,675.4503008000011,,,,,,,,,,,,,,675.5415159000004,,,,,,,,,,675.5390949000011,675.5415159000004,675.5415159000004,675.5415159000004,678.4665134000006,shoe,f,1.617699000000357,0.21537929999976768,678.466679000001,678.4667430000009,None,,,,,,,,,,,,,,00069,001,2026-01-25_15h44.35.264,MST_task,2024.2.0,59.763182413380974,2026-01-25 15h44.41.088682 +0530,
,Objects\177a.jpg,161,0,162,,,,,,,j,1.6706967000009172,0.25596199999927194,None,,,,,,162,0,161,678.4828351000015,,,,,,,,,,,,,,,,,,,,,,,678.4670241000003,678.4828351000015,678.9673469999998,,,,,,,,,,,,,,,,,,,,,,,,679.0216347000005,679.0242092999997,679.0242092999997,679.0242092999997,681.9669742000005,indoor,j,1.6706967000009172,0.25596199999927194,681.9720754000009,681.9721301999998,None,,,,,,,,,,,,,,00069,001,2026-01-25_15h44.35.264,MST_task,2024.2.0,59.763182413380974,2026-01-25 15h44.41.088682 +0530,
,Objects\252a.jpg,162,0,163,,,,,,,None,,,f,0.08308520000173303,None,,,,163,0,162,681.9831903000013,,,,,,,,,,,,,,,,,,,,,,,681.9723752999998,681.9831903000013,682.4670100000003,,,,,,,,,,,,,,682.5169369000014,,,,,,,,,,682.5129463000012,682.5169369000014,682.5169369000014,682.5169369000014,685.4834108000014,indoor,None,,,685.4835540000004,685.5838483000007,f,685.4994697000002,685.4994697000002,0.08308520000173303,None,,,,,,,,,,00069,001,2026-01-25_15h44.35.264,MST_task,2024.2.0,59.763182413380974,2026-01-25 15h44.41.088682 +0530,
,Objects\375a.jpg,163,0,164,,,,,,,f,2.686447499998394,0.24059930000112217,None,,,,,,164,0,163,685.5998767000001,,,,,,,,,,,,,,,,,,,,,,,685.584179200001,685.5998767000001,686.0836341000013,,,,,,,,,,,,,,686.1121277000002,,,,,,,,,,686.108091600001,686.1121277000002,686.1121277000002,686.1121277000002,689.0999325000012,indoor,f,2.686447499998394,0.24059930000112217,689.100094200001,689.1001574000002,None,,,,,,,,,,,,,,00069,001,2026-01-25_15h44.35.264,MST_task,2024.2.0,59.763182413380974,2026-01-25 15h44.41.088682 +0530,
,Objects\109a.jpg,164,0,165,,,,,,,j,1.681441000000632,0.15940899999986868,None,,,,,,165,0,164,689.1165833000014,,,,,,,,,,,,,,,,,,,,,,,689.100437000001,689.1165833000014,689.6002516000008,,,,,,,,,,,,,,689.6457604000007,,,,,,,,,,689.6424419000014,689.6457604000007,689.6457604000007,689.6457604000007,692.6003108000004,indoor,j,1.681441000000632,0.15940899999986868,692.6005065000008,692.6005749000014,None,,,,,,,,,,,,,,00069,001,2026-01-25_15h44.35.264,MST_task,2024.2.0,59.763182413380974,2026-01-25 15h44.41.088682 +0530,
,Objects\016a.jpg,165,0,166,,,,,,,f,0.970357199999853,0.2160174000000552,None,,,,,,166,0,165,692.616311400001,,,,,,,,,,,,,,,,,,,,,,,692.6008766000014,692.616311400001,693.099943700001,,,,,,,,,,,,,,693.1641276000009,,,,,,,,,,693.1613487000013,693.1641276000009,693.1641276000009,693.1641276000009,696.1168714000014,indoor,f,0.970357199999853,0.2160174000000552,696.1170364000009,696.1170988000013,None,,,,,,,,,,,,,,00069,001,2026-01-25_15h44.35.264,MST_task,2024.2.0,59.763182413380974,2026-01-25 15h44.41.088682 +0530,
,Objects\373a.jpg,166,0,167,,,,,,,j,1.427837000001091,0.31204989999969257,None,,,,,,167,0,166,696.1332660999997,,,,,,,,,,,,,,,,,,,,,,,696.1173779000001,696.1332660999997,696.6169298000004,,,,,,,,,,,,,,696.6588578999999,,,,,,,,,,696.6556102000013,696.6588578999999,696.6588578999999,696.6588578999999,699.6336392000012,indoor,j,1.427837000001091,0.31204989999969257,699.6338130000004,699.6338747000009,None,,,,,,,,,,,,,,00069,001,2026-01-25_15h44.35.264,MST_task,2024.2.0,59.763182413380974,2026-01-25 15h44.41.088682 +0530,
,Objects\054a.jpg,167,0,168,,,,,,,j,1.3680863000008685,0.19234579999829293,None,,,,,,168,0,167,699.6497362000009,,,,,,,,,,,,,,,,,,,,,,,699.6341590000011,699.6497362000009,700.1333272000011,,,,,,,,,,,,,,700.1827766000006,,,,,,,,,,700.1800488999997,700.1827766000006,700.1827766000006,700.1827766000006,703.1504139999997,indoor,j,1.3680863000008685,0.19234579999829293,703.1505816000008,703.1506446000003,None,,,,,,,,,,,,,,00069,001,2026-01-25_15h44.35.264,MST_task,2024.2.0,59.763182413380974,2026-01-25 15h44.41.088682 +0530,
,Objects\116a.jpg,168,0,169,,,,,,,None,,,f,1.283377300000211,None,,,,169,0,168,703.1665520000006,,,,,,,,,,,,,,,,,,,,,,,703.1509318000008,703.1665520000006,703.6503417000004,,,,,,,,,,,,,,703.6953707000011,,,,,,,,,,703.6928869000003,703.6953707000011,703.6953707000011,703.6953707000011,706.6669321000008,shoe,None,,,706.6728787000011,707.9674093000012,f,706.6832086000013,706.6832086000013,1.283377300000211,None,,,,,,,,,,00069,001,2026-01-25_15h44.35.264,MST_task,2024.2.0,59.763182413380974,2026-01-25 15h44.41.088682 +0530,
,Objects\063a.jpg,169,0,170,,,,,,,f,2.320721699999922,0.2079764999998588,None,,,,,,170,0,169,707.9831567000001,,,,,,,,,,,,,,,,,,,,,,,707.9678801000009,707.9831567000001,708.4668259999999,,,,,,,,,,,,,,708.5265010000003,,,,,,,,,,708.5237219999999,708.5265010000003,708.5265010000003,708.5265010000003,711.4835007000001,shoe,f,2.320721699999922,0.2079764999998588,711.4836955999999,711.4837614999997,None,,,,,,,,,,,,,,00069,001,2026-01-25_15h44.35.264,MST_task,2024.2.0,59.763182413380974,2026-01-25 15h44.41.088682 +0530,
,Objects\050a.jpg,170,0,171,,,,,,,j,1.8963980999997148,0.24795970000013767,None,,,,,,171,0,170,711.4998511000013,,,,,,,,,,,,,,,,,,,,,,,711.4839962000005,711.4998511000013,711.9835104000013,,,,,,,,,,,,,,712.0381636000002,,,,,,,,,,712.0352026,712.0381636000002,712.0381636000002,712.0381636000002,715.0004509999999,shoe,j,1.8963980999997148,0.24795970000013767,715.0006111000002,715.0006751000001,None,,,,,,,,,,,,,,00069,001,2026-01-25_15h44.35.264,MST_task,2024.2.0,59.763182413380974,2026-01-25 15h44.41.088682 +0530,
,Objects\105a.jpg,171,0,172,,,,,,,f,1.138691000000108,0.17591469999933906,None,,,,,,172,0,171,715.0165288000007,,,,,,,,,,,,,,,,,,,,,,,715.0009730000002,715.0165288000007,715.5003393000006,,,,,,,,,,,,,,715.5559095999997,,,,,,,,,,715.5529566000005,715.5559095999997,715.5559095999997,715.5559095999997,718.5169836000005,shoe,f,1.138691000000108,0.17591469999933906,718.5171477000004,718.5172094000009,None,,,,,,,,,,,,,,00069,001,2026-01-25_15h44.35.264,MST_task,2024.2.0,59.763182413380974,2026-01-25 15h44.41.088682 +0530,
,Objects\239a.jpg,172,0,173,,,,,,,f,1.6603600999987975,0.21558270000059565,None,,,,,,173,0,172,718.5332108000002,,,,,,,,,,,,,,,,,,,,,,,718.5174915000007,718.5332108000002,719.0169173000013,,,,,,,,,,,,,,719.0668542000003,,,,,,,,,,719.0642628000005,719.0668542000003,719.0668542000003,719.0668542000003,722.0336790000001,shoe,f,1.6603600999987975,0.21558270000059565,722.0338565000002,722.0339206999997,None,,,,,,,,,,,,,,00069,001,2026-01-25_15h44.35.264,MST_task,2024.2.0,59.763182413380974,2026-01-25 15h44.41.088682 +0530,
,Objects\087a.jpg,173,0,174,,,,,,,j,1.5707516000002215,0.28730580000046757,None,,,,,,174,0,173,722.0498819000004,,,,,,,,,,,,,,,,,,,,,,,722.0342115000003,722.0498819000004,722.5335427999999,,,,,,,,,,,,,,722.6764725000012,,,,,,,,,,722.6735241000006,722.6764725000012,722.6764725000012,722.6764725000012,725.5512273000004,shoe,j,1.5707516000002215,0.28730580000046757,725.5514096000006,725.551475100001,None,,,,,,,,,,,,,,00069,001,2026-01-25_15h44.35.264,MST_task,2024.2.0,59.763182413380974,2026-01-25 15h44.41.088682 +0530,
,Objects\276a.jpg,174,0,175,,,,,,,f,2.875434599998698,None,None,,,,,,175,0,174,725.5666099999999,,,,,,,,,,,,,,,,,,,,,,,725.5518604999997,725.5666099999999,726.0494749000009,,,,,,,,,,,,,,726.0991505000002,,,,,,,,,,726.096376200001,726.0991505000002,726.0991505000002,726.0991505000002,729.0669765000002,shoe,f,2.875434599998698,None,729.0671362000012,729.0671985999998,None,,,,,,,,,,,,,,00069,001,2026-01-25_15h44.35.264,MST_task,2024.2.0,59.763182413380974,2026-01-25 15h44.41.088682 +0530,
