thisN,thisTrialN,thisRepN,key_resp_3.keys,key_resp_3.rt,key_resp_3.duration,trials.thisRepN,trials.thisTrialN,trials.thisN,thisRow.t,notes,intro_page.started,text.started,key_resp.started,intro_page.stopped,key_resp.keys,key_resp.rt,key_resp.duration,instructions.started,text_2.started,key_resp_2.started,instructions.stopped,key_resp_2.keys,key_resp_2.rt,key_resp_2.duration,demo1.started,image_1.started,image_2.started,text_7.started,key_resp_6.started,text_9.started,demo1.stopped,key_resp_6.keys,key_resp_6.rt,key_resp_6.duration,demo3.started,image_5.started,image_6.started,text_11.started,text_12.started,key_resp_8.started,demo3.stopped,key_resp_8.keys,key_resp_8.rt,key_resp_8.duration,demo_conclusion.started,text_13.started,key_resp_9.started,demo_conclusion.stopped,key_resp_9.keys,key_resp_9.rt,key_resp_9.duration,start_test.started,text_6.started,key_resp_5.started,start_test.stopped,key_resp_5.keys,key_resp_5.rt,key_resp_5.duration,ISI.started,text_4.started,ISI.stopped,routine_1.started,image.started,text_3.started,key_resp_3.started,routine_1.stopped,image_path,position_of_stimuli,trials.key_resp_3.keys,trials.key_resp_3.rt,trials.key_resp_3.duration,End_page.started,text_5.started,key_resp_4.started,participant,session,date,expName,psychopyVersion,frameRate,expStart,
,,,,,,,,,,,0.0032054000184871256,0.019555100006982684,0.019555100006982684,6.647349600010784,space,6.619999999995343,None,,,,,,,,,,,,,,,,,,,,,,,,,,,,,,,,,,,,,,,,,,,,,,,,,,,,,,,,,,00035,001,2026-01-16_13h00.56.755,MST_test,2024.2.0,59.633350304444136,2026-01-16 13h01.10.936177 +0530,
,,,,,,,,,,,,,,,,,,6.647388100012904,6.678124600002775,6.678124600002775,18.637149000016507,space,11.945666800020263,None,,,,,,,,,,,,,,,,,,,,,,,,,,,,,,,,,,,,,,,,,,,,,,,,,,,00035,001,2026-01-16_13h00.56.755,MST_test,2024.2.0,59.633350304444136,2026-01-16 13h01.10.936177 +0530,
,,,,,,,,,,,,,,,,,,,,,,,,,18.637180100020487,18.653388500009896,18.653388500009896,18.653388500009896,18.653388500009896,18.653388500009896,22.75176900002407,space,4.0904057000007015,None,,,,,,,,,,,,,,,,,,,,,,,,,,,,,,,,,,,,,,,,,00035,001,2026-01-16_13h00.56.755,MST_test,2024.2.0,59.633350304444136,2026-01-16 13h01.10.936177 +0530,
,,,,,,,,,,,,,,,,,,,,,,,,,,,,,,,,,,,22.751800600002753,22.76766189999762,22.76766189999762,22.76766189999762,22.76766189999762,22.76766189999762,25.91299120002077,space,3.1360843000002205,None,,,,,,,,,,,,,,,,,,,,,,,,,,,,,,,00035,001,2026-01-16_13h00.56.755,MST_test,2024.2.0,59.633350304444136,2026-01-16 13h01.10.936177 +0530,
,,,,,,,,,,,,,,,,,,,,,,,,,,,,,,,,,,,,,,,,,,,,,25.91302840001299,25.92893500000355,25.92893500000355,42.470736600022065,space,16.52654310001526,None,,,,,,,,,,,,,,,,,,,,,,,,00035,001,2026-01-16_13h00.56.755,MST_test,2024.2.0,59.633350304444136,2026-01-16 13h01.10.936177 +0530,
,,,,,,,,,,,,,,,,,,,,,,,,,,,,,,,,,,,,,,,,,,,,,,,,,,,,42.47077159999753,42.50351080001565,42.50351080001565,100.85851950000506,space,58.35220759999356,None,,,,,,,,,,,,,,,,,00035,001,2026-01-16_13h00.56.755,MST_test,2024.2.0,59.633350304444136,2026-01-16 13h01.10.936177 +0530,
0,0,1,s,2.2055366999993566,None,1,0,0,100.87457720001112,,,,,,,,,,,,,,,,,,,,,,,,,,,,,,,,,,,,,,,,,,,,,,,,,,100.8614381000225,100.87457720001112,101.3595530000166,101.38198780000675,101.39395980001427,101.39395980001427,101.39395980001427,103.60142750001978,Objects\025b.jpg,post,s,2.2055366999993566,None,,,,00035,001,2026-01-16_13h00.56.755,MST_test,2024.2.0,59.633350304444136,2026-01-16 13h01.10.936177 +0530,
1,0,2,o,4.519659500016132,None,2,0,1,103.61753590000444,,,,,,,,,,,,,,,,,,,,,,,,,,,,,,,,,,,,,,,,,,,,,,,,,,103.60152769999695,103.61753590000444,104.10256210001535,104.11372980001033,104.13588200000231,104.13588200000231,104.13588200000231,108.668865500018,Objects\159b.jpg,mid,o,4.519659500016132,None,,,,00035,001,2026-01-16_13h00.56.755,MST_test,2024.2.0,59.633350304444136,2026-01-16 13h01.10.936177 +0530,
2,0,3,o,1.733098799973959,None,3,0,2,108.68534350002301,,,,,,,,,,,,,,,,,,,,,,,,,,,,,,,,,,,,,,,,,,,,,,,,,,108.66896050001378,108.68534350002301,109.17007540000486,109.17752680002013,109.1872043000185,109.1872043000185,109.1872043000185,110.926594700024,Objects\207b.jpg,pre,o,1.733098799973959,None,,,,00035,001,2026-01-16_13h00.56.755,MST_test,2024.2.0,59.633350304444136,2026-01-16 13h01.10.936177 +0530,
3,0,4,o,1.4988855999836233,None,4,0,3,110.94287800000166,,,,,,,,,,,,,,,,,,,,,,,,,,,,,,,,,,,,,,,,,,,,,,,,,,110.92670010001166,110.94287800000166,111.42805380001664,111.4448473000084,111.46132990001934,111.46132990001934,111.46132990001934,112.96719799999846,Objects\044b.jpg,post,o,1.4988855999836233,None,,,,00035,001,2026-01-16_13h00.56.755,MST_test,2024.2.0,59.633350304444136,2026-01-16 13h01.10.936177 +0530,
4,0,5,s,2.273950100003276,None,5,0,4,112.98323320000782,,,,,,,,,,,,,,,,,,,,,,,,,,,,,,,,,,,,,,,,,,,,,,,,,,112.9672944000049,112.98323320000782,113.46848199999658,113.48206570002367,113.5016736999969,113.5016736999969,113.5016736999969,115.7769334000186,Foils\009a.jpg,none,s,2.273950100003276,None,,,,00035,001,2026-01-16_13h00.56.755,MST_test,2024.2.0,59.633350304444136,2026-01-16 13h01.10.936177 +0530,
5,0,6,o,1.5364782999968156,None,6,0,5,115.79320360001293,,,,,,,,,,,,,,,,,,,,,,,,,,,,,,,,,,,,,,,,,,,,,,,,,,115.7770245000138,115.79320360001293,116.27826210000785,116.29053759999806,116.31163530002232,116.31163530002232,116.31163530002232,117.85093630000483,Objects\279b.jpg,mid,o,1.5364782999968156,None,,,,00035,001,2026-01-16_13h00.56.755,MST_test,2024.2.0,59.633350304444136,2026-01-16 13h01.10.936177 +0530,
6,0,7,o,3.8220696999924257,None,7,0,6,117.86699280000175,,,,,,,,,,,,,,,,,,,,,,,,,,,,,,,,,,,,,,,,,,,,,,,,,,117.85102660002303,117.86699280000175,118.35220960000879,118.36902179999743,118.3854352000053,118.3854352000053,118.3854352000053,122.21651250001742,Objects\236b.jpg,pre,o,3.8220696999924257,None,,,,00035,001,2026-01-16_13h00.56.755,MST_test,2024.2.0,59.633350304444136,2026-01-16 13h01.10.936177 +0530,
7,0,8,s,3.1624871999956667,None,8,0,7,122.23259090000647,,,,,,,,,,,,,,,,,,,,,,,,,,,,,,,,,,,,,,,,,,,,,,,,,,122.21662020002259,122.23259090000647,122.71748570000636,122.72542480000993,122.7336097000225,122.7336097000225,122.7336097000225,125.91258080000989,Objects\060a.jpg,post,s,3.1624871999956667,None,,,,00035,001,2026-01-16_13h00.56.755,MST_test,2024.2.0,59.633350304444136,2026-01-16 13h01.10.936177 +0530,
8,0,9,n,3.7295094000000972,None,9,0,8,125.92857170000207,,,,,,,,,,,,,,,,,,,,,,,,,,,,,,,,,,,,,,,,,,,,,,,,,,125.91267320001498,125.92857170000207,126.413895900012,126.42164360001334,126.42999640002381,126.42999640002381,126.42999640002381,130.1606564000249,Objects\269a.jpg,mid,n,3.7295094000000972,None,,,,00035,001,2026-01-16_13h00.56.755,MST_test,2024.2.0,59.633350304444136,2026-01-16 13h01.10.936177 +0530,
9,0,10,o,2.4726240999880247,None,10,0,9,130.17678730000625,,,,,,,,,,,,,,,,,,,,,,,,,,,,,,,,,,,,,,,,,,,,,,,,,,130.16075190002448,130.17678730000625,130.66199540000525,130.67132819999824,130.69532690002234,130.69532690002234,130.69532690002234,133.17138480002177,Objects\248a.jpg,mid,o,2.4726240999880247,None,,,,00035,001,2026-01-16_13h00.56.755,MST_test,2024.2.0,59.633350304444136,2026-01-16 13h01.10.936177 +0530,
10,0,11,o,2.214842499990482,None,11,0,10,133.18758180001169,,,,,,,,,,,,,,,,,,,,,,,,,,,,,,,,,,,,,,,,,,,,,,,,,,133.1714859000058,133.18758180001169,133.67261530001997,133.68111299999873,133.68866559999879,133.68866559999879,133.68866559999879,135.91433920001145,Objects\171a.jpg,pre,o,2.214842499990482,None,,,,00035,001,2026-01-16_13h00.56.755,MST_test,2024.2.0,59.633350304444136,2026-01-16 13h01.10.936177 +0530,
11,0,12,o,1.5757277999946382,None,12,0,11,135.9303792999999,,,,,,,,,,,,,,,,,,,,,,,,,,,,,,,,,,,,,,,,,,,,,,,,,,135.91443100001197,135.9303792999999,136.41537540001445,136.4235600999964,136.4316378000076,136.4316378000076,136.4316378000076,138.02156920000562,Objects\336a.jpg,post,o,1.5757277999946382,None,,,,00035,001,2026-01-16_13h00.56.755,MST_test,2024.2.0,59.633350304444136,2026-01-16 13h01.10.936177 +0530,
12,0,13,o,1.1090855000074953,None,13,0,12,138.037748200004,,,,,,,,,,,,,,,,,,,,,,,,,,,,,,,,,,,,,,,,,,,,,,,,,,138.02166720002424,138.037748200004,138.52285160002066,138.53074200000265,138.53889039999922,138.53889039999922,138.53889039999922,139.66078170001856,Objects\165a.jpg,mid,o,1.1090855000074953,None,,,,00035,001,2026-01-16_13h00.56.755,MST_test,2024.2.0,59.633350304444136,2026-01-16 13h01.10.936177 +0530,
13,0,14,o,3.933226900000591,None,14,0,13,139.67684520001058,,,,,,,,,,,,,,,,,,,,,,,,,,,,,,,,,,,,,,,,,,,,,,,,,,139.66087970000808,139.67684520001058,140.16193790000398,140.16509370002314,140.17842560002464,140.17842560002464,140.17842560002464,144.12628470000345,Objects\357a.jpg,post,o,3.933226900000591,None,,,,00035,001,2026-01-16_13h00.56.755,MST_test,2024.2.0,59.633350304444136,2026-01-16 13h01.10.936177 +0530,
14,0,15,s,2.4585173000232317,None,15,0,14,144.14246460000868,,,,,,,,,,,,,,,,,,,,,,,,,,,,,,,,,,,,,,,,,,,,,,,,,,144.12637830001768,144.14246460000868,144.6276291999966,144.64373989999876,144.66101999999955,144.66101999999955,144.66101999999955,147.12085220002336,Objects\329b.jpg,mid,s,2.4585173000232317,None,,,,00035,001,2026-01-16_13h00.56.755,MST_test,2024.2.0,59.633350304444136,2026-01-16 13h01.10.936177 +0530,
15,0,16,s,2.3780841999978293,None,16,0,15,147.1362818000198,,,,,,,,,,,,,,,,,,,,,,,,,,,,,,,,,,,,,,,,,,,,,,,,,,147.12094640001305,147.1362818000198,147.62127480001072,147.62984500001767,147.65471660002368,147.65471660002368,147.65471660002368,150.04704689999926,Objects\149a.jpg,pre,s,2.3780841999978293,None,,,,00035,001,2026-01-16_13h00.56.755,MST_test,2024.2.0,59.633350304444136,2026-01-16 13h01.10.936177 +0530,
16,0,17,s,2.8334610000019893,None,17,0,16,150.06318960001227,,,,,,,,,,,,,,,,,,,,,,,,,,,,,,,,,,,,,,,,,,,,,,,,,,150.04713800002355,150.06318960001227,150.54861399999936,150.5597878000117,150.58163990001776,150.58163990001776,150.58163990001776,153.42540340000414,Objects\076b.jpg,pre,s,2.8334610000019893,None,,,,00035,001,2026-01-16_13h00.56.755,MST_test,2024.2.0,59.633350304444136,2026-01-16 13h01.10.936177 +0530,
17,0,18,n,4.56023569998797,None,18,0,17,153.4415743999998,,,,,,,,,,,,,,,,,,,,,,,,,,,,,,,,,,,,,,,,,,,,,,,,,,153.42550500002108,153.4415743999998,153.92678609999712,153.92933370001265,153.9434123999963,153.9434123999963,153.9434123999963,158.50986410002224,Foils\082a.jpg,none,n,4.56023569998797,None,,,,00035,001,2026-01-16_13h00.56.755,MST_test,2024.2.0,59.633350304444136,2026-01-16 13h01.10.936177 +0530,
18,0,19,o,6.364162899990333,None,19,0,18,158.52605539999786,,,,,,,,,,,,,,,,,,,,,,,,,,,,,,,,,,,,,,,,,,,,,,,,,,158.50997840001946,158.52605539999786,159.01157709999825,159.01564990001498,159.0284868000017,159.0284868000017,159.0284868000017,165.40072600002168,Objects\282a.jpg,pre,o,6.364162899990333,None,,,,00035,001,2026-01-16_13h00.56.755,MST_test,2024.2.0,59.633350304444136,2026-01-16 13h01.10.936177 +0530,
19,0,20,o,4.064629400003469,None,20,0,19,165.4169512000226,,,,,,,,,,,,,,,,,,,,,,,,,,,,,,,,,,,,,,,,,,,,,,,,,,165.40082050001365,165.4169512000226,165.90193690001615,165.90489689999959,165.91866039999877,165.91866039999877,165.91866039999877,170.0001193000062,Objects\280a.jpg,post,o,4.064629400003469,None,,,,00035,001,2026-01-16_13h00.56.755,MST_test,2024.2.0,59.633350304444136,2026-01-16 13h01.10.936177 +0530,
20,0,21,n,7.753016300004674,None,21,0,20,170.01629110000795,,,,,,,,,,,,,,,,,,,,,,,,,,,,,,,,,,,,,,,,,,,,,,,,,,170.0002111000067,170.01629110000795,170.50149409999722,170.51276230000076,170.53471810001065,170.53471810001065,170.53471810001065,178.29594350000843,Objects\185b.jpg,post,n,7.753016300004674,None,,,,00035,001,2026-01-16_13h00.56.755,MST_test,2024.2.0,59.633350304444136,2026-01-16 13h01.10.936177 +0530,
21,0,22,o,1.8815193000191357,None,22,0,21,178.31199800001923,,,,,,,,,,,,,,,,,,,,,,,,,,,,,,,,,,,,,,,,,,,,,,,,,,178.29603860000498,178.31199800001923,178.7973678999988,178.80024780001258,178.8137010000064,178.8137010000064,178.8137010000064,180.70472570002312,Objects\033a.jpg,post,o,1.8815193000191357,None,,,,00035,001,2026-01-16_13h00.56.755,MST_test,2024.2.0,59.633350304444136,2026-01-16 13h01.10.936177 +0530,
22,0,23,o,2.081360699987272,None,23,0,22,180.72051810001722,,,,,,,,,,,,,,,,,,,,,,,,,,,,,,,,,,,,,,,,,,,,,,,,,,180.7048233000096,180.72051810001722,181.20592670000042,181.21821970000747,181.23899280000478,181.23899280000478,181.23899280000478,183.3302815000061,Objects\151b.jpg,pre,o,2.081360699987272,None,,,,00035,001,2026-01-16_13h00.56.755,MST_test,2024.2.0,59.633350304444136,2026-01-16 13h01.10.936177 +0530,
23,0,24,o,1.0477198000007775,None,24,0,23,183.34640750000835,,,,,,,,,,,,,,,,,,,,,,,,,,,,,,,,,,,,,,,,,,,,,,,,,,183.3303852000099,183.34640750000835,183.83141350001097,183.8345321000088,183.84832150000148,183.84832150000148,183.84832150000148,184.90225620000274,Objects\190a.jpg,post,o,1.0477198000007775,None,,,,00035,001,2026-01-16_13h00.56.755,MST_test,2024.2.0,59.633350304444136,2026-01-16 13h01.10.936177 +0530,
24,0,25,s,2.234679299988784,None,25,0,24,184.91857609999715,,,,,,,,,,,,,,,,,,,,,,,,,,,,,,,,,,,,,,,,,,,,,,,,,,184.90235690001282,184.91857609999715,185.4035586999962,185.42288900000858,185.43702530002338,185.43702530002338,185.43702530002338,187.67882840000675,Objects\203b.jpg,post,s,2.234679299988784,None,,,,00035,001,2026-01-16_13h00.56.755,MST_test,2024.2.0,59.633350304444136,2026-01-16 13h01.10.936177 +0530,
25,0,26,s,1.195149200008018,None,26,0,25,187.69497110001976,,,,,,,,,,,,,,,,,,,,,,,,,,,,,,,,,,,,,,,,,,,,,,,,,,187.67892310000025,187.69497110001976,188.18012150001596,188.1869730000035,188.1967347000027,188.1967347000027,188.1967347000027,189.4014928000106,Foils\074a.jpg,none,s,1.195149200008018,None,,,,00035,001,2026-01-16_13h00.56.755,MST_test,2024.2.0,59.633350304444136,2026-01-16 13h01.10.936177 +0530,
26,0,27,s,0.8715963000140619,None,27,0,26,189.4176662999962,,,,,,,,,,,,,,,,,,,,,,,,,,,,,,,,,,,,,,,,,,,,,,,,,,189.4015911000024,189.4176662999962,189.90262790000997,189.9214556000079,189.93623049999587,189.93623049999587,189.93623049999587,190.82295520001207,Objects\324b.jpg,pre,s,0.8715963000140619,None,,,,00035,001,2026-01-16_13h00.56.755,MST_test,2024.2.0,59.633350304444136,2026-01-16 13h01.10.936177 +0530,
27,0,28,n,3.3142828999843914,None,28,0,27,190.83919690002222,,,,,,,,,,,,,,,,,,,,,,,,,,,,,,,,,,,,,,,,,,,,,,,,,,190.82304600000498,190.83919690002222,191.32444789999863,191.33136550002382,191.3411058000056,191.3411058000056,191.3411058000056,194.67003639999893,Foils\090a.jpg,none,n,3.3142828999843914,None,,,,00035,001,2026-01-16_13h00.56.755,MST_test,2024.2.0,59.633350304444136,2026-01-16 13h01.10.936177 +0530,
28,0,29,s,5.916264000028605,None,29,0,28,194.68600090002292,,,,,,,,,,,,,,,,,,,,,,,,,,,,,,,,,,,,,,,,,,,,,,,,,,194.67012930000783,194.68600090002292,195.17121150001185,195.17369240001426,195.18770770000992,195.18770770000992,195.18770770000992,201.1090405000141,Foils\050a.jpg,none,s,5.916264000028605,None,,,,00035,001,2026-01-16_13h00.56.755,MST_test,2024.2.0,59.633350304444136,2026-01-16 13h01.10.936177 +0530,
29,0,30,s,0.9638498999993317,None,30,0,29,201.12533589999657,,,,,,,,,,,,,,,,,,,,,,,,,,,,,,,,,,,,,,,,,,,,,,,,,,201.10913680001977,201.12533589999657,201.61034740001196,201.62075530001312,201.64378730001044,201.64378730001044,201.64378730001044,202.61449970002286,Foils\018a.jpg,none,s,0.9638498999993317,None,,,,00035,001,2026-01-16_13h00.56.755,MST_test,2024.2.0,59.633350304444136,2026-01-16 13h01.10.936177 +0530,
30,0,31,o,1.0919161000056192,None,31,0,30,202.6304765000241,,,,,,,,,,,,,,,,,,,,,,,,,,,,,,,,,,,,,,,,,,,,,,,,,,202.61459860001924,202.6304765000241,203.11569760000566,203.1191691000131,203.13218670000788,203.13218670000788,203.13218670000788,204.23707020000438,Objects\384a.jpg,pre,o,1.0919161000056192,None,,,,00035,001,2026-01-16_13h00.56.755,MST_test,2024.2.0,59.633350304444136,2026-01-16 13h01.10.936177 +0530,
31,0,32,s,9.764835600013612,None,32,0,31,204.25308860000223,,,,,,,,,,,,,,,,,,,,,,,,,,,,,,,,,,,,,,,,,,,,,,,,,,204.2371684999962,204.25308860000223,204.7379299000022,204.74146869999822,204.7546599000052,204.7546599000052,204.7546599000052,214.52308840001933,Objects\133a.jpg,pre,s,9.764835600013612,None,,,,00035,001,2026-01-16_13h00.56.755,MST_test,2024.2.0,59.633350304444136,2026-01-16 13h01.10.936177 +0530,
32,0,33,s,4.182348600006662,None,33,0,32,214.5388617000135,,,,,,,,,,,,,,,,,,,,,,,,,,,,,,,,,,,,,,,,,,,,,,,,,,214.5231868000119,214.5388617000135,215.0242152000137,215.0309235000168,215.04061140000704,215.04061140000704,215.04061140000704,219.23930410001776,Objects\254b.jpg,pre,s,4.182348600006662,None,,,,00035,001,2026-01-16_13h00.56.755,MST_test,2024.2.0,59.633350304444136,2026-01-16 13h01.10.936177 +0530,
33,0,34,o,0.9705990000220481,None,34,0,33,219.25580569999875,,,,,,,,,,,,,,,,,,,,,,,,,,,,,,,,,,,,,,,,,,,,,,,,,,219.2394041000225,219.25580569999875,219.74085140001262,219.74730519999866,219.75662400000147,219.75662400000147,219.75662400000147,220.72879360002116,Objects\314a.jpg,pre,o,0.9705990000220481,None,,,,00035,001,2026-01-16_13h00.56.755,MST_test,2024.2.0,59.633350304444136,2026-01-16 13h01.10.936177 +0530,
34,0,35,n,4.529062099987641,None,35,0,34,220.74403309999616,,,,,,,,,,,,,,,,,,,,,,,,,,,,,,,,,,,,,,,,,,,,,,,,,,220.7288899999985,220.74403309999616,221.22907709999708,221.2482394000108,221.26246110000648,221.26246110000648,221.26246110000648,225.79564960001153,Objects\327b.jpg,pre,n,4.529062099987641,None,,,,00035,001,2026-01-16_13h00.56.755,MST_test,2024.2.0,59.633350304444136,2026-01-16 13h01.10.936177 +0530,
35,0,36,n,2.118961700005457,None,36,0,35,225.81166850001318,,,,,,,,,,,,,,,,,,,,,,,,,,,,,,,,,,,,,,,,,,,,,,,,,,225.79574290002347,225.81166850001318,226.29687000002014,226.30519610000192,226.3133962000138,226.3133962000138,226.3133962000138,228.43809710000642,Foils\098a.jpg,none,n,2.118961700005457,None,,,,00035,001,2026-01-16_13h00.56.755,MST_test,2024.2.0,59.633350304444136,2026-01-16 13h01.10.936177 +0530,
36,0,37,s,3.562938400020357,None,37,0,36,228.45423490001122,,,,,,,,,,,,,,,,,,,,,,,,,,,,,,,,,,,,,,,,,,,,,,,,,,228.4381960000028,228.45423490001122,228.93978030001745,228.94346760000917,228.95606430000043,228.95606430000043,228.95606430000043,232.51990090002073,Objects\285a.jpg,post,s,3.562938400020357,None,,,,00035,001,2026-01-16_13h00.56.755,MST_test,2024.2.0,59.633350304444136,2026-01-16 13h01.10.936177 +0530,
37,0,38,s,1.4280398999981117,None,38,0,37,232.53532039999845,,,,,,,,,,,,,,,,,,,,,,,,,,,,,,,,,,,,,,,,,,,,,,,,,,232.5199941000028,232.53532039999845,233.02032540002256,233.02328490000218,233.03703960002167,233.03703960002167,233.03703960002167,234.47586410000804,Foils\026a.jpg,none,s,1.4280398999981117,None,,,,00035,001,2026-01-16_13h00.56.755,MST_test,2024.2.0,59.633350304444136,2026-01-16 13h01.10.936177 +0530,
38,0,39,s,1.134471500001382,None,39,0,38,234.4920462000009,,,,,,,,,,,,,,,,,,,,,,,,,,,,,,,,,,,,,,,,,,,,,,,,,,234.47596290000365,234.4920462000009,234.97726230000262,234.98071800000616,234.9937593000068,234.9937593000068,234.9937593000068,236.13180070000817,Objects\370a.jpg,pre,s,1.134471500001382,None,,,,00035,001,2026-01-16_13h00.56.755,MST_test,2024.2.0,59.633350304444136,2026-01-16 13h01.10.936177 +0530,
39,0,40,n,1.9103065999806859,None,40,0,39,236.14797240000917,,,,,,,,,,,,,,,,,,,,,,,,,,,,,,,,,,,,,,,,,,,,,,,,,,236.1318927000102,236.14797240000917,236.6336893000116,236.6405549000192,236.64907510002377,236.64907510002377,236.64907510002377,238.57370280000032,Foils\f5.jpg,none,n,1.9103065999806859,None,,,,00035,001,2026-01-16_13h00.56.755,MST_test,2024.2.0,59.633350304444136,2026-01-16 13h01.10.936177 +0530,
40,0,41,s,1.2356584999943152,None,41,0,40,238.58985129999928,,,,,,,,,,,,,,,,,,,,,,,,,,,,,,,,,,,,,,,,,,,,,,,,,,238.57380030001514,238.58985129999928,239.07483230001526,239.09289270002046,239.10829100001138,239.10829100001138,239.10829100001138,240.34671380001237,Objects\230b.jpg,pre,s,1.2356584999943152,None,,,,00035,001,2026-01-16_13h00.56.755,MST_test,2024.2.0,59.633350304444136,2026-01-16 13h01.10.936177 +0530,
41,0,42,n,3.7113989000208676,None,42,0,41,240.36260560000665,,,,,,,,,,,,,,,,,,,,,,,,,,,,,,,,,,,,,,,,,,,,,,,,,,240.34680670002126,240.36260560000665,240.84783070001868,240.85579930001404,240.8639379000233,240.8639379000233,240.8639379000233,244.5780091000197,Foils\010a.jpg,none,n,3.7113989000208676,None,,,,00035,001,2026-01-16_13h00.56.755,MST_test,2024.2.0,59.633350304444136,2026-01-16 13h01.10.936177 +0530,
42,0,43,s,4.0644869999960065,None,43,0,42,244.59429200002342,,,,,,,,,,,,,,,,,,,,,,,,,,,,,,,,,,,,,,,,,,,,,,,,,,244.57810230000177,244.59429200002342,245.0792052000179,245.08355430001393,245.09603620000416,245.09603620000416,245.09603620000416,249.17747940000845,Foils\f7.jpg,none,s,4.0644869999960065,None,,,,00035,001,2026-01-16_13h00.56.755,MST_test,2024.2.0,59.633350304444136,2026-01-16 13h01.10.936177 +0530,
43,0,44,s,2.249068500008434,None,44,0,43,249.1936859000125,,,,,,,,,,,,,,,,,,,,,,,,,,,,,,,,,,,,,,,,,,,,,,,,,,249.17758129999856,249.1936859000125,249.67897090001497,249.6864607000025,249.69471930002328,249.69471930002328,249.69471930002328,251.95401519999723,Objects\182a.jpg,mid,s,2.249068500008434,None,,,,00035,001,2026-01-16_13h00.56.755,MST_test,2024.2.0,59.633350304444136,2026-01-16 13h01.10.936177 +0530,
44,0,45,o,1.632050899992464,None,45,0,44,251.97000800000387,,,,,,,,,,,,,,,,,,,,,,,,,,,,,,,,,,,,,,,,,,,,,,,,,,251.95411140000215,251.97000800000387,252.45513770001708,252.45795810001437,252.47163360001286,252.47163360001286,252.47163360001286,254.11136300000362,Objects\313a.jpg,pre,o,1.632050899992464,None,,,,00035,001,2026-01-16_13h00.56.755,MST_test,2024.2.0,59.633350304444136,2026-01-16 13h01.10.936177 +0530,
45,0,46,s,1.0980325999844354,None,46,0,45,254.1275932000135,,,,,,,,,,,,,,,,,,,,,,,,,,,,,,,,,,,,,,,,,,,,,,,,,,254.11145900000702,254.1275932000135,254.6125426000217,254.62363070002175,254.646155000024,254.646155000024,254.646155000024,255.75046239999938,Objects\145b.jpg,post,s,1.0980325999844354,None,,,,00035,001,2026-01-16_13h00.56.755,MST_test,2024.2.0,59.633350304444136,2026-01-16 13h01.10.936177 +0530,
46,0,47,s,1.466873899975326,None,47,0,46,255.76654910002253,,,,,,,,,,,,,,,,,,,,,,,,,,,,,,,,,,,,,,,,,,,,,,,,,,255.75055740002426,255.76654910002253,256.2517524000141,256.2620429000235,256.2851157000114,256.2851157000114,256.2851157000114,257.75770600000396,Objects\273b.jpg,pre,s,1.466873899975326,None,,,,00035,001,2026-01-16_13h00.56.755,MST_test,2024.2.0,59.633350304444136,2026-01-16 13h01.10.936177 +0530,
47,0,48,s,1.9487314999860246,None,48,0,47,257.7737277999986,,,,,,,,,,,,,,,,,,,,,,,,,,,,,,,,,,,,,,,,,,,,,,,,,,257.7578039000218,257.7737277999986,258.25867680000374,258.2619764000119,258.27539570000954,258.27539570000954,258.27539570000954,260.2328242000076,Foils\066a.jpg,none,s,1.9487314999860246,None,,,,00035,001,2026-01-16_13h00.56.755,MST_test,2024.2.0,59.633350304444136,2026-01-16 13h01.10.936177 +0530,
48,0,49,s,0.9131842999777291,None,49,0,48,260.2490316000185,,,,,,,,,,,,,,,,,,,,,,,,,,,,,,,,,,,,,,,,,,,,,,,,,,260.2329183999973,260.2490316000185,260.73404730000766,260.73702090000734,260.75073749999865,260.75073749999865,260.75073749999865,261.671585300006,Foils\106a.jpg,none,s,0.9131842999777291,None,,,,00035,001,2026-01-16_13h00.56.755,MST_test,2024.2.0,59.633350304444136,2026-01-16 13h01.10.936177 +0530,
49,0,50,s,0.6588842999772169,None,50,0,49,261.687408400001,,,,,,,,,,,,,,,,,,,,,,,,,,,,,,,,,,,,,,,,,,,,,,,,,,261.6716866000206,261.687408400001,262.172432100022,262.17878440002096,262.1893372000195,262.1893372000195,262.1893372000195,262.8587329000002,Objects\226a.jpg,mid,s,0.6588842999772169,None,,,,00035,001,2026-01-16_13h00.56.755,MST_test,2024.2.0,59.633350304444136,2026-01-16 13h01.10.936177 +0530,
50,0,51,o,1.3030718000081833,None,51,0,50,262.87491290000617,,,,,,,,,,,,,,,,,,,,,,,,,,,,,,,,,,,,,,,,,,,,,,,,,,262.8588288000028,262.87491290000617,263.3600029000081,263.3669976000092,263.37638300002436,263.37638300002436,263.37638300002436,264.6818923999963,Objects\213a.jpg,post,o,1.3030718000081833,None,,,,00035,001,2026-01-16_13h00.56.755,MST_test,2024.2.0,59.633350304444136,2026-01-16 13h01.10.936177 +0530,
51,0,52,s,1.0402356999984477,None,52,0,51,264.6979409000196,,,,,,,,,,,,,,,,,,,,,,,,,,,,,,,,,,,,,,,,,,,,,,,,,,264.68215980002424,264.6979409000196,265.18291730000055,265.1894143000245,265.19965300001786,265.19965300001786,265.19965300001786,266.25397780002095,Objects\251a.jpg,pre,s,1.0402356999984477,None,,,,00035,001,2026-01-16_13h00.56.755,MST_test,2024.2.0,59.633350304444136,2026-01-16 13h01.10.936177 +0530,
52,0,53,s,2.124106799979927,None,53,0,52,266.2702327000152,,,,,,,,,,,,,,,,,,,,,,,,,,,,,,,,,,,,,,,,,,,,,,,,,,266.2540693000192,266.2702327000152,266.7552369000041,266.7631193000125,266.7713894000044,266.7713894000044,266.7713894000044,268.8965918000031,Foils\042a.jpg,none,s,2.124106799979927,None,,,,00035,001,2026-01-16_13h00.56.755,MST_test,2024.2.0,59.633350304444136,2026-01-16 13h01.10.936177 +0530,
53,0,54,n,1.2412484999804292,None,54,0,53,268.9126907000027,,,,,,,,,,,,,,,,,,,,,,,,,,,,,,,,,,,,,,,,,,,,,,,,,,268.8966846000112,268.9126907000027,269.3978152000054,269.40137940002023,269.41441240001586,269.41441240001586,269.41441240001586,270.6694603000069,Foils\105a.jpg,none,n,1.2412484999804292,None,,,,00035,001,2026-01-16_13h00.56.755,MST_test,2024.2.0,59.633350304444136,2026-01-16 13h01.10.936177 +0530,
54,0,55,s,1.402898100001039,None,55,0,54,270.68586340002366,,,,,,,,,,,,,,,,,,,,,,,,,,,,,,,,,,,,,,,,,,,,,,,,,,270.669575900014,270.68586340002366,271.17112149999593,271.17517670002417,271.1884132999985,271.1884132999985,271.1884132999985,272.5933327000239,Foils\057a.jpg,none,s,1.402898100001039,None,,,,00035,001,2026-01-16_13h00.56.755,MST_test,2024.2.0,59.633350304444136,2026-01-16 13h01.10.936177 +0530,
55,0,56,n,1.512010200007353,None,56,0,55,272.6091440000164,,,,,,,,,,,,,,,,,,,,,,,,,,,,,,,,,,,,,,,,,,,,,,,,,,272.59343710000394,272.6091440000164,273.0940843000135,273.1093225000077,273.12729970001965,273.12729970001965,273.12729970001965,274.64984870000626,Objects\321b.jpg,mid,n,1.512010200007353,None,,,,00035,001,2026-01-16_13h00.56.755,MST_test,2024.2.0,59.633350304444136,2026-01-16 13h01.10.936177 +0530,
56,0,57,n,1.9115959000191651,None,57,0,56,274.66605820000404,,,,,,,,,,,,,,,,,,,,,,,,,,,,,,,,,,,,,,,,,,,,,,,,,,274.64994500001194,274.66605820000404,275.15137700000196,275.160206200002,275.18450610002037,275.18450610002037,275.18450610002037,277.1084555000125,Foils\121a.jpg,none,n,1.9115959000191651,None,,,,00035,001,2026-01-16_13h00.56.755,MST_test,2024.2.0,59.633350304444136,2026-01-16 13h01.10.936177 +0530,
57,0,58,s,4.333742800023174,None,58,0,57,277.1246688000101,,,,,,,,,,,,,,,,,,,,,,,,,,,,,,,,,,,,,,,,,,,,,,,,,,277.10854929999914,277.1246688000101,277.60999630001606,277.6158908000216,277.6263857000158,277.6263857000158,277.6263857000158,281.9754893000063,Objects\231a.jpg,post,s,4.333742800023174,None,,,,00035,001,2026-01-16_13h00.56.755,MST_test,2024.2.0,59.633350304444136,2026-01-16 13h01.10.936177 +0530,
58,0,59,n,3.258101799990982,None,59,0,58,281.991834400018,,,,,,,,,,,,,,,,,,,,,,,,,,,,,,,,,,,,,,,,,,,,,,,,,,281.97558930001105,281.991834400018,282.4768096000189,282.4845706000051,282.49323930000537,282.49323930000537,282.49323930000537,285.7555657000048,Objects\322b.jpg,mid,n,3.258101799990982,None,,,,00035,001,2026-01-16_13h00.56.755,MST_test,2024.2.0,59.633350304444136,2026-01-16 13h01.10.936177 +0530,
59,0,60,o,2.1653249000082724,None,60,0,59,285.77185290001216,,,,,,,,,,,,,,,,,,,,,,,,,,,,,,,,,,,,,,,,,,,,,,,,,,285.7556640999974,285.77185290001216,286.2567076999985,286.27428010001313,286.29016580001917,286.29016580001917,286.29016580001917,288.4650605000206,Objects\377b.jpg,post,o,2.1653249000082724,None,,,,00035,001,2026-01-16_13h00.56.755,MST_test,2024.2.0,59.633350304444136,2026-01-16 13h01.10.936177 +0530,
60,0,61,o,2.960958599986043,None,61,0,60,288.4811073000019,,,,,,,,,,,,,,,,,,,,,,,,,,,,,,,,,,,,,,,,,,,,,,,,,,288.46515430000727,288.4811073000019,288.9663294000202,288.9743193000031,288.9823094000167,288.9823094000167,288.9823094000167,291.9438897000218,Objects\153a.jpg,pre,o,2.960958599986043,None,,,,00035,001,2026-01-16_13h00.56.755,MST_test,2024.2.0,59.633350304444136,2026-01-16 13h01.10.936177 +0530,
61,0,62,o,1.2741831000021193,None,62,0,61,291.9599489000102,,,,,,,,,,,,,,,,,,,,,,,,,,,,,,,,,,,,,,,,,,,,,,,,,,291.94398350000847,291.9599489000102,292.44513800001005,292.4532870000112,292.46119840000756,292.46119840000756,292.46119840000756,293.7500828000193,Objects\265a.jpg,post,o,1.2741831000021193,None,,,,00035,001,2026-01-16_13h00.56.755,MST_test,2024.2.0,59.633350304444136,2026-01-16 13h01.10.936177 +0530,
62,0,63,s,4.37231679999968,None,63,0,62,293.76652210002067,,,,,,,,,,,,,,,,,,,,,,,,,,,,,,,,,,,,,,,,,,,,,,,,,,293.75017970000044,293.76652210002067,294.25137140002334,294.259389200015,294.267585900001,294.267585900001,294.267585900001,298.650615200022,Objects\088a.jpg,pre,s,4.37231679999968,None,,,,00035,001,2026-01-16_13h00.56.755,MST_test,2024.2.0,59.633350304444136,2026-01-16 13h01.10.936177 +0530,
63,0,64,o,1.0632507000118494,None,64,0,63,298.6668942999968,,,,,,,,,,,,,,,,,,,,,,,,,,,,,,,,,,,,,,,,,,,,,,,,,,298.65071180000086,298.6668942999968,299.15191159999813,299.15562689999933,299.16859420001856,299.16859420001856,299.16859420001856,300.2397115000058,Objects\112a.jpg,mid,o,1.0632507000118494,None,,,,00035,001,2026-01-16_13h00.56.755,MST_test,2024.2.0,59.633350304444136,2026-01-16 13h01.10.936177 +0530,
64,0,65,s,1.4095875000057276,None,65,0,64,300.25567060001777,,,,,,,,,,,,,,,,,,,,,,,,,,,,,,,,,,,,,,,,,,,,,,,,,,300.239805899997,300.25567060001777,300.7408734000055,300.7438500999997,300.75737570002093,300.75737570002093,300.75737570002093,302.17980730001,Objects\032a.jpg,pre,s,1.4095875000057276,None,,,,00035,001,2026-01-16_13h00.56.755,MST_test,2024.2.0,59.633350304444136,2026-01-16 13h01.10.936177 +0530,
65,0,66,o,1.829566500004148,None,66,0,65,302.195787500008,,,,,,,,,,,,,,,,,,,,,,,,,,,,,,,,,,,,,,,,,,,,,,,,,,302.1799020000035,302.195787500008,302.68101540001226,302.69773220000206,302.71423480001977,302.71423480001977,302.71423480001977,304.5546078000043,Objects\270b.jpg,pre,o,1.829566500004148,None,,,,00035,001,2026-01-16_13h00.56.755,MST_test,2024.2.0,59.633350304444136,2026-01-16 13h01.10.936177 +0530,
66,0,67,n,1.4224313000158872,None,67,0,66,304.57090380002046,,,,,,,,,,,,,,,,,,,,,,,,,,,,,,,,,,,,,,,,,,,,,,,,,,304.5547046000138,304.57090380002046,305.0559204000165,305.06414610001957,305.0893238999997,305.0893238999997,305.0893238999997,306.5283812000125,Objects\132b.jpg,post,n,1.4224313000158872,None,,,,00035,001,2026-01-16_13h00.56.755,MST_test,2024.2.0,59.633350304444136,2026-01-16 13h01.10.936177 +0530,
67,0,68,s,4.489680600003339,None,68,0,67,306.5444738000224,,,,,,,,,,,,,,,,,,,,,,,,,,,,,,,,,,,,,,,,,,,,,,,,,,306.5284750999999,306.5444738000224,307.0295460000052,307.03270310000516,307.046076300001,307.046076300001,307.046076300001,311.5460313000076,Objects\069a.jpg,post,s,4.489680600003339,None,,,,00035,001,2026-01-16_13h00.56.755,MST_test,2024.2.0,59.633350304444136,2026-01-16 13h01.10.936177 +0530,
68,0,69,s,1.8097103999753017,None,69,0,68,311.56192840001313,,,,,,,,,,,,,,,,,,,,,,,,,,,,,,,,,,,,,,,,,,,,,,,,,,311.54612850002013,311.56192840001313,312.0471273000003,312.0552929000114,312.06314720000955,312.06314720000955,312.06314720000955,313.8874452000018,Objects\197b.jpg,pre,s,1.8097103999753017,None,,,,00035,001,2026-01-16_13h00.56.755,MST_test,2024.2.0,59.633350304444136,2026-01-16 13h01.10.936177 +0530,
69,0,70,s,2.049549199989997,None,70,0,69,313.90357980001136,,,,,,,,,,,,,,,,,,,,,,,,,,,,,,,,,,,,,,,,,,,,,,,,,,313.88753850001376,313.90357980001136,314.38853360002395,314.40496300000814,314.4220116000215,314.4220116000215,314.4220116000215,316.4796991000185,Objects\098b.jpg,mid,s,2.049549199989997,None,,,,00035,001,2026-01-16_13h00.56.755,MST_test,2024.2.0,59.633350304444136,2026-01-16 13h01.10.936177 +0530,
70,0,71,s,3.025027900002897,None,71,0,70,316.495985800022,,,,,,,,,,,,,,,,,,,,,,,,,,,,,,,,,,,,,,,,,,,,,,,,,,316.47983810000005,316.495985800022,316.98093590000644,316.99916860001395,317.01513850002084,317.01513850002084,317.01513850002084,320.04215210000984,Objects\303b.jpg,mid,s,3.025027900002897,None,,,,00035,001,2026-01-16_13h00.56.755,MST_test,2024.2.0,59.633350304444136,2026-01-16 13h01.10.936177 +0530,
71,0,72,o,1.0618008000019472,None,72,0,71,320.05846480000764,,,,,,,,,,,,,,,,,,,,,,,,,,,,,,,,,,,,,,,,,,,,,,,,,,320.0422479000117,320.05846480000764,320.54343360001803,320.56151650001993,320.5777591000078,320.5777591000078,320.5777591000078,321.6482236000011,Objects\339b.jpg,mid,o,1.0618008000019472,None,,,,00035,001,2026-01-16_13h00.56.755,MST_test,2024.2.0,59.633350304444136,2026-01-16 13h01.10.936177 +0530,
72,0,73,n,1.864343099994585,None,73,0,72,321.6639611000137,,,,,,,,,,,,,,,,,,,,,,,,,,,,,,,,,,,,,,,,,,,,,,,,,,321.6483193000022,321.6639611000137,322.14918070001295,322.1590473999968,322.1834279000177,322.1834279000177,322.1834279000177,324.0566214999999,Objects\095a.jpg,post,n,1.864343099994585,None,,,,00035,001,2026-01-16_13h00.56.755,MST_test,2024.2.0,59.633350304444136,2026-01-16 13h01.10.936177 +0530,
73,0,74,s,3.8249835000024177,None,74,0,73,324.07310770000913,,,,,,,,,,,,,,,,,,,,,,,,,,,,,,,,,,,,,,,,,,,,,,,,,,324.0567141000065,324.07310770000913,324.5575606000202,324.56013310002163,324.5743949000025,324.5743949000025,324.5743949000025,328.40502450001077,Foils\049a.jpg,none,s,3.8249835000024177,None,,,,00035,001,2026-01-16_13h00.56.755,MST_test,2024.2.0,59.633350304444136,2026-01-16 13h01.10.936177 +0530,
74,0,75,s,1.4998368000087794,None,75,0,74,328.42109580000397,,,,,,,,,,,,,,,,,,,,,,,,,,,,,,,,,,,,,,,,,,,,,,,,,,328.40512570002466,328.42109580000397,328.9055726000224,328.9174987000006,328.939564100001,328.939564100001,328.939564100001,330.44539440001245,Objects\103b.jpg,pre,s,1.4998368000087794,None,,,,00035,001,2026-01-16_13h00.56.755,MST_test,2024.2.0,59.633350304444136,2026-01-16 13h01.10.936177 +0530,
75,0,76,o,1.5005612000240944,None,76,0,75,330.46171540001524,,,,,,,,,,,,,,,,,,,,,,,,,,,,,,,,,,,,,,,,,,,,,,,,,,330.44549189999816,330.46171540001524,330.9465844000224,330.9492622000107,330.9632508000068,330.9632508000068,330.9632508000068,332.4693961000012,Objects\204a.jpg,mid,o,1.5005612000240944,None,,,,00035,001,2026-01-16_13h00.56.755,MST_test,2024.2.0,59.633350304444136,2026-01-16 13h01.10.936177 +0530,
76,0,77,s,2.0938928999821655,None,77,0,76,332.48547140002484,,,,,,,,,,,,,,,,,,,,,,,,,,,,,,,,,,,,,,,,,,,,,,,,,,332.46949220000533,332.48547140002484,332.9704464999959,332.9734024000063,332.9869004000211,332.9869004000211,332.9869004000211,335.09510480001336,Foils\097a.jpg,none,s,2.0938928999821655,None,,,,00035,001,2026-01-16_13h00.56.755,MST_test,2024.2.0,59.633350304444136,2026-01-16 13h01.10.936177 +0530,
77,0,78,s,3.1775215000088792,None,78,0,77,335.1111626000202,,,,,,,,,,,,,,,,,,,,,,,,,,,,,,,,,,,,,,,,,,,,,,,,,,335.09519750002073,335.1111626000202,335.5962268000003,335.61066380000557,335.6304071000195,335.6304071000195,335.6304071000195,338.8247196000011,Objects\356b.jpg,pre,s,3.1775215000088792,None,,,,00035,001,2026-01-16_13h00.56.755,MST_test,2024.2.0,59.633350304444136,2026-01-16 13h01.10.936177 +0530,
78,0,79,o,1.3278376000234857,None,79,0,78,338.8410357000248,,,,,,,,,,,,,,,,,,,,,,,,,,,,,,,,,,,,,,,,,,,,,,,,,,338.82481370001915,338.8410357000248,339.3260428000067,339.34223010001006,339.35950160000357,339.35950160000357,339.35950160000357,340.6981652000104,Objects\090b.jpg,post,o,1.3278376000234857,None,,,,00035,001,2026-01-16_13h00.56.755,MST_test,2024.2.0,59.633350304444136,2026-01-16 13h01.10.936177 +0530,
79,0,80,s,2.495663199981209,None,80,0,79,340.7140011000156,,,,,,,,,,,,,,,,,,,,,,,,,,,,,,,,,,,,,,,,,,,,,,,,,,340.69826190001913,340.7140011000156,341.19929420002154,341.21059200001764,341.23243960001855,341.23243960001855,341.23243960001855,343.7419884999981,Objects\082b.jpg,mid,s,2.495663199981209,None,,,,00035,001,2026-01-16_13h00.56.755,MST_test,2024.2.0,59.633350304444136,2026-01-16 13h01.10.936177 +0530,
80,0,81,n,5.420350899978075,None,81,0,80,343.75812800001586,,,,,,,,,,,,,,,,,,,,,,,,,,,,,,,,,,,,,,,,,,,,,,,,,,343.7420837000245,343.75812800001586,344.2431199999992,344.2462384000246,344.2599561000243,344.2599561000243,344.2599561000243,349.69624950000434,Foils\093b.jpg,none,n,5.420350899978075,None,,,,00035,001,2026-01-16_13h00.56.755,MST_test,2024.2.0,59.633350304444136,2026-01-16 13h01.10.936177 +0530,
81,0,82,n,5.688905399991199,None,82,0,81,349.71235310001066,,,,,,,,,,,,,,,,,,,,,,,,,,,,,,,,,,,,,,,,,,,,,,,,,,349.6963583000179,349.71235310001066,350.19743500000914,350.20736310002394,350.2307485000056,350.2307485000056,350.2307485000056,355.934468499996,Objects\301b.jpg,mid,n,5.688905399991199,None,,,,00035,001,2026-01-16_13h00.56.755,MST_test,2024.2.0,59.633350304444136,2026-01-16 13h01.10.936177 +0530,
82,0,83,s,1.994507399998838,None,83,0,82,355.9511898000201,,,,,,,,,,,,,,,,,,,,,,,,,,,,,,,,,,,,,,,,,,,,,,,,,,355.9345661000116,355.9511898000201,356.43593639999744,356.4469790000003,356.4693453000218,356.4693453000218,356.4693453000218,358.4767689,Objects\188b.jpg,pre,s,1.994507399998838,None,,,,00035,001,2026-01-16_13h00.56.755,MST_test,2024.2.0,59.633350304444136,2026-01-16 13h01.10.936177 +0530,
83,0,84,s,2.4523209999897517,None,84,0,83,358.49304950001533,,,,,,,,,,,,,,,,,,,,,,,,,,,,,,,,,,,,,,,,,,,,,,,,,,358.4768634000211,358.49304950001533,358.97814710001694,358.995713500015,359.01136650002445,359.01136650002445,359.01136650002445,361.4708082000143,Objects\342b.jpg,post,s,2.4523209999897517,None,,,,00035,001,2026-01-16_13h00.56.755,MST_test,2024.2.0,59.633350304444136,2026-01-16 13h01.10.936177 +0530,
84,0,85,s,1.18607970001176,None,85,0,84,361.48673860001145,,,,,,,,,,,,,,,,,,,,,,,,,,,,,,,,,,,,,,,,,,,,,,,,,,361.4709044000192,361.48673860001145,361.97258450000663,361.9891430000134,362.0051887000154,362.0051887000154,362.0051887000154,363.1935803000233,Objects\042b.jpg,pre,s,1.18607970001176,None,,,,00035,001,2026-01-16_13h00.56.755,MST_test,2024.2.0,59.633350304444136,2026-01-16 13h01.10.936177 +0530,
85,0,86,s,0.9843653999851085,None,86,0,85,363.20943470002385,,,,,,,,,,,,,,,,,,,,,,,,,,,,,,,,,,,,,,,,,,,,,,,,,,363.1936738000077,363.20943470002385,363.6947966000007,363.69749010002124,363.7111447000061,363.7111447000061,363.7111447000061,364.698653200001,Objects\036a.jpg,mid,s,0.9843653999851085,None,,,,00035,001,2026-01-16_13h00.56.755,MST_test,2024.2.0,59.633350304444136,2026-01-16 13h01.10.936177 +0530,
86,0,87,s,2.0299187999917194,None,87,0,86,364.71471840000595,,,,,,,,,,,,,,,,,,,,,,,,,,,,,,,,,,,,,,,,,,,,,,,,,,364.69874490000075,364.71471840000595,365.2000503000163,365.2112715000112,365.23316329999943,365.23316329999943,365.23316329999943,367.27440600001137,Objects\094b.jpg,mid,s,2.0299187999917194,None,,,,00035,001,2026-01-16_13h00.56.755,MST_test,2024.2.0,59.633350304444136,2026-01-16 13h01.10.936177 +0530,
87,0,88,o,1.3585928000102285,None,88,0,87,367.2905267000024,,,,,,,,,,,,,,,,,,,,,,,,,,,,,,,,,,,,,,,,,,,,,,,,,,367.27450050000334,367.2905267000024,367.7756331000128,367.7862297000247,367.80883470000117,367.80883470000117,367.80883470000117,369.18182009999873,Objects\223b.jpg,post,o,1.3585928000102285,None,,,,00035,001,2026-01-16_13h00.56.755,MST_test,2024.2.0,59.633350304444136,2026-01-16 13h01.10.936177 +0530,
88,0,89,o,1.8522660000016913,None,89,0,88,369.1972010000027,,,,,,,,,,,,,,,,,,,,,,,,,,,,,,,,,,,,,,,,,,,,,,,,,,369.18192610002006,369.1972010000027,369.6823818999983,369.6859278000193,369.6989147000131,369.6989147000131,369.6989147000131,371.55634920002194,Objects\180a.jpg,post,o,1.8522660000016913,None,,,,00035,001,2026-01-16_13h00.56.755,MST_test,2024.2.0,59.633350304444136,2026-01-16 13h01.10.936177 +0530,
89,0,90,o,3.830189000000246,None,90,0,89,371.5721678000118,,,,,,,,,,,,,,,,,,,,,,,,,,,,,,,,,,,,,,,,,,,,,,,,,,371.55644450002,371.5721678000118,372.0577454000013,372.0741929000069,372.0906101000146,372.0906101000146,372.0906101000146,375.9377440000244,Objects\258b.jpg,post,o,3.830189000000246,None,,,,00035,001,2026-01-16_13h00.56.755,MST_test,2024.2.0,59.633350304444136,2026-01-16 13h01.10.936177 +0530,
90,0,91,n,4.720298300002469,None,91,0,90,375.9546685000241,,,,,,,,,,,,,,,,,,,,,,,,,,,,,,,,,,,,,,,,,,,,,,,,,,375.93801579999854,375.9546685000241,376.43926980000106,376.446883800003,376.4554829999979,376.4554829999979,376.4554829999979,381.1896948000067,Foils\034a.jpg,none,n,4.720298300002469,None,,,,00035,001,2026-01-16_13h00.56.755,MST_test,2024.2.0,59.633350304444136,2026-01-16 13h01.10.936177 +0530,
91,0,92,n,1.4524289000255521,None,92,0,91,381.20579310000176,,,,,,,,,,,,,,,,,,,,,,,,,,,,,,,,,,,,,,,,,,,,,,,,,,381.18979840000975,381.20579310000176,381.69098410001607,381.6937971000152,381.70773330001975,381.70773330001975,381.70773330001975,383.1632798000064,Objects\175a.jpg,post,n,1.4524289000255521,None,,,,00035,001,2026-01-16_13h00.56.755,MST_test,2024.2.0,59.633350304444136,2026-01-16 13h01.10.936177 +0530,
92,0,93,o,2.0697937999793794,None,93,0,92,383.17963620001683,,,,,,,,,,,,,,,,,,,,,,,,,,,,,,,,,,,,,,,,,,,,,,,,,,383.16337230001227,383.17963620001683,383.6644897000224,383.6759698000096,383.6980387000076,383.6980387000076,383.6980387000076,385.7725124999997,Objects\099b.jpg,mid,o,2.0697937999793794,None,,,,00035,001,2026-01-16_13h00.56.755,MST_test,2024.2.0,59.633350304444136,2026-01-16 13h01.10.936177 +0530,
93,0,94,o,1.2061040999833494,None,94,0,93,385.78854649999994,,,,,,,,,,,,,,,,,,,,,,,,,,,,,,,,,,,,,,,,,,,,,,,,,,385.7726112000237,385.78854649999994,386.2737058000057,386.2816979000054,386.2898209000123,386.2898209000123,386.2898209000123,387.5119539000152,Objects\375a.jpg,mid,o,1.2061040999833494,None,,,,00035,001,2026-01-16_13h00.56.755,MST_test,2024.2.0,59.633350304444136,2026-01-16 13h01.10.936177 +0530,
94,0,95,o,1.618080899992492,None,95,0,94,387.5279245999991,,,,,,,,,,,,,,,,,,,,,,,,,,,,,,,,,,,,,,,,,,,,,,,,,,387.5120496000163,387.5279245999991,388.0131430000183,388.0197337999998,388.0296475000214,388.0296475000214,388.0296475000214,389.6527569000027,Objects\224a.jpg,mid,o,1.618080899992492,None,,,,00035,001,2026-01-16_13h00.56.755,MST_test,2024.2.0,59.633350304444136,2026-01-16 13h01.10.936177 +0530,
95,0,96,s,6.01398399999016,None,96,0,95,389.6689221000124,,,,,,,,,,,,,,,,,,,,,,,,,,,,,,,,,,,,,,,,,,,,,,,,,,389.6528764000104,389.6689221000124,390.1541947000078,390.1618243000121,390.17005840002093,390.17005840002093,390.17005840002093,396.19243610001286,Foils\058a.jpg,none,s,6.01398399999016,None,,,,00035,001,2026-01-16_13h00.56.755,MST_test,2024.2.0,59.633350304444136,2026-01-16 13h01.10.936177 +0530,
96,0,97,s,1.5450830000045244,None,97,0,96,396.20845360000385,,,,,,,,,,,,,,,,,,,,,,,,,,,,,,,,,,,,,,,,,,,,,,,,,,396.19252690000576,396.20845360000385,396.6935591000074,396.70414370001527,396.72675880001043,396.72675880001043,396.72675880001043,398.2831509000098,Objects\334b.jpg,post,s,1.5450830000045244,None,,,,00035,001,2026-01-16_13h00.56.755,MST_test,2024.2.0,59.633350304444136,2026-01-16 13h01.10.936177 +0530,
97,0,98,s,1.5657121000112966,None,98,0,97,398.29899050001404,,,,,,,,,,,,,,,,,,,,,,,,,,,,,,,,,,,,,,,,,,,,,,,,,,398.2832440000202,398.29899050001404,398.78509530000156,398.8011202000198,398.8174113999994,398.8174113999994,398.8174113999994,400.39037080001435,Objects\232b.jpg,post,s,1.5657121000112966,None,,,,00035,001,2026-01-16_13h00.56.755,MST_test,2024.2.0,59.633350304444136,2026-01-16 13h01.10.936177 +0530,
98,0,99,o,3.1555920999962837,None,99,0,98,400.40647860002355,,,,,,,,,,,,,,,,,,,,,,,,,,,,,,,,,,,,,,,,,,,,,,,,,,400.3904666000162,400.40647860002355,400.8917052000179,400.90017830001307,400.9078003000177,400.9078003000177,400.9078003000177,404.06982780000544,Objects\031a.jpg,post,o,3.1555920999962837,None,,,,00035,001,2026-01-16_13h00.56.755,MST_test,2024.2.0,59.633350304444136,2026-01-16 13h01.10.936177 +0530,
99,0,100,n,2.3146700999932364,None,100,0,99,404.08591230001184,,,,,,,,,,,,,,,,,,,,,,,,,,,,,,,,,,,,,,,,,,,,,,,,,,404.0699222999974,404.08591230001184,404.5711140000203,404.5831238999963,404.6043492000026,404.6043492000026,404.6043492000026,406.9300288000086,Objects\383b.jpg,pre,n,2.3146700999932364,None,,,,00035,001,2026-01-16_13h00.56.755,MST_test,2024.2.0,59.633350304444136,2026-01-16 13h01.10.936177 +0530,
100,0,101,s,1.1188881999987643,None,101,0,100,406.9459184000152,,,,,,,,,,,,,,,,,,,,,,,,,,,,,,,,,,,,,,,,,,,,,,,,,,406.930122699996,406.9459184000152,407.431158899999,407.45037490001414,407.4643706000061,407.4643706000061,407.4643706000061,408.5860568000062,Objects\358b.jpg,mid,s,1.1188881999987643,None,,,,00035,001,2026-01-16_13h00.56.755,MST_test,2024.2.0,59.633350304444136,2026-01-16 13h01.10.936177 +0530,
101,0,102,s,3.446817200019723,None,102,0,101,408.6018380000023,,,,,,,,,,,,,,,,,,,,,,,,,,,,,,,,,,,,,,,,,,,,,,,,,,408.5861491000105,408.6018380000023,409.0876389000041,409.10491520000505,409.12016869999934,409.12016869999934,409.12016869999934,412.5829494000063,Objects\028b.jpg,post,s,3.446817200019723,None,,,,00035,001,2026-01-16_13h00.56.755,MST_test,2024.2.0,59.633350304444136,2026-01-16 13h01.10.936177 +0530,
102,0,103,n,3.1470215000153985,None,103,0,102,412.5990337000112,,,,,,,,,,,,,,,,,,,,,,,,,,,,,,,,,,,,,,,,,,,,,,,,,,412.58304430000135,412.5990337000112,413.0843937000027,413.0868254000088,413.10076339999796,413.10076339999796,413.10076339999796,416.26258850001614,Objects\307a.jpg,mid,n,3.1470215000153985,None,,,,00035,001,2026-01-16_13h00.56.755,MST_test,2024.2.0,59.633350304444136,2026-01-16 13h01.10.936177 +0530,
103,0,104,n,1.091860100015765,None,104,0,103,416.2785944000061,,,,,,,,,,,,,,,,,,,,,,,,,,,,,,,,,,,,,,,,,,,,,,,,,,416.2628543000028,416.2785944000061,416.76382540000486,416.7669055000006,416.7803056999983,416.7803056999983,416.7803056999983,417.88498080000863,Foils\002a.jpg,none,n,1.091860100015765,None,,,,00035,001,2026-01-16_13h00.56.755,MST_test,2024.2.0,59.633350304444136,2026-01-16 13h01.10.936177 +0530,
104,0,105,o,1.0133498000213876,None,105,0,104,417.9010595,,,,,,,,,,,,,,,,,,,,,,,,,,,,,,,,,,,,,,,,,,,,,,,,,,417.8850730000122,417.9010595,418.38616780002485,418.3941634000221,418.40211439999985,418.40211439999985,418.40211439999985,419.42365050001536,Objects\275a.jpg,post,o,1.0133498000213876,None,,,,00035,001,2026-01-16_13h00.56.755,MST_test,2024.2.0,59.633350304444136,2026-01-16 13h01.10.936177 +0530,
105,0,106,o,2.56142829998862,None,106,0,105,419.4398118000245,,,,,,,,,,,,,,,,,,,,,,,,,,,,,,,,,,,,,,,,,,,,,,,,,,419.42374650001875,419.4398118000245,419.9250560000073,419.93325810000533,419.95775319999666,419.95775319999666,419.95775319999666,422.53440970001975,Objects\217a.jpg,pre,o,2.56142829998862,None,,,,00035,001,2026-01-16_13h00.56.755,MST_test,2024.2.0,59.633350304444136,2026-01-16 13h01.10.936177 +0530,
106,0,107,s,1.96261260000756,None,107,0,106,422.5507062000106,,,,,,,,,,,,,,,,,,,,,,,,,,,,,,,,,,,,,,,,,,,,,,,,,,422.5345149000059,422.5507062000106,423.0359140000073,423.0429776000092,423.05238649999956,423.05238649999956,423.05238649999956,425.0266318000213,Objects\195a.jpg,pre,s,1.96261260000756,None,,,,00035,001,2026-01-16_13h00.56.755,MST_test,2024.2.0,59.633350304444136,2026-01-16 13h01.10.936177 +0530,
107,0,108,s,1.327628700004425,None,108,0,107,425.04262560000643,,,,,,,,,,,,,,,,,,,,,,,,,,,,,,,,,,,,,,,,,,,,,,,,,,425.0267296000093,425.04262560000643,425.5279416000121,425.5356262999994,425.54409950002446,425.54409950002446,425.54409950002446,426.88318830000935,Objects\241a.jpg,post,s,1.327628700004425,None,,,,00035,001,2026-01-16_13h00.56.755,MST_test,2024.2.0,59.633350304444136,2026-01-16 13h01.10.936177 +0530,
108,0,109,n,1.325977000000421,None,109,0,108,426.8992455000116,,,,,,,,,,,,,,,,,,,,,,,,,,,,,,,,,,,,,,,,,,,,,,,,,,426.8832829000021,426.8992455000116,427.38437300000805,427.3964457999973,427.4176849000214,427.4176849000214,427.4176849000214,428.75627600000007,Foils\065a.jpg,none,n,1.325977000000421,None,,,,00035,001,2026-01-16_13h00.56.755,MST_test,2024.2.0,59.633350304444136,2026-01-16 13h01.10.936177 +0530,
109,0,110,s,1.5569534999958705,None,110,0,109,428.772417900007,,,,,,,,,,,,,,,,,,,,,,,,,,,,,,,,,,,,,,,,,,,,,,,,,,428.75637720001396,428.772417900007,429.257554300013,429.2681993000151,429.29091770001105,429.29091770001105,429.29091770001105,430.86354890000075,Objects\114b.jpg,post,s,1.5569534999958705,None,,,,00035,001,2026-01-16_13h00.56.755,MST_test,2024.2.0,59.633350304444136,2026-01-16 13h01.10.936177 +0530,
110,0,111,s,8.106124899990391,None,111,0,110,430.87986310000997,,,,,,,,,,,,,,,,,,,,,,,,,,,,,,,,,,,,,,,,,,,,,,,,,,430.8636468000186,430.87986310000997,431.3648220000032,431.36763880000217,431.38156690000324,431.38156690000324,431.38156690000324,439.4939042000042,Objects\021a.jpg,mid,s,8.106124899990391,None,,,,00035,001,2026-01-16_13h00.56.755,MST_test,2024.2.0,59.633350304444136,2026-01-16 13h01.10.936177 +0530,
111,0,112,s,2.1957720000064,None,112,0,111,439.50994790002005,,,,,,,,,,,,,,,,,,,,,,,,,,,,,,,,,,,,,,,,,,,,,,,,,,439.49399820002145,439.50994790002005,439.9951602000219,439.99805660001584,440.0117870000249,440.0117870000249,440.0117870000249,442.2201230000064,Foils\113a.jpg,none,s,2.1957720000064,None,,,,00035,001,2026-01-16_13h00.56.755,MST_test,2024.2.0,59.633350304444136,2026-01-16 13h01.10.936177 +0530,
112,0,113,o,1.0702818999998271,None,113,0,112,442.2363066000107,,,,,,,,,,,,,,,,,,,,,,,,,,,,,,,,,,,,,,,,,,,,,,,,,,442.22021369999857,442.2363066000107,442.7212548000098,442.72699470000225,442.73810960000264,442.73810960000264,442.73810960000264,443.80915529999766,Objects\200a.jpg,post,o,1.0702818999998271,None,,,,00035,001,2026-01-16_13h00.56.755,MST_test,2024.2.0,59.633350304444136,2026-01-16 13h01.10.936177 +0530,
113,0,114,o,1.048263800010318,None,114,0,113,443.82522430000245,,,,,,,,,,,,,,,,,,,,,,,,,,,,,,,,,,,,,,,,,,,,,,,,,,443.8092631000036,443.82522430000245,444.31042520000483,444.31902570000966,444.34366630000295,444.34366630000295,444.34366630000295,445.39802600000985,Objects\187a.jpg,mid,o,1.048263800010318,None,,,,00035,001,2026-01-16_13h00.56.755,MST_test,2024.2.0,59.633350304444136,2026-01-16 13h01.10.936177 +0530,
114,0,115,s,2.196420299995225,None,115,0,114,445.4141234999988,,,,,,,,,,,,,,,,,,,,,,,,,,,,,,,,,,,,,,,,,,,,,,,,,,445.3981247000047,445.4141234999988,445.89948650001315,445.90197990002343,445.91583900002297,445.91583900002297,445.91583900002297,448.1239472000161,Foils\073a.jpg,none,s,2.196420299995225,None,,,,00035,001,2026-01-16_13h00.56.755,MST_test,2024.2.0,59.633350304444136,2026-01-16 13h01.10.936177 +0530,
115,0,116,s,1.605338599998504,None,116,0,115,448.1404496000032,,,,,,,,,,,,,,,,,,,,,,,,,,,,,,,,,,,,,,,,,,,,,,,,,,448.12404029999743,448.1404496000032,448.6257051000139,448.6363123000192,448.658992200013,448.658992200013,448.658992200013,450.28165140000056,Objects\245b.jpg,post,s,1.605338599998504,None,,,,00035,001,2026-01-16_13h00.56.755,MST_test,2024.2.0,59.633350304444136,2026-01-16 13h01.10.936177 +0530,
116,0,117,s,0.7195681000011973,None,117,0,116,450.2983127000043,,,,,,,,,,,,,,,,,,,,,,,,,,,,,,,,,,,,,,,,,,,,,,,,,,450.2817529000167,450.2983127000043,450.78293390001636,450.7938712000032,450.81628430000274,450.81628430000274,450.81628430000274,451.5529013000196,Objects\070b.jpg,pre,s,0.7195681000011973,None,,,,00035,001,2026-01-16_13h00.56.755,MST_test,2024.2.0,59.633350304444136,2026-01-16 13h01.10.936177 +0530,
117,0,118,s,1.3600760000117589,None,118,0,117,451.5690319999994,,,,,,,,,,,,,,,,,,,,,,,,,,,,,,,,,,,,,,,,,,,,,,,,,,451.55302890000166,451.5690319999994,452.05423310000333,452.0690939000051,452.0874528000131,452.0874528000131,452.0874528000131,453.4594074000197,Objects\257b.jpg,mid,s,1.3600760000117589,None,,,,00035,001,2026-01-16_13h00.56.755,MST_test,2024.2.0,59.633350304444136,2026-01-16 13h01.10.936177 +0530,
118,0,119,n,2.364765200007241,None,119,0,118,453.47580070002005,,,,,,,,,,,,,,,,,,,,,,,,,,,,,,,,,,,,,,,,,,,,,,,,,,453.45950430000084,453.47580070002005,453.96078370002215,453.9768929000129,453.99463290002313,453.99463290002313,453.99463290002313,456.3697572000092,Objects\053b.jpg,mid,n,2.364765200007241,None,,,,00035,001,2026-01-16_13h00.56.755,MST_test,2024.2.0,59.633350304444136,2026-01-16 13h01.10.936177 +0530,
119,0,120,n,2.0319413999968674,None,120,0,119,456.3859777000034,,,,,,,,,,,,,,,,,,,,,,,,,,,,,,,,,,,,,,,,,,,,,,,,,,456.36985430002096,456.3859777000034,456.87118620000547,456.87441280001076,456.88754140000674,456.88754140000674,456.88754140000674,458.9289235000033,Foils\081a.jpg,none,n,2.0319413999968674,None,,,,00035,001,2026-01-16_13h00.56.755,MST_test,2024.2.0,59.633350304444136,2026-01-16 13h01.10.936177 +0530,
120,0,121,n,1.760854099993594,None,121,0,120,458.94506220001495,,,,,,,,,,,,,,,,,,,,,,,,,,,,,,,,,,,,,,,,,,,,,,,,,,458.9290177000221,458.94506220001495,459.42991500001517,459.43326560000423,459.44649920001393,459.44649920001393,459.44649920001393,461.2198558000091,Objects\252a.jpg,pre,n,1.760854099993594,None,,,,00035,001,2026-01-16_13h00.56.755,MST_test,2024.2.0,59.633350304444136,2026-01-16 13h01.10.936177 +0530,
121,0,122,n,2.1724158999859355,None,122,0,121,461.236040400021,,,,,,,,,,,,,,,,,,,,,,,,,,,,,,,,,,,,,,,,,,,,,,,,,,461.21994750000886,461.236040400021,461.72152010002173,461.7366231000051,461.7544651000062,461.7544651000062,461.7544651000062,463.93015210001613,Objects\366b.jpg,mid,n,2.1724158999859355,None,,,,00035,001,2026-01-16_13h00.56.755,MST_test,2024.2.0,59.633350304444136,2026-01-16 13h01.10.936177 +0530,
122,0,123,s,1.9913331000134349,None,123,0,122,463.9456419000053,,,,,,,,,,,,,,,,,,,,,,,,,,,,,,,,,,,,,,,,,,,,,,,,,,463.93024539999897,463.9456419000053,464.43059990002075,464.4467616000038,464.46406620001653,464.46406620001653,464.46406620001653,466.4727815000224,Objects\376b.jpg,post,s,1.9913331000134349,None,,,,00035,001,2026-01-16_13h00.56.755,MST_test,2024.2.0,59.633350304444136,2026-01-16 13h01.10.936177 +0530,
123,0,124,s,4.370479300006991,None,124,0,123,466.4877560000168,,,,,,,,,,,,,,,,,,,,,,,,,,,,,,,,,,,,,,,,,,,,,,,,,,466.4728785000043,466.4877560000168,466.9740387000202,466.9812584000174,466.98915410001064,466.98915410001064,466.98915410001064,471.37207420001505,Objects\331a.jpg,mid,s,4.370479300006991,None,,,,00035,001,2026-01-16_13h00.56.755,MST_test,2024.2.0,59.633350304444136,2026-01-16 13h01.10.936177 +0530,
124,0,125,s,0.9806010999891441,None,125,0,124,471.3883764000202,,,,,,,,,,,,,,,,,,,,,,,,,,,,,,,,,,,,,,,,,,,,,,,,,,471.37217020001845,471.3883764000202,471.87332850001985,471.8822840000212,471.90680980001343,471.90680980001343,471.90680980001343,472.8941815000144,Objects\189a.jpg,mid,s,0.9806010999891441,None,,,,00035,001,2026-01-16_13h00.56.755,MST_test,2024.2.0,59.633350304444136,2026-01-16 13h01.10.936177 +0530,
125,0,126,o,1.0668108999961987,None,126,0,125,472.91036410001107,,,,,,,,,,,,,,,,,,,,,,,,,,,,,,,,,,,,,,,,,,,,,,,,,,472.8942761000071,472.91036410001107,473.3953318000131,473.40180600000895,473.41203090001363,473.41203090001363,473.41203090001363,474.48320879999665,Objects\309b.jpg,post,o,1.0668108999961987,None,,,,00035,001,2026-01-16_13h00.56.755,MST_test,2024.2.0,59.633350304444136,2026-01-16 13h01.10.936177 +0530,
126,0,127,s,2.079225299996324,None,127,0,126,474.4992059000069,,,,,,,,,,,,,,,,,,,,,,,,,,,,,,,,,,,,,,,,,,,,,,,,,,474.4833045999985,474.4992059000069,474.9843473000219,475.00181640000665,475.0175716000085,475.0175716000085,475.0175716000085,477.10894190002,Objects\281b.jpg,mid,s,2.079225299996324,None,,,,00035,001,2026-01-16_13h00.56.755,MST_test,2024.2.0,59.633350304444136,2026-01-16 13h01.10.936177 +0530,
127,0,128,s,3.068702399992617,None,128,0,127,477.1250071999966,,,,,,,,,,,,,,,,,,,,,,,,,,,,,,,,,,,,,,,,,,,,,,,,,,477.10904090001713,477.1250071999966,477.610196499998,477.6183539000049,477.62636540000676,477.62636540000676,477.62636540000676,480.70455409999704,Objects\332a.jpg,mid,s,3.068702399992617,None,,,,00035,001,2026-01-16_13h00.56.755,MST_test,2024.2.0,59.633350304444136,2026-01-16 13h01.10.936177 +0530,
128,0,129,s,3.1978135999816004,None,129,0,128,480.7210442000069,,,,,,,,,,,,,,,,,,,,,,,,,,,,,,,,,,,,,,,,,,,,,,,,,,480.70465320002404,480.7210442000069,481.2061578000139,481.2152975000208,481.27309900001273,481.27309900001273,481.27309900001273,484.48523630001,Objects\093a.jpg,mid,s,3.1978135999816004,None,,,,00035,001,2026-01-16_13h00.56.755,MST_test,2024.2.0,59.633350304444136,2026-01-16 13h01.10.936177 +0530,
129,0,130,s,1.6689824999775738,None,130,0,129,484.5008192000096,,,,,,,,,,,,,,,,,,,,,,,,,,,,,,,,,,,,,,,,,,,,,,,,,,484.48533710002084,484.5008192000096,484.9860304000031,484.98895769999945,485.0025321000139,485.0025321000139,485.0025321000139,486.6756765000173,Objects\215a.jpg,mid,s,1.6689824999775738,None,,,,00035,001,2026-01-16_13h00.56.755,MST_test,2024.2.0,59.633350304444136,2026-01-16 13h01.10.936177 +0530,
130,0,131,o,1.189425200020196,None,131,0,130,486.6921322999988,,,,,,,,,,,,,,,,,,,,,,,,,,,,,,,,,,,,,,,,,,,,,,,,,,486.6757714000123,486.6921322999988,487.1770837000222,487.1796321000147,487.1937394000124,487.1937394000124,487.1937394000124,488.3986092999985,Objects\046a.jpg,mid,o,1.189425200020196,None,,,,00035,001,2026-01-16_13h00.56.755,MST_test,2024.2.0,59.633350304444136,2026-01-16 13h01.10.936177 +0530,
131,0,132,n,2.09048030001577,None,132,0,131,488.41481220000423,,,,,,,,,,,,,,,,,,,,,,,,,,,,,,,,,,,,,,,,,,,,,,,,,,488.3987163999991,488.41481220000423,488.8997875000059,488.90238320000935,488.9165269000223,488.9165269000223,488.9165269000223,491.00774490000913,Objects\276a.jpg,mid,n,2.09048030001577,None,,,,00035,001,2026-01-16_13h00.56.755,MST_test,2024.2.0,59.633350304444136,2026-01-16 13h01.10.936177 +0530,
132,0,133,n,3.0665059000020847,None,133,0,132,491.02379080001265,,,,,,,,,,,,,,,,,,,,,,,,,,,,,,,,,,,,,,,,,,,,,,,,,,491.0078529000166,491.02379080001265,491.5087432000146,491.51194779999787,491.5255371000094,491.5255371000094,491.5255371000094,494.60356230000616,Objects\084a.jpg,pre,n,3.0665059000020847,None,,,,00035,001,2026-01-16_13h00.56.755,MST_test,2024.2.0,59.633350304444136,2026-01-16 13h01.10.936177 +0530,
133,0,134,s,4.421246099984273,None,134,0,133,494.6195986000239,,,,,,,,,,,,,,,,,,,,,,,,,,,,,,,,,,,,,,,,,,,,,,,,,,494.60365699999966,494.6195986000239,495.1049823000212,495.1167166000232,495.138030800008,495.138030800008,495.138030800008,499.5710653999995,Objects\127b.jpg,pre,s,4.421246099984273,None,,,,00035,001,2026-01-16_13h00.56.755,MST_test,2024.2.0,59.633350304444136,2026-01-16 13h01.10.936177 +0530,
134,0,135,s,1.0142717999988236,None,135,0,134,499.5869898000092,,,,,,,,,,,,,,,,,,,,,,,,,,,,,,,,,,,,,,,,,,,,,,,,,,499.57115920001525,499.5869898000092,500.0721719000139,500.07516120001674,500.0887018000067,500.0887018000067,500.0887018000067,501.1096120000002,Objects\156a.jpg,pre,s,1.0142717999988236,None,,,,00035,001,2026-01-16_13h00.56.755,MST_test,2024.2.0,59.633350304444136,2026-01-16 13h01.10.936177 +0530,
135,0,136,o,3.4275983000115957,None,136,0,135,501.12571110000135,,,,,,,,,,,,,,,,,,,,,,,,,,,,,,,,,,,,,,,,,,,,,,,,,,501.10970240001916,501.12571110000135,501.61093080000137,501.6133568000223,501.6275350000069,501.6275350000069,501.6275350000069,505.0569415000209,Objects\157a.jpg,pre,o,3.4275983000115957,None,,,,00035,001,2026-01-16_13h00.56.755,MST_test,2024.2.0,59.633350304444136,2026-01-16 13h01.10.936177 +0530,
136,0,137,o,1.232741799991345,None,137,0,136,505.07298009999795,,,,,,,,,,,,,,,,,,,,,,,,,,,,,,,,,,,,,,,,,,,,,,,,,,505.0570357000106,505.07298009999795,505.55794840000453,505.5611031000153,505.57477380000637,505.57477380000637,505.57477380000637,506.81302460000734,Objects\002b.jpg,pre,o,1.232741799991345,None,,,,00035,001,2026-01-16_13h00.56.755,MST_test,2024.2.0,59.633350304444136,2026-01-16 13h01.10.936177 +0530,
137,0,138,o,0.8200622000149451,None,138,0,137,506.82912480001687,,,,,,,,,,,,,,,,,,,,,,,,,,,,,,,,,,,,,,,,,,,,,,,,,,506.81311560000177,506.82912480001687,507.3142960999976,507.3221787000075,507.34764500000165,507.34764500000165,507.34764500000165,508.18472350001684,Objects\239a.jpg,pre,o,0.8200622000149451,None,,,,00035,001,2026-01-16_13h00.56.755,MST_test,2024.2.0,59.633350304444136,2026-01-16 13h01.10.936177 +0530,
138,0,139,o,0.7218853999802377,None,139,0,138,508.2004933000135,,,,,,,,,,,,,,,,,,,,,,,,,,,,,,,,,,,,,,,,,,,,,,,,,,508.1848185000126,508.2004933000135,508.6856839999964,508.6932597999985,508.702228500013,508.702228500013,508.702228500013,509.43902430002345,Objects\013a.jpg,post,o,0.7218853999802377,None,,,,00035,001,2026-01-16_13h00.56.755,MST_test,2024.2.0,59.633350304444136,2026-01-16 13h01.10.936177 +0530,
139,0,140,s,1.7775360000086948,None,140,0,139,509.4549862999993,,,,,,,,,,,,,,,,,,,,,,,,,,,,,,,,,,,,,,,,,,,,,,,,,,509.4392524000141,509.4549862999993,509.9399537999998,509.9574752000044,509.9734273000213,509.9734273000213,509.9734273000213,511.76372480002465,Objects\228b.jpg,mid,s,1.7775360000086948,None,,,,00035,001,2026-01-16_13h00.56.755,MST_test,2024.2.0,59.633350304444136,2026-01-16 13h01.10.936177 +0530,
140,0,141,n,4.047563000000082,None,141,0,140,511.77980590000516,,,,,,,,,,,,,,,,,,,,,,,,,,,,,,,,,,,,,,,,,,,,,,,,,,511.7638176000037,511.77980590000516,512.2649191000091,512.2730726000154,512.2809978000005,512.2809978000005,512.2809978000005,516.3298437000194,Foils\101b.jpg,none,n,4.047563000000082,None,,,,00035,001,2026-01-16_13h00.56.755,MST_test,2024.2.0,59.633350304444136,2026-01-16 13h01.10.936177 +0530,
141,0,142,n,1.5749922999821138,None,142,0,141,516.3457580000104,,,,,,,,,,,,,,,,,,,,,,,,,,,,,,,,,,,,,,,,,,,,,,,,,,516.3299428000173,516.3457580000104,516.8311645000067,516.8418085000012,516.8642178000009,516.8642178000009,516.8642178000009,518.4537939000002,Objects\077b.jpg,post,n,1.5749922999821138,None,,,,00035,001,2026-01-16_13h00.56.755,MST_test,2024.2.0,59.633350304444136,2026-01-16 13h01.10.936177 +0530,
142,0,143,s,2.163413700007368,None,143,0,142,518.4697517000022,,,,,,,,,,,,,,,,,,,,,,,,,,,,,,,,,,,,,,,,,,,,,,,,,,518.4538853999984,518.4697517000022,518.95502210001,518.9577487000206,518.9722103000095,518.9722103000095,518.9722103000095,521.1465761,Objects\024a.jpg,post,s,2.163413700007368,None,,,,00035,001,2026-01-16_13h00.56.755,MST_test,2024.2.0,59.633350304444136,2026-01-16 13h01.10.936177 +0530,
143,0,144,s,2.1745423000247683,None,144,0,143,521.1626522000006,,,,,,,,,,,,,,,,,,,,,,,,,,,,,,,,,,,,,,,,,,,,,,,,,,521.1466733000125,521.1626522000006,521.6476549000072,521.658911400009,521.6812802000204,521.6812802000204,521.6812802000204,523.8725014000083,Objects\101b.jpg,post,s,2.1745423000247683,None,,,,00035,001,2026-01-16_13h00.56.755,MST_test,2024.2.0,59.633350304444136,2026-01-16 13h01.10.936177 +0530,
144,0,145,s,0.9694933999853674,None,145,0,144,523.8888687000144,,,,,,,,,,,,,,,,,,,,,,,,,,,,,,,,,,,,,,,,,,,,,,,,,,523.872597300011,523.8888687000144,524.3738404000178,524.3769142000237,524.390715800022,524.390715800022,524.390715800022,525.3613990000158,Objects\135a.jpg,pre,s,0.9694933999853674,None,,,,00035,001,2026-01-16_13h00.56.755,MST_test,2024.2.0,59.633350304444136,2026-01-16 13h01.10.936177 +0530,
145,0,146,s,1.1751170000061393,None,146,0,145,525.3773363000073,,,,,,,,,,,,,,,,,,,,,,,,,,,,,,,,,,,,,,,,,,,,,,,,,,525.3614885999996,525.3773363000073,525.8624962000176,525.8729865000059,525.8957278000016,525.8957278000016,525.8957278000016,527.0837670000037,Objects\177b.jpg,mid,s,1.1751170000061393,None,,,,00035,001,2026-01-16_13h00.56.755,MST_test,2024.2.0,59.633350304444136,2026-01-16 13h01.10.936177 +0530,
146,0,147,s,1.1493483999802265,None,147,0,146,527.1001426000148,,,,,,,,,,,,,,,,,,,,,,,,,,,,,,,,,,,,,,,,,,,,,,,,,,527.0838886999991,527.1001426000148,527.585264399997,527.5962102000194,527.6184368999966,527.6184368999966,527.6184368999966,528.7737849999976,Objects\341b.jpg,mid,s,1.1493483999802265,None,,,,00035,001,2026-01-16_13h00.56.755,MST_test,2024.2.0,59.633350304444136,2026-01-16 13h01.10.936177 +0530,
147,0,148,n,1.3008255000167992,None,148,0,147,528.7892512000108,,,,,,,,,,,,,,,,,,,,,,,,,,,,,,,,,,,,,,,,,,,,,,,,,,528.7738817000063,528.7892512000108,529.2744593000098,529.2777946999995,529.2909535000217,529.2909535000217,529.2909535000217,530.5961852000037,Foils\033a.jpg,none,n,1.3008255000167992,None,,,,00035,001,2026-01-16_13h00.56.755,MST_test,2024.2.0,59.633350304444136,2026-01-16 13h01.10.936177 +0530,
148,0,149,n,1.7733568999974523,None,149,0,148,530.6125081000209,,,,,,,,,,,,,,,,,,,,,,,,,,,,,,,,,,,,,,,,,,,,,,,,,,530.5962820000132,530.6125081000209,531.0973716000153,531.1008481000026,531.114121200022,531.114121200022,531.114121200022,532.9043009000015,Foils\017a.jpg,none,n,1.7733568999974523,None,,,,00035,001,2026-01-16_13h00.56.755,MST_test,2024.2.0,59.633350304444136,2026-01-16 13h01.10.936177 +0530,
149,0,150,s,1.0722683000203688,None,150,0,149,532.9204918000032,,,,,,,,,,,,,,,,,,,,,,,,,,,,,,,,,,,,,,,,,,,,,,,,,,532.9043964000011,532.9204918000032,533.4055138000112,533.4213216000062,533.4390509000223,533.4390509000223,533.4390509000223,534.526732600003,Objects\361b.jpg,pre,s,1.0722683000203688,None,,,,00035,001,2026-01-16_13h00.56.755,MST_test,2024.2.0,59.633350304444136,2026-01-16 13h01.10.936177 +0530,
,,,,,,,,,,,,,,,,,,,,,,,,,,,,,,,,,,,,,,,,,,,,,,,,,,,,,,,,,,,,,,,,,,,,,,,,534.5267984000093,534.542832200008,534.542832200008,,,,,,,,
