Sl_no,image_path,thisN,thisTrialN,thisRepN,key_resp_5.keys,key_resp_5.rt,key_resp_5.duration,key_resp_7.keys,key_resp_7.rt,key_resp_7.duration,key_resp_9.keys,key_resp_8.keys,key_resp_8.rt,key_resp_8.duration,key_resp_9.rt,key_resp_9.duration,practice.thisRepN,practice.thisTrialN,practice.thisN,trials.thisRepN,trials.thisTrialN,trials.thisN,thisRow.t,notes,welcome_page.started,text.started,key_resp.started,welcome_page.stopped,key_resp.keys,key_resp.rt,key_resp.duration,instructions.started,ins.started,key_resp_2.started,instructions.stopped,key_resp_2.keys,key_resp_2.rt,key_resp_2.duration,objects_only_instruction.started,text_3.started,key_resp_3.started,objects_only_instruction.stopped,key_resp_3.keys,key_resp_3.rt,key_resp_3.duration,ISI.started,text_4.started,ISI.stopped,practice_block.started,image.started,key_resp_5.started,text_5.started,practice_block.stopped,practice.key_resp_5.keys,practice.key_resp_5.rt,practice.key_resp_5.duration,indoor_outdoor.started,indoor_outdoor.stopped,practice.key_resp_7.keys,text_4.stopped,text_7.started,key_resp_7.started,practice.key_resp_7.rt,practice.key_resp_7.duration,practice_to_main.started,text_2.started,key_resp_4.started,practice_to_main.stopped,key_resp_4.keys,key_resp_4.rt,key_resp_4.duration,objects.started,image_2.started,text_9.started,key_resp_9.started,objects.stopped,category,trials.key_resp_9.keys,encoding_task.started,text_8.started,key_resp_8.started,encoding_task.stopped,trials.key_resp_8.keys,trials.key_resp_8.rt,trials.key_resp_8.duration,trials.key_resp_9.rt,trials.key_resp_9.duration,end_experiment.started,text_6.started,key_resp_6.started,end_experiment.stopped,key_resp_6.keys,key_resp_6.rt,key_resp_6.duration,list_of_stimuli,encoding_task_accuracy,participant,session,date,expName,psychopyVersion,frameRate,expStart,
,,,,,,,,,,,,,,,,,,,,,,,,,0.0012710000155493617,0.0029399000050034374,0.0029399000050034374,6.3063325000111945,space,6.225424700009171,None,,,,,,,,,,,,,,,,,,,,,,,,,,,,,,,,,,,,,,,,,,,,,,,,,,,,,,,,,,,,,,,,,,00048,001,2026-01-18_11h30.21.482,MST_task,2024.2.0,60.274332598779225,2026-01-18 11h30.43.640038 +0530,
,,,,,,,,,,,,,,,,,,,,,,,,,,,,,,,,6.30637510001543,6.3196917999885045,6.3196917999885045,36.36417459999211,space,30.027193899994018,None,,,,,,,,,,,,,,,,,,,,,,,,,,,,,,,,,,,,,,,,,,,,,,,,,,,,,,,,,,,00048,001,2026-01-18_11h30.21.482,MST_task,2024.2.0,60.274332598779225,2026-01-18 11h30.43.640038 +0530,
,,,,,,,,,,,,,,,,,,,,,,,,,,,,,,,,,,,,,,,36.36431989999255,36.384246400004486,36.384246400004486,44.69726939999964,space,8.298697000020184,None,,,,,,,,,,,,,,,,,,,,,,,,,,,,,,,,,,,,,,,,,,,,,,,,,,,,00048,001,2026-01-18_11h30.21.482,MST_task,2024.2.0,60.274332598779225,2026-01-18 11h30.43.640038 +0530,
6,practice_images/158a.jpg,0,0,1,j,2.603665500006173,0.18416189998970367,None,,,,,,,,,1,0,0,,,,44.74374420000822,,,,,,,,,,,,,,,,,,,,,,,44.73844819999067,44.74374420000822,45.21299940001336,45.26389349999954,45.29628030001186,45.29628030001186,45.29628030001186,48.21296179998899,j,2.603665500006173,0.18416189998970367,48.21682810000493,48.21686660000705,None,,,,,,,,,,,,,,,,,,,,,,,,,,,,,,,,,,,,,,00048,001,2026-01-18_11h30.21.482,MST_task,2024.2.0,60.274332598779225,2026-01-18 11h30.43.640038 +0530,
3,practice_images/037a.jpg,1,1,1,None,,,f,0.1949865999922622,None,,,,,,,1,1,1,,,,48.22900479999953,,,,,,,,,,,,,,,,,,,,,,,48.21702159999404,48.22900479999953,48.71337969999877,48.74940619998961,48.75216480001109,48.75216480001109,48.75216480001109,51.72930330000236,None,,,51.7294235000154,51.94806759999483,f,48.75216480001109,51.74568699998781,51.74568699998781,0.1949865999922622,None,,,,,,,,,,,,,,,,,,,,,,,,,,,,,,,,,00048,001,2026-01-18_11h30.21.482,MST_task,2024.2.0,60.274332598779225,2026-01-18 11h30.43.640038 +0530,
10,practice_images/182a.jpg,2,2,1,f,2.6181529999885242,0.21545879999757744,None,,,,,,,,,1,2,2,,,,51.962452100007795,,,,,,,,,,,,,,,,,,,,,,,51.94833000001381,51.962452100007795,52.44697590000578,52.478216599993175,52.481277799990494,52.481277799990494,52.481277799990494,55.462922800012166,f,2.6181529999885242,0.21545879999757744,55.46307880000677,55.463145999994595,None,52.481277799990494,,,,,,,,,,,,,,,,,,,,,,,,,,,,,,,,,,,,,00048,001,2026-01-18_11h30.21.482,MST_task,2024.2.0,60.274332598779225,2026-01-18 11h30.43.640038 +0530,
2,practice_images/031a.jpg,3,3,1,f,1.5405761000001803,0.2564105000055861,None,,,,,,,,,1,3,3,,,,55.4792102999927,,,,,,,,,,,,,,,,,,,,,,,55.46342509999522,55.4792102999927,55.96334879999631,55.98808350000763,55.990906299994094,55.990906299994094,55.990906299994094,58.979573799995705,f,1.5405761000001803,0.2564105000055861,58.97966839998844,58.97970880000503,None,55.990906299994094,,,,,,,,,,,,,,,,,,,,,,,,,,,,,,,,,,,,,00048,001,2026-01-18_11h30.21.482,MST_task,2024.2.0,60.274332598779225,2026-01-18 11h30.43.640038 +0530,
4,practice_images/002b.jpg,4,4,1,f,2.1029650999989826,0.2710046000138391,None,,,,,,,,,1,4,4,,,,58.99573659998714,,,,,,,,,,,,,,,,,,,,,,,58.97991059999913,58.99573659998714,59.48053979998804,59.593731000000844,59.59712240000954,59.59712240000954,59.59712240000954,62.49620429999777,f,2.1029650999989826,0.2710046000138391,62.4963054000109,62.49634640000295,None,59.59712240000954,,,,,,,,,,,,,,,,,,,,,,,,,,,,,,,,,,,,,00048,001,2026-01-18_11h30.21.482,MST_task,2024.2.0,60.274332598779225,2026-01-18 11h30.43.640038 +0530,
9,practice_images/180a.jpg,5,5,1,j,2.4151730999874417,0.19242710000253282,None,,,,,,,,,1,5,5,,,,62.512515999987954,,,,,,,,,,,,,,,,,,,,,,,62.49654319998808,62.512515999987954,62.99691499999608,63.0498695000133,63.05237240000861,63.05237240000861,63.05237240000861,66.01275460000033,j,2.4151730999874417,0.19242710000253282,66.01510590000544,66.01512580001145,None,63.05237240000861,,,,,,,,,,,,,,,,,,,,,,,,,,,,,,,,,,,,,00048,001,2026-01-18_11h30.21.482,MST_task,2024.2.0,60.274332598779225,2026-01-18 11h30.43.640038 +0530,
8,practice_images/178a.jpg,6,6,1,f,1.9991308000171557,0.24066369998035952,None,,,,,,,,,1,6,6,,,,66.02929549998953,,,,,,,,,,,,,,,,,,,,,,,66.01521139999386,66.02929549998953,66.51370979999774,66.54487730000983,66.54802119999658,66.54802119999658,66.54802119999658,69.5296878000081,f,1.9991308000171557,0.24066369998035952,69.52983610000229,69.52990170000703,None,66.54802119999658,,,,,,,,,,,,,,,,,,,,,,,,,,,,,,,,,,,,,00048,001,2026-01-18_11h30.21.482,MST_task,2024.2.0,60.274332598779225,2026-01-18 11h30.43.640038 +0530,
5,practice_images/139a.jpg,7,7,1,None,,,j,0.020395200001075864,None,,,,,,,1,7,7,,,,69.54575330001535,,,,,,,,,,,,,,,,,,,,,,,69.5302001000091,69.54575330001535,70.03041919998941,70.06738729999051,70.07109479999053,70.07109479999053,70.07109479999053,73.04633390001254,None,,,73.0464423999947,73.09750259999419,j,70.07109479999053,73.0627613000106,73.0627613000106,0.020395200001075864,None,,,,,,,,,,,,,,,,,,,,,,,,,,,,,,,,,00048,001,2026-01-18_11h30.21.482,MST_task,2024.2.0,60.274332598779225,2026-01-18 11h30.43.640038 +0530,
7,practice_images/166a.jpg,8,8,1,j,1.9122080999950413,0.16764139998122118,None,,,,,,,,,1,8,8,,,,73.11254540001391,,,,,,,,,,,,,,,,,,,,,,,73.09786330000497,73.11254540001391,73.59698629999184,73.6321930999984,73.63533039999311,73.63533039999311,73.63533039999311,76.61287959999754,j,1.9122080999950413,0.16764139998122118,76.61302129999967,76.61310379998758,None,73.63533039999311,,,,,,,,,,,,,,,,,,,,,,,,,,,,,,,,,,,,,00048,001,2026-01-18_11h30.21.482,MST_task,2024.2.0,60.274332598779225,2026-01-18 11h30.43.640038 +0530,
1,practice_images/013a.jpg,9,9,1,f,1.4183169000025373,0.20002930000191554,None,,,,,,,,,1,9,9,,,,76.62894689998939,,,,,,,,,,,,,,,,,,,,,,,76.61337539998931,76.62894689998939,77.11389589999453,77.15092200000072,77.15364730000147,77.15364730000147,77.15364730000147,80.12946830000146,f,1.4183169000025373,0.20002930000191554,80.12957419999293,80.12961709999945,None,77.15364730000147,,,,,,,,,,,,,,,,,,,,,,,,,,,,,,,,,,,,,00048,001,2026-01-18_11h30.21.482,MST_task,2024.2.0,60.274332598779225,2026-01-18 11h30.43.640038 +0530,
,,,,,,,,,,,,,,,,,,,,,,,,,,,,,,,,,,,,,,,,,,,,,,,,,,,,,,,,,,,,,,,,,80.12976229999913,80.1455469999928,80.1455469999928,91.88073649999569,space,11.722299399989424,None,,,,,,,,,,,,,,,,,,,,,,,,,,00048,001,2026-01-18_11h30.21.482,MST_task,2024.2.0,60.274332598779225,2026-01-18 11h30.43.640038 +0530,
,Objects\237a.jpg,0,0,1,,,,,,,None,j,1.6387164000188932,None,,,,,,1,0,0,91.89593779999996,,,,,,,,,,,,,,,,,,,,,,,91.88295070000459,91.89593779999996,92.38019100000383,,,,,,,,,,,,92.42876370000886,,,,,,,,,,,,92.42448409998906,92.42876370000886,92.42876370000886,92.42876370000886,95.39639489998808,indoor,None,95.40106949998881,95.41256490000524,95.41256490000524,97.06430399999954,j,1.6387164000188932,None,,,,,,,,,,,,00048,001,2026-01-18_11h30.21.482,MST_task,2024.2.0,60.274332598779225,2026-01-18 11h30.43.640038 +0530,
,Objects\037a.jpg,1,0,2,,,,,,,f,None,,,1.5095764999859966,0.2641183999949135,,,,2,0,1,97.0791889000102,,,,,,,,,,,,,,,,,,,,,,,97.06470759998774,97.0791889000102,97.56363930000225,,,,,,,,,,,,97.60569610001403,,,,,,,,,,,,97.60273829998914,97.60569610001403,97.60569610001403,97.60569610001403,100.57966690001194,indoor,f,100.5797925000079,,,100.57983140001306,None,,,1.5095764999859966,0.2641183999949135,,,,,,,,,,00048,001,2026-01-18_11h30.21.482,MST_task,2024.2.0,60.274332598779225,2026-01-18 11h30.43.640038 +0530,
,Objects\287a.jpg,2,0,3,,,,,,,f,None,,,2.2570415000081994,0.18293219999759458,,,,3,0,2,100.59570060000988,,,,,,,,,,,,,,,,,,,,,,,100.58003509999253,100.59570060000988,101.08030870000948,,,,,,,,,,,,101.12275849998696,,,,,,,,,,,,101.11770900001284,101.12275849998696,101.12275849998696,101.12275849998696,104.09617929998785,indoor,f,104.0962875999976,,,104.09632720000809,None,,,2.2570415000081994,0.18293219999759458,,,,,,,,,,00048,001,2026-01-18_11h30.21.482,MST_task,2024.2.0,60.274332598779225,2026-01-18 11h30.43.640038 +0530,
,Objects\086a.jpg,3,0,4,,,,,,,j,None,,,2.7272271999972872,0.19128089997684583,,,,4,0,3,104.11336439999286,,,,,,,,,,,,,,,,,,,,,,,104.09651169998688,104.11336439999286,104.6127206000092,,,,,,,,,,,,,,,,,,,,,,,,104.65767670000787,104.66089980001561,104.66089980001561,104.66089980001561,107.6128553999879,indoor,j,107.61293440000736,,,107.6129585999879,None,,,2.7272271999972872,0.19128089997684583,,,,,,,,,,00048,001,2026-01-18_11h30.21.482,MST_task,2024.2.0,60.274332598779225,2026-01-18 11h30.43.640038 +0530,
,Objects\278a.jpg,4,0,5,,,,,,,f,None,,,1.5778486000199337,0.21683219997794367,,,,5,0,4,107.62916720000794,,,,,,,,,,,,,,,,,,,,,,,107.61308909999207,107.62916720000794,108.11378310000873,,,,,,,,,,,,108.15287339998758,,,,,,,,,,,,108.1497129999916,108.15287339998758,108.15287339998758,108.15287339998758,111.12950549999368,indoor,f,111.12969629999134,,,111.12976320000598,None,,,1.5778486000199337,0.21683219997794367,,,,,,,,,,00048,001,2026-01-18_11h30.21.482,MST_task,2024.2.0,60.274332598779225,2026-01-18 11h30.43.640038 +0530,
,Objects\188a.jpg,5,0,6,,,,,,,f,None,,,2.0310537999903318,0.272542999999132,,,,6,0,5,111.14575490000425,,,,,,,,,,,,,,,,,,,,,,,111.1300576000067,111.14575490000425,111.63024649998988,,,,,,,,,,,,111.66852810001001,,,,,,,,,,,,111.66501520000747,111.66852810001001,111.66852810001001,111.66852810001001,114.6462201999966,indoor,f,114.64640200001304,,,114.64646869999706,None,,,2.0310537999903318,0.272542999999132,,,,,,,,,,00048,001,2026-01-18_11h30.21.482,MST_task,2024.2.0,60.274332598779225,2026-01-18 11h30.43.640038 +0530,
,Objects\262a.jpg,6,0,7,,,,,,,None,f,0.28857370000332594,None,,,,,,7,0,6,114.66236759998719,,,,,,,,,,,,,,,,,,,,,,,114.64678330000606,114.66236759998719,115.14695260001463,,,,,,,,,,,,115.19573619999574,,,,,,,,,,,,115.19241180000245,115.19573619999574,115.19573619999574,115.19573619999574,118.16275610000594,indoor,None,118.16290500000468,118.17900770000415,118.17900770000415,118.48034139999072,f,0.28857370000332594,None,,,,,,,,,,,,00048,001,2026-01-18_11h30.21.482,MST_task,2024.2.0,60.274332598779225,2026-01-18 11h30.43.640038 +0530,
,Objects\077a.jpg,7,0,8,,,,,,,j,None,,,2.1050924000155646,0.18423729998175986,,,,8,0,7,118.4955692999938,,,,,,,,,,,,,,,,,,,,,,,118.48067879999871,118.4955692999938,118.98027590001584,,,,,,,,,,,,119.07457050000085,,,,,,,,,,,,119.07220830000006,119.07457050000085,119.07457050000085,119.07457050000085,121.99628759999177,shoe,j,122.00168710001162,,,122.00174110001535,None,,,2.1050924000155646,0.18423729998175986,,,,,,,,,,00048,001,2026-01-18_11h30.21.482,MST_task,2024.2.0,60.274332598779225,2026-01-18 11h30.43.640038 +0530,
,Objects\084a.jpg,8,0,9,,,,,,,j,None,,,2.342358099995181,0.15116269999998622,,,,9,0,8,122.01249850000022,,,,,,,,,,,,,,,,,,,,,,,122.00198000000091,122.01249850000022,122.49677749999682,,,,,,,,,,,,122.54911429999629,,,,,,,,,,,,122.54542529999162,122.54911429999629,122.54911429999629,122.54911429999629,125.51297159999376,shoe,j,125.51314659998752,,,125.51321269999607,None,,,2.342358099995181,0.15116269999998622,,,,,,,,,,00048,001,2026-01-18_11h30.21.482,MST_task,2024.2.0,60.274332598779225,2026-01-18 11h30.43.640038 +0530,
,Objects\216a.jpg,9,0,10,,,,,,,None,f,0.18194770000991412,None,,,,,,10,0,9,125.52911880001193,,,,,,,,,,,,,,,,,,,,,,,125.51363470000797,125.52911880001193,126.01359240000602,,,,,,,,,,,,126.05553720000898,,,,,,,,,,,,126.05277089998708,126.05553720000898,126.05553720000898,126.05553720000898,129.02946069999598,shoe,None,129.02962350001326,129.04589850001503,129.04589850001503,129.23107509998954,f,0.18194770000991412,None,,,,,,,,,,,,00048,001,2026-01-18_11h30.21.482,MST_task,2024.2.0,60.274332598779225,2026-01-18 11h30.43.640038 +0530,
,Objects\268a.jpg,10,0,11,,,,,,,f,None,,,1.734928999998374,0.20717950002290308,,,,11,0,10,129.2458590999886,,,,,,,,,,,,,,,,,,,,,,,129.23131309999735,129.2458590999886,129.73070740001276,,,,,,,,,,,,129.77305489999708,,,,,,,,,,,,129.77018099999987,129.77305489999708,129.77305489999708,129.77305489999708,132.74636960000498,shoe,f,132.74653820000822,,,132.7465824999963,None,,,1.734928999998374,0.20717950002290308,,,,,,,,,,00048,001,2026-01-18_11h30.21.482,MST_task,2024.2.0,60.274332598779225,2026-01-18 11h30.43.640038 +0530,
,Objects\186a.jpg,11,0,12,,,,,,,f,None,,,1.5833227999974042,0.2003174000128638,,,,12,0,11,132.76247779998812,,,,,,,,,,,,,,,,,,,,,,,132.74679030000698,132.76247779998812,133.24680850000004,,,,,,,,,,,,133.29205290001119,,,,,,,,,,,,133.28789119998692,133.29205290001119,133.29205290001119,133.29205290001119,136.26301270001568,shoe,f,136.2631914000085,,,136.26325879999786,None,,,1.5833227999974042,0.2003174000128638,,,,,,,,,,00048,001,2026-01-18_11h30.21.482,MST_task,2024.2.0,60.274332598779225,2026-01-18 11h30.43.640038 +0530,
,Objects\340a.jpg,12,0,13,,,,,,,None,f,0.24708380000083707,None,,,,,,13,0,12,136.279169299989,,,,,,,,,,,,,,,,,,,,,,,136.26353719999315,136.279169299989,136.76339519998874,,,,,,,,,,,,136.79350339999655,,,,,,,,,,,,136.79068830001052,136.79350339999655,136.79350339999655,136.79350339999655,139.77978449998773,shoe,None,139.77993819999392,139.79578720001155,139.79578720001155,140.04746900001192,f,0.24708380000083707,None,,,,,,,,,,,,00048,001,2026-01-18_11h30.21.482,MST_task,2024.2.0,60.274332598779225,2026-01-18 11h30.43.640038 +0530,
,Objects\270a.jpg,13,0,14,,,,,,,j,None,,,1.7083604999934323,0.18386180000379682,,,,14,0,13,140.06252790000872,,,,,,,,,,,,,,,,,,,,,,,140.04777110001305,140.06252790000872,140.5469110000122,,,,,,,,,,,,140.59114480001153,,,,,,,,,,,,140.58831940000528,140.59114480001153,140.59114480001153,140.59114480001153,143.56284140000935,shoe,j,143.5630189999938,,,143.56308719998924,None,,,1.7083604999934323,0.18386180000379682,,,,,,,,,,00048,001,2026-01-18_11h30.21.482,MST_task,2024.2.0,60.274332598779225,2026-01-18 11h30.43.640038 +0530,
,Objects\207a.jpg,14,0,15,,,,,,,f,None,,,2.180268199997954,0.2390311999770347,,,,15,0,14,143.57902609999292,,,,,,,,,,,,,,,,,,,,,,,143.56333900001482,143.57902609999292,144.0636896000069,,,,,,,,,,,,144.09607989998767,,,,,,,,,,,,144.09326240001246,144.09607989998767,144.09607989998767,144.09607989998767,147.07979779999005,indoor,f,147.08366400000523,,,147.08370270000887,None,,,2.180268199997954,0.2390311999770347,,,,,,,,,,00048,001,2026-01-18_11h30.21.482,MST_task,2024.2.0,60.274332598779225,2026-01-18 11h30.43.640038 +0530,
,Objects\293a.jpg,15,0,16,,,,,,,f,None,,,2.3467628000071272,0.27316710000741296,,,,16,0,15,147.09577000001445,,,,,,,,,,,,,,,,,,,,,,,147.08386179999798,147.09577000001445,147.58049640001263,,,,,,,,,,,,147.62437030000729,,,,,,,,,,,,147.6210313999909,147.62437030000729,147.62437030000729,147.62437030000729,150.5964273000136,indoor,f,150.59660620000795,,,150.59664709999925,None,,,2.3467628000071272,0.27316710000741296,,,,,,,,,,00048,001,2026-01-18_11h30.21.482,MST_task,2024.2.0,60.274332598779225,2026-01-18 11h30.43.640038 +0530,
,Objects\065a.jpg,16,0,17,,,,,,,f,None,,,2.9165681999875233,None,,,,17,0,16,150.61268960000598,,,,,,,,,,,,,,,,,,,,,,,150.5968462000019,150.61268960000598,151.09716820000904,,,,,,,,,,,,151.13552350000828,,,,,,,,,,,,151.13271750000422,151.13552350000828,151.13552350000828,151.13552350000828,154.11316229999647,indoor,f,154.1132714000123,,,154.11331059999065,None,,,2.9165681999875233,None,,,,,,,,,,00048,001,2026-01-18_11h30.21.482,MST_task,2024.2.0,60.274332598779225,2026-01-18 11h30.43.640038 +0530,
,Objects\076a.jpg,17,0,18,,,,,,,j,None,,,1.3683781999861822,0.26409870001953095,,,,18,0,17,154.12937979999697,,,,,,,,,,,,,,,,,,,,,,,154.11349580000388,154.12937979999697,154.61367560000508,,,,,,,,,,,,154.6507672999869,,,,,,,,,,,,154.64716930000577,154.6507672999869,154.6507672999869,154.6507672999869,157.6296231999877,indoor,j,157.62979800000903,,,157.62984710000455,None,,,1.3683781999861822,0.26409870001953095,,,,,,,,,,00048,001,2026-01-18_11h30.21.482,MST_task,2024.2.0,60.274332598779225,2026-01-18 11h30.43.640038 +0530,
,Objects\126a.jpg,18,0,19,,,,,,,j,None,,,2.386012600007234,0.19973100000061095,,,,19,0,18,157.64577319999808,,,,,,,,,,,,,,,,,,,,,,,157.63008229999105,157.64577319999808,158.13010869998834,,,,,,,,,,,,158.19312139999238,,,,,,,,,,,,158.18990880000638,158.19312139999238,158.19312139999238,158.19312139999238,161.14613519998966,indoor,j,161.14633529999992,,,161.14640369999688,None,,,2.386012600007234,0.19973100000061095,,,,,,,,,,00048,001,2026-01-18_11h30.21.482,MST_task,2024.2.0,60.274332598779225,2026-01-18 11h30.43.640038 +0530,
,Objects\071a.jpg,19,0,20,,,,,,,j,None,,,2.037178099999437,0.21620359999360517,,,,20,0,19,161.16248830000404,,,,,,,,,,,,,,,,,,,,,,,161.14661649998743,161.16248830000404,161.64690699998755,,,,,,,,,,,,161.68637469998794,,,,,,,,,,,,161.68250210001133,161.68637469998794,161.68637469998794,161.68637469998794,164.6630623000092,indoor,j,164.6632408000005,,,164.66330740001285,None,,,2.037178099999437,0.21620359999360517,,,,,,,,,,00048,001,2026-01-18_11h30.21.482,MST_task,2024.2.0,60.274332598779225,2026-01-18 11h30.43.640038 +0530,
,Objects\222a.jpg,20,0,21,,,,,,,None,j,0.2640929000044707,None,,,,,,21,0,20,164.67947830000776,,,,,,,,,,,,,,,,,,,,,,,164.6635998999991,164.67947830000776,165.16379399999278,,,,,,,,,,,,165.20321420000982,,,,,,,,,,,,165.2000112000096,165.20321420000982,165.20321420000982,165.20321420000982,168.179587599996,indoor,None,168.17972750001354,168.19588059998932,168.19588059998932,168.46452959999442,j,0.2640929000044707,None,,,,,,,,,,,,00048,001,2026-01-18_11h30.21.482,MST_task,2024.2.0,60.274332598779225,2026-01-18 11h30.43.640038 +0530,
,Objects\107a.jpg,21,0,22,,,,,,,j,None,,,2.158956400002353,0.20025259998510592,,,,22,0,21,168.4791838999954,,,,,,,,,,,,,,,,,,,,,,,168.46493670000928,168.4791838999954,168.96346930001164,,,,,,,,,,,,169.00465340001392,,,,,,,,,,,,169.00158099998953,169.00465340001392,169.00465340001392,169.00465340001392,171.9796076999919,shoe,j,171.98542219999945,,,171.98545919999015,None,,,2.158956400002353,0.20025259998510592,,,,,,,,,,00048,001,2026-01-18_11h30.21.482,MST_task,2024.2.0,60.274332598779225,2026-01-18 11h30.43.640038 +0530,
,Objects\167a.jpg,22,0,23,,,,,,,f,None,,,1.8944567999860737,0.3106967000057921,,,,23,0,22,171.9958142999967,,,,,,,,,,,,,,,,,,,,,,,171.9856742999982,171.9958142999967,172.4805575000064,,,,,,,,,,,,172.52587660000427,,,,,,,,,,,,172.52250779999304,172.52587660000427,172.52587660000427,172.52587660000427,175.4961379999877,shoe,f,175.4962658000004,,,175.49631190000218,None,,,1.8944567999860737,0.3106967000057921,,,,,,,,,,00048,001,2026-01-18_11h30.21.482,MST_task,2024.2.0,60.274332598779225,2026-01-18 11h30.43.640038 +0530,
,Objects\315a.jpg,23,0,24,,,,,,,f,None,,,2.7179249999753665,None,,,,24,0,23,175.51250609999988,,,,,,,,,,,,,,,,,,,,,,,175.49653219999163,175.51250609999988,175.9967988000135,,,,,,,,,,,,176.05400080000982,,,,,,,,,,,,176.0507729999954,176.05400080000982,176.05400080000982,176.05400080000982,178.99654120000196,shoe,f,178.99669590001577,,,178.99674440000672,None,,,2.7179249999753665,None,,,,,,,,,,00048,001,2026-01-18_11h30.21.482,MST_task,2024.2.0,60.274332598779225,2026-01-18 11h30.43.640038 +0530,
,Objects\007a.jpg,24,0,25,,,,,,,None,j,0.3471836000098847,None,,,,,,25,0,24,179.012416499987,,,,,,,,,,,,,,,,,,,,,,,178.9969648999977,179.012416499987,179.49695500000962,,,,,,,,,,,,179.5489794999885,,,,,,,,,,,,179.54401099999086,179.5489794999885,179.5489794999885,179.5489794999885,182.51274569999077,shoe,None,182.51290150001296,182.52909329999238,182.52909329999238,182.88101829998777,j,0.3471836000098847,None,,,,,,,,,,,,00048,001,2026-01-18_11h30.21.482,MST_task,2024.2.0,60.274332598779225,2026-01-18 11h30.43.640038 +0530,
,Objects\311a.jpg,25,0,26,,,,,,,f,None,,,2.506045800022548,0.2559297999832779,,,,26,0,25,182.89594590000343,,,,,,,,,,,,,,,,,,,,,,,182.88139799999772,182.89594590000343,183.38012750001508,,,,,,,,,,,,183.44152960000793,,,,,,,,,,,,183.43812899998738,183.44152960000793,183.44152960000793,183.44152960000793,186.3960778999899,shoe,f,186.39625469999737,,,186.39632160001202,None,,,2.506045800022548,0.2559297999832779,,,,,,,,,,00048,001,2026-01-18_11h30.21.482,MST_task,2024.2.0,60.274332598779225,2026-01-18 11h30.43.640038 +0530,
,Objects\093a.jpg,26,0,27,,,,,,,None,j,0.25893880001967773,None,,,,,,27,0,26,186.4128020000062,,,,,,,,,,,,,,,,,,,,,,,186.39657969999826,186.4128020000062,186.89668320000055,,,,,,,,,,,,186.952753199992,,,,,,,,,,,,186.94950059999246,186.952753199992,186.952753199992,186.952753199992,189.9129011000041,shoe,None,189.91306699998677,189.92911759999697,189.92911759999697,190.19764150000992,j,0.25893880001967773,None,,,,,,,,,,,,00048,001,2026-01-18_11h30.21.482,MST_task,2024.2.0,60.274332598779225,2026-01-18 11h30.43.640038 +0530,
,Objects\123a.jpg,27,0,28,,,,,,,f,None,,,1.6143144000088796,0.22473539999919012,,,,28,0,27,190.2122878000082,,,,,,,,,,,,,,,,,,,,,,,190.19800450000912,190.2122878000082,190.69666829999187,,,,,,,,,,,,190.73285709999618,,,,,,,,,,,,190.72957049999968,190.73285709999618,190.73285709999618,190.73285709999618,193.7129627999966,shoe,f,193.7131301999907,,,193.7131659000006,None,,,1.6143144000088796,0.22473539999919012,,,,,,,,,,00048,001,2026-01-18_11h30.21.482,MST_task,2024.2.0,60.274332598779225,2026-01-18 11h30.43.640038 +0530,
,Objects\024a.jpg,28,0,29,,,,,,,f,None,,,2.295985100005055,0.20746779997716658,,,,29,0,28,193.72938510001404,,,,,,,,,,,,,,,,,,,,,,,193.71333120000781,193.72938510001404,194.2133690000046,,,,,,,,,,,,194.2511877999932,,,,,,,,,,,,194.24788820001413,194.2511877999932,194.2511877999932,194.2511877999932,197.22972740000114,indoor,f,197.2349710999988,,,197.235018700012,None,,,2.295985100005055,0.20746779997716658,,,,,,,,,,00048,001,2026-01-18_11h30.21.482,MST_task,2024.2.0,60.274332598779225,2026-01-18 11h30.43.640038 +0530,
,Objects\121a.jpg,29,0,30,,,,,,,f,None,,,2.5913383000006434,0.2966006000060588,,,,30,0,29,197.2457846000034,,,,,,,,,,,,,,,,,,,,,,,197.2352213000122,197.2457846000034,197.73055430001114,,,,,,,,,,,,197.7640972000081,,,,,,,,,,,,197.76150520000374,197.7640972000081,197.7640972000081,197.7640972000081,200.74606649999623,indoor,f,200.74617020000005,,,200.74620870000217,None,,,2.5913383000006434,0.2966006000060588,,,,,,,,,,00048,001,2026-01-18_11h30.21.482,MST_task,2024.2.0,60.274332598779225,2026-01-18 11h30.43.640038 +0530,
,Objects\352a.jpg,30,0,31,,,,,,,f,None,,,2.2509664999961387,0.3040857000160031,,,,31,0,30,200.7623040000035,,,,,,,,,,,,,,,,,,,,,,,200.74637999999686,200.7623040000035,201.24637529999018,,,,,,,,,,,,,,,,,,,,,,,,201.27639620000264,201.27967869999702,201.27967869999702,201.27967869999702,204.26312230000622,indoor,f,204.26323700000648,,,204.2632750000048,None,,,2.2509664999961387,0.3040857000160031,,,,,,,,,,00048,001,2026-01-18_11h30.21.482,MST_task,2024.2.0,60.274332598779225,2026-01-18 11h30.43.640038 +0530,
,Objects\260a.jpg,31,0,32,,,,,,,None,j,0.30382330002612434,None,,,,,,32,0,31,204.2800142999913,,,,,,,,,,,,,,,,,,,,,,,204.26347330000135,204.2800142999913,204.76341559999855,,,,,,,,,,,,204.80691290000686,,,,,,,,,,,,204.80381519999355,204.80691290000686,204.80691290000686,204.80691290000686,207.77940329999547,indoor,None,207.77950890001375,207.7958343999926,207.7958343999926,208.11461950000376,j,0.30382330002612434,None,,,,,,,,,,,,00048,001,2026-01-18_11h30.21.482,MST_task,2024.2.0,60.274332598779225,2026-01-18 11h30.43.640038 +0530,
,Objects\011a.jpg,32,0,33,,,,,,,None,f,0.25332519999938086,None,,,,,,33,0,32,208.12915029999567,,,,,,,,,,,,,,,,,,,,,,,208.1149054999987,208.12915029999567,208.6133974000113,,,,,,,,,,,,208.65028030000394,,,,,,,,,,,,208.64728309999919,208.65028030000394,208.65028030000394,208.65028030000394,211.62950949999504,indoor,None,211.62966760000563,211.64599119999912,211.64599119999912,211.91431829999783,f,0.25332519999938086,None,,,,,,,,,,,,00048,001,2026-01-18_11h30.21.482,MST_task,2024.2.0,60.274332598779225,2026-01-18 11h30.43.640038 +0530,
,Objects\124a.jpg,33,0,34,,,,,,,None,f,0.2619401999982074,None,,,,,,34,0,33,211.92926720000105,,,,,,,,,,,,,,,,,,,,,,,211.9146166999999,211.92926720000105,212.4134677000111,,,,,,,,,,,,212.46627979999175,,,,,,,,,,,,212.46305399999255,212.46627979999175,212.46627979999175,212.46627979999175,215.42929560001357,indoor,None,215.4293919999909,215.44594100001268,215.44594100001268,215.71422039999743,f,0.2619401999982074,None,,,,,,,,,,,,00048,001,2026-01-18_11h30.21.482,MST_task,2024.2.0,60.274332598779225,2026-01-18 11h30.43.640038 +0530,
,Objects\213a.jpg,34,0,35,,,,,,,None,f,0.21358420001342893,None,,,,,,35,0,34,215.72941349999746,,,,,,,,,,,,,,,,,,,,,,,215.71446220000507,215.72941349999746,216.21377269999357,,,,,,,,,,,,216.2615986999881,,,,,,,,,,,,216.25808170001255,216.2615986999881,216.2615986999881,216.2615986999881,219.2296786000079,indoor,None,219.2298354000086,219.24603899999056,219.24603899999056,219.4641818999953,f,0.21358420001342893,None,,,,,,,,,,,,00048,001,2026-01-18_11h30.21.482,MST_task,2024.2.0,60.274332598779225,2026-01-18 11h30.43.640038 +0530,
,Objects\265a.jpg,35,0,36,,,,,,,None,j,0.34298000001581386,None,,,,,,36,0,35,219.47920840000734,,,,,,,,,,,,,,,,,,,,,,,219.46442840000964,219.47920840000734,219.96373479999602,,,,,,,,,,,,219.999748000002,,,,,,,,,,,,219.99660819998826,219.999748000002,219.999748000002,219.999748000002,222.98063579999143,shoe,None,222.9844557000033,222.99595139999292,222.99595139999292,223.3474710000155,j,0.34298000001581386,None,,,,,,,,,,,,00048,001,2026-01-18_11h30.21.482,MST_task,2024.2.0,60.274332598779225,2026-01-18 11h30.43.640038 +0530,
,Objects\261a.jpg,36,0,37,,,,,,,None,f,0.38052730000345036,None,,,,,,37,0,36,223.36246539998683,,,,,,,,,,,,,,,,,,,,,,,223.34774019999895,223.36246539998683,223.8465995999868,,,,,,,,,,,,223.902840499999,,,,,,,,,,,,223.89972220000345,223.902840499999,223.902840499999,223.902840499999,226.86278049999964,shoe,None,226.8629140999983,226.8790910000098,226.8790910000098,227.26449890001095,f,0.38052730000345036,None,,,,,,,,,,,,00048,001,2026-01-18_11h30.21.482,MST_task,2024.2.0,60.274332598779225,2026-01-18 11h30.43.640038 +0530,
,Objects\248a.jpg,37,0,38,,,,,,,None,f,0.35947859997395426,None,,,,,,38,0,37,227.27901180001209,,,,,,,,,,,,,,,,,,,,,,,227.26476920000277,227.27901180001209,227.76350349999848,,,,,,,,,,,,227.82401350000873,,,,,,,,,,,,227.82017799999448,227.82401350000873,227.82401350000873,227.82401350000873,230.77957489999244,shoe,None,230.77972980000777,230.79579110001214,230.79579110001214,231.16464219999034,f,0.35947859997395426,None,,,,,,,,,,,,00048,001,2026-01-18_11h30.21.482,MST_task,2024.2.0,60.274332598779225,2026-01-18 11h30.43.640038 +0530,
,Objects\058a.jpg,38,0,39,,,,,,,None,f,0.07678820000728592,None,,,,,,39,0,38,231.179074100015,,,,,,,,,,,,,,,,,,,,,,,231.16503450000891,231.179074100015,231.66370939998887,,,,,,,,,,,,231.69741120000253,,,,,,,,,,,,231.6943947999971,231.69741120000253,231.69741120000253,231.69741120000253,234.6794305999938,shoe,None,234.67952649999643,234.69580839999253,234.69580839999253,234.78118890000042,f,0.07678820000728592,None,,,,,,,,,,,,00048,001,2026-01-18_11h30.21.482,MST_task,2024.2.0,60.274332598779225,2026-01-18 11h30.43.640038 +0530,
,Objects\150a.jpg,39,0,40,,,,,,,j,None,,,2.679193399992073,None,,,,40,0,39,234.7961573000066,,,,,,,,,,,,,,,,,,,,,,,234.78158599999733,234.7961573000066,235.28017099999124,,,,,,,,,,,,235.323670999991,,,,,,,,,,,,235.32046940000146,235.323670999991,235.323670999991,235.323670999991,238.29623450001236,shoe,j,238.29633879999164,,,238.2963732999924,None,,,2.679193399992073,None,,,,,,,,,,00048,001,2026-01-18_11h30.21.482,MST_task,2024.2.0,60.274332598779225,2026-01-18 11h30.43.640038 +0530,
,Objects\230a.jpg,40,0,41,,,,,,,None,j,0.24593289999756962,None,,,,,,41,0,40,238.31280909999623,,,,,,,,,,,,,,,,,,,,,,,238.29653079999844,238.31280909999623,238.7967508000147,,,,,,,,,,,,238.84199590000208,,,,,,,,,,,,238.83817619999172,238.84199590000208,238.84199590000208,238.84199590000208,241.8132031999994,shoe,None,241.81336550001288,241.8290532999963,241.8290532999963,242.0808401000104,j,0.24593289999756962,None,,,,,,,,,,,,00048,001,2026-01-18_11h30.21.482,MST_task,2024.2.0,60.274332598779225,2026-01-18 11h30.43.640038 +0530,
,Objects\063a.jpg,41,0,42,,,,,,,f,None,,,2.143183800013503,0.23195079999277368,,,,42,0,41,242.09595399998943,,,,,,,,,,,,,,,,,,,,,,,242.0812617999909,242.09595399998943,242.5801431,,,,,,,,,,,,242.62816520000342,,,,,,,,,,,,242.62467600000673,242.62816520000342,242.62816520000342,242.62816520000342,245.59627010000986,shoe,f,245.59645230000024,,,245.59649779999745,None,,,2.143183800013503,0.23195079999277368,,,,,,,,,,00048,001,2026-01-18_11h30.21.482,MST_task,2024.2.0,60.274332598779225,2026-01-18 11h30.43.640038 +0530,
,Objects\383a.jpg,42,0,43,,,,,,,None,j,1.3373968999949284,None,,,,,,43,0,42,245.61255429999437,,,,,,,,,,,,,,,,,,,,,,,245.59678309998708,245.61255429999437,246.09716410000692,,,,,,,,,,,,246.1529709000024,,,,,,,,,,,,246.14948260001256,246.1529709000024,246.1529709000024,246.1529709000024,249.11278689999017,indoor,None,249.11653020000085,249.12937410001177,249.12937410001177,250.48117760001332,j,1.3373968999949284,None,,,,,,,,,,,,00048,001,2026-01-18_11h30.21.482,MST_task,2024.2.0,60.274332598779225,2026-01-18 11h30.43.640038 +0530,
,Objects\125a.jpg,43,0,44,,,,,,,None,f,0.45530430000508204,None,,,,,,44,0,43,250.49571439999272,,,,,,,,,,,,,,,,,,,,,,,250.48155560001032,250.49571439999272,250.98009369999636,,,,,,,,,,,,251.01280910000787,,,,,,,,,,,,251.00990110001294,251.01280910000787,251.01280910000787,251.01280910000787,253.99624010000844,indoor,None,253.99640150001505,254.0124913000036,254.0124913000036,254.48099410001305,f,0.45530430000508204,None,,,,,,,,,,,,00048,001,2026-01-18_11h30.21.482,MST_task,2024.2.0,60.274332598779225,2026-01-18 11h30.43.640038 +0530,
,Objects\189a.jpg,44,0,45,,,,,,,None,j,0.19950270000845194,None,,,,,,45,0,44,254.49580840001,,,,,,,,,,,,,,,,,,,,,,,254.48137359999237,254.49580840001,254.98019639999256,,,,,,,,,,,,255.02613049998763,,,,,,,,,,,,255.02325890000793,255.02613049998763,255.02613049998763,255.02613049998763,257.9963410999917,indoor,None,257.9964930000133,258.01250899999286,258.01250899999286,258.214605199988,j,0.19950270000845194,None,,,,,,,,,,,,00048,001,2026-01-18_11h30.21.482,MST_task,2024.2.0,60.274332598779225,2026-01-18 11h30.43.640038 +0530,
,Objects\051a.jpg,45,0,46,,,,,,,None,j,0.44217809999827296,None,,,,,,46,0,45,258.2293417000037,,,,,,,,,,,,,,,,,,,,,,,258.2149904000107,258.2293417000037,258.71361440001056,,,,,,,,,,,,258.7524480000138,,,,,,,,,,,,258.7491971999989,258.7524480000138,258.7524480000138,258.7524480000138,261.7297847000009,indoor,None,261.7299394000147,261.7457776000083,261.7457776000083,262.1975296000019,j,0.44217809999827296,None,,,,,,,,,,,,00048,001,2026-01-18_11h30.21.482,MST_task,2024.2.0,60.274332598779225,2026-01-18 11h30.43.640038 +0530,
,Objects\304a.jpg,46,0,47,,,,,,,None,f,0.3145868999999948,None,,,,,,47,0,46,262.21252359999926,,,,,,,,,,,,,,,,,,,,,,,262.1977598000085,262.21252359999926,262.6968854999868,,,,,,,,,,,,262.7372445999936,,,,,,,,,,,,262.7331974999979,262.7372445999936,262.7372445999936,262.7372445999936,265.7130645000143,indoor,None,265.7132230999996,265.72908550000284,265.72908550000284,266.04769500001566,f,0.3145868999999948,None,,,,,,,,,,,,00048,001,2026-01-18_11h30.21.482,MST_task,2024.2.0,60.274332598779225,2026-01-18 11h30.43.640038 +0530,
,Objects\166a.jpg,47,0,48,,,,,,,None,f,0.33527090001734905,None,,,,,,48,0,47,266.06240850000177,,,,,,,,,,,,,,,,,,,,,,,266.048077000014,266.06240850000177,266.54659030001494,,,,,,,,,,,,266.60007029998815,,,,,,,,,,,,266.5964226000069,266.60007029998815,266.60007029998815,266.60007029998815,269.5627941999992,indoor,None,269.56295240001054,269.57931530001224,269.57931530001224,269.93086349999066,f,0.33527090001734905,None,,,,,,,,,,,,00048,001,2026-01-18_11h30.21.482,MST_task,2024.2.0,60.274332598779225,2026-01-18 11h30.43.640038 +0530,
,Objects\215a.jpg,48,0,49,,,,,,,None,f,0.30840539999189787,None,,,,,,49,0,48,269.9457390999887,,,,,,,,,,,,,,,,,,,,,,,269.9310715000029,269.9457390999887,270.4305572999874,,,,,,,,,,,,270.4753488000133,,,,,,,,,,,,270.47248170000967,270.4753488000133,270.4753488000133,270.4753488000133,273.44619439999224,indoor,None,273.4463509999914,273.46253140000044,273.46253140000044,273.78001730001415,f,0.30840539999189787,None,,,,,,,,,,,,00048,001,2026-01-18_11h30.21.482,MST_task,2024.2.0,60.274332598779225,2026-01-18 11h30.43.640038 +0530,
,Objects\161a.jpg,49,0,50,,,,,,,None,f,0.4185364999866579,None,,,,,,50,0,49,273.79578360001324,,,,,,,,,,,,,,,,,,,,,,,273.7801153000037,273.79578360001324,274.2802326999954,,,,,,,,,,,,274.4043107999896,,,,,,,,,,,,274.40129370000795,274.4043107999896,274.4043107999896,274.4043107999896,277.2961217999982,shoe,None,277.29958089999855,277.3124950999918,277.3124950999918,277.74741050001467,f,0.4185364999866579,None,,,,,,,,,,,,00048,001,2026-01-18_11h30.21.482,MST_task,2024.2.0,60.274332598779225,2026-01-18 11h30.43.640038 +0530,
,Objects\020a.jpg,50,0,51,,,,,,,None,f,0.3000387999927625,None,,,,,,51,0,50,277.76251699999557,,,,,,,,,,,,,,,,,,,,,,,277.7476423000044,277.76251699999557,278.246830899996,,,,,,,,,,,,278.2971788000141,,,,,,,,,,,,278.29412949999096,278.2971788000141,278.2971788000141,278.2971788000141,281.26286190000246,shoe,None,281.2629748999898,281.27943830000004,281.27943830000004,281.58175949999713,f,0.3000387999927625,None,,,,,,,,,,,,00048,001,2026-01-18_11h30.21.482,MST_task,2024.2.0,60.274332598779225,2026-01-18 11h30.43.640038 +0530,
,Objects\197a.jpg,51,0,52,,,,,,,None,j,0.32307670000591315,None,,,,,,52,0,51,281.59589009999763,,,,,,,,,,,,,,,,,,,,,,,281.5821597999893,281.59589009999763,282.0803399000142,,,,,,,,,,,,282.1208852000127,,,,,,,,,,,,282.11760060000233,282.1208852000127,282.1208852000127,282.1208852000127,285.09629779998795,shoe,None,285.09644729999127,285.112369200011,285.112369200011,285.4474132999894,j,0.32307670000591315,None,,,,,,,,,,,,00048,001,2026-01-18_11h30.21.482,MST_task,2024.2.0,60.274332598779225,2026-01-18 11h30.43.640038 +0530,
,Objects\110a.jpg,52,0,53,,,,,,,None,f,1.0724889000121038,None,,,,,,53,0,52,285.46260669999174,,,,,,,,,,,,,,,,,,,,,,,285.4479243000096,285.46260669999174,285.9471771999961,,,,,,,,,,,,285.99989720000303,,,,,,,,,,,,285.9969131000107,285.99989720000303,285.99989720000303,285.99989720000303,288.96381690001,shoe,None,288.963975199993,288.9790432000009,288.9790432000009,290.0643248000124,f,1.0724889000121038,None,,,,,,,,,,,,00048,001,2026-01-18_11h30.21.482,MST_task,2024.2.0,60.274332598779225,2026-01-18 11h30.43.640038 +0530,
,Objects\033a.jpg,53,0,54,,,,,,,None,f,0.39182530000107363,None,,,,,,54,0,53,290.0790535999986,,,,,,,,,,,,,,,,,,,,,,,290.0646272000158,290.0790535999986,290.56342280001263,,,,,,,,,,,,290.6079427000077,,,,,,,,,,,,290.60494439999457,290.6079427000077,290.6079427000077,290.6079427000077,293.57944570001564,shoe,None,293.57959780000965,293.5957911000005,293.5957911000005,293.9977429000137,f,0.39182530000107363,None,,,,,,,,,,,,00048,001,2026-01-18_11h30.21.482,MST_task,2024.2.0,60.274332598779225,2026-01-18 11h30.43.640038 +0530,
,Objects\190a.jpg,54,0,55,,,,,,,None,j,0.5149573999806307,None,,,,,,55,0,54,294.01230639999267,,,,,,,,,,,,,,,,,,,,,,,293.99805480000214,294.01230639999267,294.4970092000149,,,,,,,,,,,,294.53138550001313,,,,,,,,,,,,294.5280694999965,294.53138550001313,294.53138550001313,294.53138550001313,297.51282549998723,shoe,None,297.51297859998886,297.528916100011,297.528916100011,298.0476739000005,j,0.5149573999806307,None,,,,,,,,,,,,00048,001,2026-01-18_11h30.21.482,MST_task,2024.2.0,60.274332598779225,2026-01-18 11h30.43.640038 +0530,
,Objects\350a.jpg,55,0,56,,,,,,,None,j,0.3281660000211559,None,,,,,,56,0,55,298.06253090000246,,,,,,,,,,,,,,,,,,,,,,,298.0480594999972,298.06253090000246,298.54690439999104,,,,,,,,,,,,298.6017506000062,,,,,,,,,,,,298.5988559999969,298.6017506000062,298.6017506000062,298.6017506000062,301.56314869999187,shoe,None,301.56326279998757,301.5792049000156,301.5792049000156,301.91423550000763,j,0.3281660000211559,None,,,,,,,,,,,,00048,001,2026-01-18_11h30.21.482,MST_task,2024.2.0,60.274332598779225,2026-01-18 11h30.43.640038 +0530,
,Objects\116a.jpg,56,0,57,,,,,,,j,None,,,2.939160100009758,None,,,,57,0,56,301.9290200000105,,,,,,,,,,,,,,,,,,,,,,,301.91449570000987,301.9290200000105,302.4137345000054,,,,,,,,,,,,302.47266800000216,,,,,,,,,,,,302.4694468000089,302.47266800000216,302.47266800000216,302.47266800000216,305.42959710001014,indoor,j,305.43373620000784,,,305.43379440001445,None,,,2.939160100009758,None,,,,,,,,,,00048,001,2026-01-18_11h30.21.482,MST_task,2024.2.0,60.274332598779225,2026-01-18 11h30.43.640038 +0530,
,Objects\192a.jpg,57,0,58,,,,,,,None,j,0.3761841999948956,None,,,,,,58,0,57,305.445775900007,,,,,,,,,,,,,,,,,,,,,,,305.43404660001397,305.445775900007,305.93035489998874,,,,,,,,,,,,305.96773639999446,,,,,,,,,,,,305.9648307999887,305.96773639999446,305.96773639999446,305.96773639999446,308.94620820001,indoor,None,308.94636070000706,308.9636792000092,308.9636792000092,309.3478494999872,j,0.3761841999948956,None,,,,,,,,,,,,00048,001,2026-01-18_11h30.21.482,MST_task,2024.2.0,60.274332598779225,2026-01-18 11h30.43.640038 +0530,
,Objects\281a.jpg,58,0,59,,,,,,,f,None,,,2.0489069999894127,0.21649290001369081,,,,59,0,58,309.36284469999373,,,,,,,,,,,,,,,,,,,,,,,309.3480968000076,309.36284469999373,309.84712700001546,,,,,,,,,,,,309.89024070001324,,,,,,,,,,,,309.8872049000056,309.89024070001324,309.89024070001324,309.89024070001324,312.86318260000553,indoor,f,312.8633570999955,,,312.8634240000101,None,,,2.0489069999894127,0.21649290001369081,,,,,,,,,,00048,001,2026-01-18_11h30.21.482,MST_task,2024.2.0,60.274332598779225,2026-01-18 11h30.43.640038 +0530,
,Objects\337a.jpg,59,0,60,,,,,,,f,None,,,2.0703049000003375,0.2635557999892626,,,,60,0,59,312.8791657999973,,,,,,,,,,,,,,,,,,,,,,,312.8636492000078,312.8791657999973,313.36353959998814,,,,,,,,,,,,313.39797220000764,,,,,,,,,,,,313.3948068000027,313.39797220000764,313.39797220000764,313.39797220000764,316.3795650000102,indoor,f,316.3797399000032,,,316.3798058000102,None,,,2.0703049000003375,0.2635557999892626,,,,,,,,,,00048,001,2026-01-18_11h30.21.482,MST_task,2024.2.0,60.274332598779225,2026-01-18 11h30.43.640038 +0530,
,Objects\148a.jpg,60,0,61,,,,,,,f,None,,,2.3060545999906026,0.24787469999864697,,,,61,0,60,316.39610109999194,,,,,,,,,,,,,,,,,,,,,,,316.3801375000039,316.39610109999194,316.8803812999977,,,,,,,,,,,,316.92176470000413,,,,,,,,,,,,316.91854479999165,316.92176470000413,316.92176470000413,316.92176470000413,319.8961415000085,indoor,f,319.8962603000109,,,319.89630369999213,None,,,2.3060545999906026,0.24787469999864697,,,,,,,,,,00048,001,2026-01-18_11h30.21.482,MST_task,2024.2.0,60.274332598779225,2026-01-18 11h30.43.640038 +0530,
,Objects\193a.jpg,61,0,62,,,,,,,f,None,,,2.1593043000029866,0.24913819998619147,,,,62,0,61,319.9125026999973,,,,,,,,,,,,,,,,,,,,,,,319.8965101999929,319.9125026999973,320.39688889999525,,,,,,,,,,,,320.4437161000096,,,,,,,,,,,,320.4404918999935,320.4437161000096,320.4437161000096,320.4437161000096,323.3965226,indoor,f,323.3966843000089,,,323.39673420001054,None,,,2.1593043000029866,0.24913819998619147,,,,,,,,,,00048,001,2026-01-18_11h30.21.482,MST_task,2024.2.0,60.274332598779225,2026-01-18 11h30.43.640038 +0530,
,Objects\060a.jpg,62,0,63,,,,,,,f,None,,,0.8711247000028379,0.20009379999828525,,,,63,0,62,323.41246970000793,,,,,,,,,,,,,,,,,,,,,,,323.39698620000854,323.41246970000793,323.89685940000345,,,,,,,,,,,,323.93256700001075,,,,,,,,,,,,323.9292158999888,323.93256700001075,323.93256700001075,323.93256700001075,326.91320060001453,indoor,f,326.91338760001236,,,326.9134536999918,None,,,0.8711247000028379,0.20009379999828525,,,,,,,,,,00048,001,2026-01-18_11h30.21.482,MST_task,2024.2.0,60.274332598779225,2026-01-18 11h30.43.640038 +0530,
,Objects\152a.jpg,63,0,64,,,,,,,None,f,0.14189540001098067,None,,,,,,64,0,63,326.9291396999906,,,,,,,,,,,,,,,,,,,,,,,326.91374849999556,326.9291396999906,327.41354400001,,,,,,,,,,,,327.4622403999965,,,,,,,,,,,,327.459703600005,327.4622403999965,327.4622403999965,327.4622403999965,330.4296553999884,shoe,None,330.4355429999996,330.44593899999745,330.44593899999745,330.5975807000068,f,0.14189540001098067,None,,,,,,,,,,,,00048,001,2026-01-18_11h30.21.482,MST_task,2024.2.0,60.274332598779225,2026-01-18 11h30.43.640038 +0530,
,Objects\212a.jpg,64,0,65,,,,,,,None,j,0.2583900000026915,None,,,,,,65,0,64,330.61257789999945,,,,,,,,,,,,,,,,,,,,,,,330.5979389999993,330.61257789999945,331.0971346999868,,,,,,,,,,,,331.14419140000246,,,,,,,,,,,,331.14114280001377,331.14419140000246,331.14419140000246,331.14419140000246,334.1128689000034,shoe,None,334.1130231000134,334.129144800012,334.129144800012,334.397974099993,j,0.2583900000026915,None,,,,,,,,,,,,00048,001,2026-01-18_11h30.21.482,MST_task,2024.2.0,60.274332598779225,2026-01-18 11h30.43.640038 +0530,
,Objects\042a.jpg,65,0,66,,,,,,,j,None,,,2.059650100010913,0.2164844999788329,,,,66,0,65,334.4125025999965,,,,,,,,,,,,,,,,,,,,,,,334.39835659999517,334.4125025999965,334.89698950000457,,,,,,,,,,,,334.9440333000093,,,,,,,,,,,,334.9389771000133,334.9440333000093,334.9440333000093,334.9440333000093,337.9129482000135,shoe,j,337.91312350000953,,,337.9131919000065,None,,,2.059650100010913,0.2164844999788329,,,,,,,,,,00048,001,2026-01-18_11h30.21.482,MST_task,2024.2.0,60.274332598779225,2026-01-18 11h30.43.640038 +0530,
,Objects\168a.jpg,66,0,67,,,,,,,f,None,,,2.6825245000072755,0.2232386999821756,,,,67,0,66,337.9290789999941,,,,,,,,,,,,,,,,,,,,,,,337.9135035999934,337.9290789999941,338.41351519999444,,,,,,,,,,,,338.4416829000111,,,,,,,,,,,,338.43871039999067,338.4416829000111,338.4416829000111,338.4416829000111,341.42969200000516,shoe,f,341.4298662999936,,,341.4299047999957,None,,,2.6825245000072755,0.2232386999821756,,,,,,,,,,00048,001,2026-01-18_11h30.21.482,MST_task,2024.2.0,60.274332598779225,2026-01-18 11h30.43.640038 +0530,
,Objects\179a.jpg,67,0,68,,,,,,,None,f,0.40113310000742786,None,,,,,,68,0,67,341.445882,,,,,,,,,,,,,,,,,,,,,,,341.4301615000004,341.445882,341.9302807000058,,,,,,,,,,,,341.97546919999877,,,,,,,,,,,,341.97203520001494,341.97546919999877,341.97546919999877,341.97546919999877,344.9462588999886,shoe,None,344.9464106000087,344.96242530000745,344.96242530000745,345.3807989000052,f,0.40113310000742786,None,,,,,,,,,,,,00048,001,2026-01-18_11h30.21.482,MST_task,2024.2.0,60.274332598779225,2026-01-18 11h30.43.640038 +0530,
,Objects\275a.jpg,68,0,69,,,,,,,None,f,0.2662564000056591,None,,,,,,69,0,68,345.3957653999969,,,,,,,,,,,,,,,,,,,,,,,345.3812203000125,345.3957653999969,345.88012710001203,,,,,,,,,,,,345.9342625999998,,,,,,,,,,,,345.9298049999925,345.9342625999998,345.9342625999998,345.9342625999998,348.8963153999939,shoe,None,348.89646610000636,348.91250380000565,348.91250380000565,349.1814006000059,f,0.2662564000056591,None,,,,,,,,,,,,00048,001,2026-01-18_11h30.21.482,MST_task,2024.2.0,60.274332598779225,2026-01-18 11h30.43.640038 +0530,
,Objects\258a.jpg,69,0,70,,,,,,,j,None,,,2.66589470001054,0.21679330000188202,,,,70,0,69,349.1957568000071,,,,,,,,,,,,,,,,,,,,,,,349.1817565000092,349.1957568000071,349.6804005999875,,,,,,,,,,,,349.72099639999215,,,,,,,,,,,,349.7167281000002,349.72099639999215,349.72099639999215,349.72099639999215,352.69705519999843,shoe,j,352.6972112999938,,,352.6972441000107,None,,,2.66589470001054,0.21679330000188202,,,,,,,,,,00048,001,2026-01-18_11h30.21.482,MST_task,2024.2.0,60.274332598779225,2026-01-18 11h30.43.640038 +0530,
,Objects\285a.jpg,70,0,71,,,,,,,f,None,,,2.579389100021217,0.2399829999776557,,,,71,0,70,352.71248740001465,,,,,,,,,,,,,,,,,,,,,,,352.69739980000304,352.71248740001465,353.1966686999949,,,,,,,,,,,,353.24792850000085,,,,,,,,,,,,353.24484470000607,353.24792850000085,353.24792850000085,353.24792850000085,356.21271069999784,indoor,f,356.21594349999214,,,356.2159729000123,None,,,2.579389100021217,0.2399829999776557,,,,,,,,,,00048,001,2026-01-18_11h30.21.482,MST_task,2024.2.0,60.274332598779225,2026-01-18 11h30.43.640038 +0530,
,Objects\005a.jpg,71,0,72,,,,,,,f,None,,,2.4901171999808867,0.20669920000364073,,,,72,0,71,356.22915329999523,,,,,,,,,,,,,,,,,,,,,,,356.2160939000023,356.22915329999523,356.71347389998846,,,,,,,,,,,,356.7537325999874,,,,,,,,,,,,356.75083659999655,356.7537325999874,356.7537325999874,356.7537325999874,359.7296069000149,indoor,f,359.7297779000073,,,359.7298429000075,None,,,2.4901171999808867,0.20669920000364073,,,,,,,,,,00048,001,2026-01-18_11h30.21.482,MST_task,2024.2.0,60.274332598779225,2026-01-18 11h30.43.640038 +0530,
,Objects\257a.jpg,72,0,73,,,,,,,None,f,0.8056109000172,None,,,,,,73,0,72,359.74580150001566,,,,,,,,,,,,,,,,,,,,,,,359.73009759999695,359.74580150001566,360.2302682999871,,,,,,,,,,,,360.26522770000156,,,,,,,,,,,,360.26220940001076,360.26522770000156,360.26522770000156,360.26522770000156,363.24620709999,indoor,None,363.2463556000148,363.2624088000157,363.2624088000157,364.08109809999587,f,0.8056109000172,None,,,,,,,,,,,,00048,001,2026-01-18_11h30.21.482,MST_task,2024.2.0,60.274332598779225,2026-01-18 11h30.43.640038 +0530,
,Objects\242a.jpg,73,0,74,,,,,,,j,None,,,2.2201998999807984,0.17472330000600778,,,,74,0,73,364.0959210000001,,,,,,,,,,,,,,,,,,,,,,,364.0814381999953,364.0959210000001,364.58030150001287,,,,,,,,,,,,364.6238197000057,,,,,,,,,,,,364.6205544999975,364.6238197000057,364.6238197000057,364.6238197000057,367.59621369998786,indoor,j,367.5963914000022,,,367.59645929999533,None,,,2.2201998999807984,0.17472330000600778,,,,,,,,,,00048,001,2026-01-18_11h30.21.482,MST_task,2024.2.0,60.274332598779225,2026-01-18 11h30.43.640038 +0530,
,Objects\202a.jpg,74,0,75,,,,,,,j,None,,,1.3612632000003941,0.23177969999960624,,,,75,0,74,367.6123879000079,,,,,,,,,,,,,,,,,,,,,,,367.5967768999981,367.6123879000079,368.0970879000088,,,,,,,,,,,,368.13758609999786,,,,,,,,,,,,368.1348241000087,368.13758609999786,368.13758609999786,368.13758609999786,371.11295330000576,indoor,j,371.11313000001246,,,371.11317610001424,None,,,1.3612632000003941,0.23177969999960624,,,,,,,,,,00048,001,2026-01-18_11h30.21.482,MST_task,2024.2.0,60.274332598779225,2026-01-18 11h30.43.640038 +0530,
,Objects\145a.jpg,75,0,76,,,,,,,None,j,0.5991709000081755,None,,,,,,76,0,75,371.1291507999995,,,,,,,,,,,,,,,,,,,,,,,371.11339499999303,371.1291507999995,371.6134483999922,,,,,,,,,,,,371.659822799993,,,,,,,,,,,,371.6568898000114,371.659822799993,371.659822799993,371.659822799993,374.613732400001,indoor,None,374.6138368000102,374.62922460000846,374.62922460000846,375.23111600000993,j,0.5991709000081755,None,,,,,,,,,,,,00048,001,2026-01-18_11h30.21.482,MST_task,2024.2.0,60.274332598779225,2026-01-18 11h30.43.640038 +0530,
,Objects\146a.jpg,76,0,77,,,,,,,None,j,0.3933307999977842,None,,,,,,77,0,76,375.24578749999637,,,,,,,,,,,,,,,,,,,,,,,375.23134860000573,375.24578749999637,375.73041349998675,,,,,,,,,,,,375.78881110000657,,,,,,,,,,,,375.7858694999886,375.78881110000657,375.78881110000657,375.78881110000657,378.74652360001346,indoor,None,378.7466892999946,378.76246950001223,378.76246950001223,379.16418319998775,j,0.3933307999977842,None,,,,,,,,,,,,00048,001,2026-01-18_11h30.21.482,MST_task,2024.2.0,60.274332598779225,2026-01-18 11h30.43.640038 +0530,
,Objects\224a.jpg,77,0,78,,,,,,,None,j,0.986730999982683,None,,,,,,78,0,77,379.1792740999954,,,,,,,,,,,,,,,,,,,,,,,379.1645630999992,379.1792740999954,379.66389289998915,,,,,,,,,,,,379.70115569999325,,,,,,,,,,,,379.69749210000737,379.70115569999325,379.70115569999325,379.70115569999325,382.67968530001235,shoe,None,382.6847229000123,382.69581400000607,382.69581400000607,383.697608699993,j,0.986730999982683,None,,,,,,,,,,,,00048,001,2026-01-18_11h30.21.482,MST_task,2024.2.0,60.274332598779225,2026-01-18 11h30.43.640038 +0530,
,Objects\295a.jpg,78,0,79,,,,,,,f,None,,,2.32540929998504,0.24826610001036897,,,,79,0,78,383.71265659999335,,,,,,,,,,,,,,,,,,,,,,,383.6979440000141,383.71265659999335,384.1971005999949,,,,,,,,,,,,384.2373499000096,,,,,,,,,,,,384.2338953000144,384.2373499000096,384.2373499000096,384.2373499000096,387.21291920001386,shoe,f,387.2130889999971,,,387.2131323000067,None,,,2.32540929998504,0.24826610001036897,,,,,,,,,,00048,001,2026-01-18_11h30.21.482,MST_task,2024.2.0,60.274332598779225,2026-01-18 11h30.43.640038 +0530,
,Objects\082a.jpg,79,0,80,,,,,,,j,None,,,1.7728618999826722,0.1680532000027597,,,,80,0,79,387.22914159999345,,,,,,,,,,,,,,,,,,,,,,,387.2134248999937,387.22914159999345,387.7138238000043,,,,,,,,,,,,387.766346599994,,,,,,,,,,,,387.76287949999096,387.766346599994,387.766346599994,387.766346599994,390.7296045999974,shoe,j,390.7297735000029,,,390.72984069999075,None,,,1.7728618999826722,0.1680532000027597,,,,,,,,,,00048,001,2026-01-18_11h30.21.482,MST_task,2024.2.0,60.274332598779225,2026-01-18 11h30.43.640038 +0530,
,Objects\382a.jpg,80,0,81,,,,,,,j,None,,,2.592271300003631,0.19135919999098405,,,,81,0,80,390.7460629999987,,,,,,,,,,,,,,,,,,,,,,,390.7301637000055,390.7460629999987,391.23055889998795,,,,,,,,,,,,391.27526170000783,,,,,,,,,,,,391.2718203999975,391.27526170000783,391.27526170000783,391.27526170000783,394.2466047999915,shoe,j,394.2467941000068,,,394.2468596000108,None,,,2.592271300003631,0.19135919999098405,,,,,,,,,,00048,001,2026-01-18_11h30.21.482,MST_task,2024.2.0,60.274332598779225,2026-01-18 11h30.43.640038 +0530,
,Objects\141a.jpg,81,0,82,,,,,,,None,j,1.1357982000045013,None,,,,,,82,0,81,394.2627266999916,,,,,,,,,,,,,,,,,,,,,,,394.247131799988,394.2627266999916,394.7469218999904,,,,,,,,,,,,394.77607950000674,,,,,,,,,,,,394.7725602000137,394.77607950000674,394.77607950000674,394.77607950000674,397.7629200000083,shoe,None,397.76307929999894,397.7791680000082,397.7791680000082,398.9307384999993,j,1.1357982000045013,None,,,,,,,,,,,,00048,001,2026-01-18_11h30.21.482,MST_task,2024.2.0,60.274332598779225,2026-01-18 11h30.43.640038 +0530,
,Objects\068a.jpg,82,0,83,,,,,,,j,None,,,2.566753399994923,0.19312310000532307,,,,83,0,82,398.9461188999994,,,,,,,,,,,,,,,,,,,,,,,398.9309659000137,398.9461188999994,399.43050210000365,,,,,,,,,,,,399.4678672000009,,,,,,,,,,,,399.4638718999922,399.4678672000009,399.4678672000009,399.4678672000009,402.44630119999056,shoe,j,402.4465227999899,,,402.44659119998687,None,,,2.566753399994923,0.19312310000532307,,,,,,,,,,00048,001,2026-01-18_11h30.21.482,MST_task,2024.2.0,60.274332598779225,2026-01-18 11h30.43.640038 +0530,
,Objects\149a.jpg,83,0,84,,,,,,,j,None,,,2.284202999988338,0.21686449999106117,,,,84,0,83,402.4627871999983,,,,,,,,,,,,,,,,,,,,,,,402.44688520001364,402.4627871999983,402.9468340000021,,,,,,,,,,,,402.9823579000076,,,,,,,,,,,,402.9794245999947,402.9823579000076,402.9823579000076,402.9823579000076,405.9631686999928,shoe,j,405.96334170000046,,,405.96341779999784,None,,,2.284202999988338,0.21686449999106117,,,,,,,,,,00048,001,2026-01-18_11h30.21.482,MST_task,2024.2.0,60.274332598779225,2026-01-18 11h30.43.640038 +0530,
,Objects\357a.jpg,84,0,85,,,,,,,None,j,0.002881099993828684,None,,,,,,85,0,84,405.97932169999694,,,,,,,,,,,,,,,,,,,,,,,405.9636865000066,405.97932169999694,406.4636540999927,,,,,,,,,,,,406.50977510001394,,,,,,,,,,,,406.50715859999764,406.50977510001394,406.50977510001394,406.50977510001394,409.479677299998,indoor,None,409.4848364999925,409.49575289999484,409.49575289999484,409.51461640000343,j,0.002881099993828684,None,,,,,,,,,,,,00048,001,2026-01-18_11h30.21.482,MST_task,2024.2.0,60.274332598779225,2026-01-18 11h30.43.640038 +0530,
,Objects\368a.jpg,85,0,86,,,,,,,j,None,,,2.8073487000074238,None,,,,86,0,85,409.5292262000148,,,,,,,,,,,,,,,,,,,,,,,409.51492529999814,409.5292262000148,410.01365700000315,,,,,,,,,,,,410.05192420000094,,,,,,,,,,,,410.0488551000017,410.05192420000094,410.05192420000094,410.05192420000094,413.0297359999968,indoor,j,413.0299082999991,,,413.0299754999869,None,,,2.8073487000074238,None,,,,,,,,,,00048,001,2026-01-18_11h30.21.482,MST_task,2024.2.0,60.274332598779225,2026-01-18 11h30.43.640038 +0530,
,Objects\369a.jpg,86,0,87,,,,,,,f,None,,,1.4615000000048894,0.24026980000780895,,,,87,0,86,413.0457997999911,,,,,,,,,,,,,,,,,,,,,,,413.0302149000054,413.0457997999911,413.5302110000048,,,,,,,,,,,,413.5735667000117,,,,,,,,,,,,413.56996590000927,413.5735667000117,413.5735667000117,413.5735667000117,416.5462045999884,indoor,f,416.5463812999951,,,416.54644639999606,None,,,1.4615000000048894,0.24026980000780895,,,,,,,,,,00048,001,2026-01-18_11h30.21.482,MST_task,2024.2.0,60.274332598779225,2026-01-18 11h30.43.640038 +0530,
,Objects\162a.jpg,87,0,88,,,,,,,f,None,,,2.066160199989099,0.22387499999604188,,,,88,0,87,416.5625827999902,,,,,,,,,,,,,,,,,,,,,,,416.5467559999961,416.5625827999902,417.0468369000009,,,,,,,,,,,,417.0969932000153,,,,,,,,,,,,417.0938921000052,417.0969932000153,417.0969932000153,417.0969932000153,420.0628832000075,indoor,f,420.0630489999894,,,420.0630919999967,None,,,2.066160199989099,0.22387499999604188,,,,,,,,,,00048,001,2026-01-18_11h30.21.482,MST_task,2024.2.0,60.274332598779225,2026-01-18 11h30.43.640038 +0530,
,Objects\305a.jpg,88,0,89,,,,,,,f,None,,,1.184716899995692,0.26339919999009,,,,89,0,88,420.0794346999901,,,,,,,,,,,,,,,,,,,,,,,420.0632961000083,420.0794346999901,420.5637002000003,,,,,,,,,,,,420.60305470001185,,,,,,,,,,,,420.6002814999956,420.60305470001185,420.60305470001185,420.60305470001185,423.5793818999955,indoor,f,423.57948779998696,,,423.57952659999137,None,,,1.184716899995692,0.26339919999009,,,,,,,,,,00048,001,2026-01-18_11h30.21.482,MST_task,2024.2.0,60.274332598779225,2026-01-18 11h30.43.640038 +0530,
,Objects\370a.jpg,89,0,90,,,,,,,f,None,,,2.3435969999991357,0.2643592999957036,,,,90,0,89,423.5957243000157,,,,,,,,,,,,,,,,,,,,,,,423.57970800000476,423.5957243000157,424.0804453000019,,,,,,,,,,,,424.1400203999947,,,,,,,,,,,,424.13723809999647,424.1400203999947,424.1400203999947,424.1400203999947,427.0796773000038,indoor,f,427.0798586999881,,,427.07992540000123,None,,,2.3435969999991357,0.2643592999957036,,,,,,,,,,00048,001,2026-01-18_11h30.21.482,MST_task,2024.2.0,60.274332598779225,2026-01-18 11h30.43.640038 +0530,
,Objects\026a.jpg,90,0,91,,,,,,,j,None,,,1.859053899999708,0.2157020000158809,,,,91,0,90,427.09590350001235,,,,,,,,,,,,,,,,,,,,,,,427.0801652999944,427.09590350001235,427.58029459998943,,,,,,,,,,,,427.62387650000164,,,,,,,,,,,,427.62040149999666,427.62387650000164,427.62387650000164,427.62387650000164,430.59629570000106,indoor,j,430.59640569999465,,,430.596446200012,None,,,1.859053899999708,0.2157020000158809,,,,,,,,,,00048,001,2026-01-18_11h30.21.482,MST_task,2024.2.0,60.274332598779225,2026-01-18 11h30.43.640038 +0530,
,Objects\299a.jpg,91,0,92,,,,,,,None,f,0.34710779998567887,None,,,,,,92,0,91,430.61284670000896,,,,,,,,,,,,,,,,,,,,,,,430.59664010000415,430.61284670000896,431.0972127999994,,,,,,,,,,,,431.1490659000119,,,,,,,,,,,,431.14612280001165,431.1490659000119,431.1490659000119,431.1490659000119,434.1129222000018,shoe,None,434.1181952999905,434.12914420000743,434.12914420000743,434.48094109998783,f,0.34710779998567887,None,,,,,,,,,,,,00048,001,2026-01-18_11h30.21.482,MST_task,2024.2.0,60.274332598779225,2026-01-18 11h30.43.640038 +0530,
,Objects\269a.jpg,92,0,93,,,,,,,None,j,1.43783209999674,None,,,,,,93,0,92,434.49592730001314,,,,,,,,,,,,,,,,,,,,,,,434.4812138999987,434.49592730001314,434.9804074999993,,,,,,,,,,,,435.0230753000069,,,,,,,,,,,,435.018579399999,435.0230753000069,435.0230753000069,435.0230753000069,437.99606020000647,shoe,None,437.9962147999904,438.0126748000039,438.0126748000039,439.4645281000121,j,1.43783209999674,None,,,,,,,,,,,,00048,001,2026-01-18_11h30.21.482,MST_task,2024.2.0,60.274332598779225,2026-01-18 11h30.43.640038 +0530,
,Objects\072a.jpg,93,0,94,,,,,,,f,None,,,2.6628236999968067,0.21620890000485815,,,,94,0,93,439.4791011000052,,,,,,,,,,,,,,,,,,,,,,,439.46477890000097,439.4791011000052,439.9636290000053,,,,,,,,,,,,440.0203223999997,,,,,,,,,,,,440.0162573000125,440.0203223999997,440.0203223999997,440.0203223999997,442.97955970000476,shoe,f,442.97974189999513,,,442.9798095000151,None,,,2.6628236999968067,0.21620890000485815,,,,,,,,,,00048,001,2026-01-18_11h30.21.482,MST_task,2024.2.0,60.274332598779225,2026-01-18 11h30.43.640038 +0530,
,Objects\196a.jpg,94,0,95,,,,,,,f,None,,,2.6351299000089057,0.24031079999986105,,,,95,0,94,442.99600119999377,,,,,,,,,,,,,,,,,,,,,,,442.9800816999923,442.99600119999377,443.4802411000128,,,,,,,,,,,,443.5281118999992,,,,,,,,,,,,443.52525490001426,443.5281118999992,443.5281118999992,443.5281118999992,446.49669150001137,shoe,f,446.4968172000081,,,446.4968625000038,None,,,2.6351299000089057,0.24031079999986105,,,,,,,,,,00048,001,2026-01-18_11h30.21.482,MST_task,2024.2.0,60.274332598779225,2026-01-18 11h30.43.640038 +0530,
,Objects\091a.jpg,95,0,96,,,,,,,j,None,,,2.2825702999834903,0.1668663000164088,,,,96,0,95,446.51281360001303,,,,,,,,,,,,,,,,,,,,,,,446.49709230000735,446.51281360001303,446.9970761000004,,,,,,,,,,,,447.0328862000024,,,,,,,,,,,,447.0297483000031,447.0328862000024,447.0328862000024,447.0328862000024,450.0132009999943,shoe,j,450.0133730999951,,,450.01343779999297,None,,,2.2825702999834903,0.1668663000164088,,,,,,,,,,00048,001,2026-01-18_11h30.21.482,MST_task,2024.2.0,60.274332598779225,2026-01-18 11h30.43.640038 +0530,
,Objects\002a.jpg,96,0,97,,,,,,,f,None,,,1.536656199983554,0.264860299997963,,,,97,0,96,450.02919900001143,,,,,,,,,,,,,,,,,,,,,,,450.01386239999556,450.02919900001143,450.51385859999573,,,,,,,,,,,,450.55407030001516,,,,,,,,,,,,450.5510695000121,450.55407030001516,450.55407030001516,450.55407030001516,453.5293786000111,shoe,f,453.5295703999873,,,453.5296389000141,None,,,1.536656199983554,0.264860299997963,,,,,,,,,,00048,001,2026-01-18_11h30.21.482,MST_task,2024.2.0,60.274332598779225,2026-01-18 11h30.43.640038 +0530,
,Objects\244a.jpg,97,0,98,,,,,,,f,None,,,2.4253666999866255,0.25570939999306574,,,,98,0,97,453.5458051000023,,,,,,,,,,,,,,,,,,,,,,,453.5300722999964,453.5458051000023,454.03050630001235,,,,,,,,,,,,454.0664070000057,,,,,,,,,,,,454.06327479999163,454.0664070000057,454.0664070000057,454.0664070000057,457.04711210000096,shoe,f,457.04722909998964,,,457.0472727000015,None,,,2.4253666999866255,0.25570939999306574,,,,,,,,,,00048,001,2026-01-18_11h30.21.482,MST_task,2024.2.0,60.274332598779225,2026-01-18 11h30.43.640038 +0530,
,Objects\328a.jpg,98,0,99,,,,,,,j,None,,,2.725447000004351,0.1930078000004869,,,,99,0,98,457.0625954999996,,,,,,,,,,,,,,,,,,,,,,,457.0475002999883,457.0625954999996,457.54712450000807,,,,,,,,,,,,457.58116390000214,,,,,,,,,,,,457.57774320000317,457.58116390000214,457.58116390000214,457.58116390000214,460.5628893999965,indoor,j,460.56784900001367,,,460.5679056000081,None,,,2.725447000004351,0.1930078000004869,,,,,,,,,,00048,001,2026-01-18_11h30.21.482,MST_task,2024.2.0,60.274332598779225,2026-01-18 11h30.43.640038 +0530,
,Objects\259a.jpg,99,0,100,,,,,,,None,f,1.5399118999775965,None,,,,,,100,0,99,460.57928040000843,,,,,,,,,,,,,,,,,,,,,,,460.56818410000415,460.57928040000843,461.06376170000294,,,,,,,,,,,,461.10074140000506,,,,,,,,,,,,461.0973520000116,461.10074140000506,461.10074140000506,461.10074140000506,464.0793885999883,indoor,None,464.07949040000676,464.0959203999955,464.0959203999955,465.64785010000924,f,1.5399118999775965,None,,,,,,,,,,,,00048,001,2026-01-18_11h30.21.482,MST_task,2024.2.0,60.274332598779225,2026-01-18 11h30.43.640038 +0530,
,Objects\336a.jpg,100,0,101,,,,,,,f,None,,,2.5726294000050984,0.2403086999838706,,,,101,0,100,465.66253229998983,,,,,,,,,,,,,,,,,,,,,,,465.6481483000098,465.66253229998983,466.14693439999246,,,,,,,,,,,,466.1979558999883,,,,,,,,,,,,466.19470230001025,466.1979558999883,466.1979558999883,466.1979558999883,469.16297989999293,indoor,f,469.1631553999905,,,469.16322360001504,None,,,2.5726294000050984,0.2403086999838706,,,,,,,,,,00048,001,2026-01-18_11h30.21.482,MST_task,2024.2.0,60.274332598779225,2026-01-18 11h30.43.640038 +0530,
,Objects\210a.jpg,101,0,102,,,,,,,j,None,,,2.1112813999934588,0.2079933000204619,,,,102,0,101,469.1792683000094,,,,,,,,,,,,,,,,,,,,,,,469.1634741000016,469.1792683000094,469.6638566000038,,,,,,,,,,,,469.71578130000853,,,,,,,,,,,,469.71266749998904,469.71578130000853,469.71578130000853,469.71578130000853,472.6794312999991,indoor,j,472.6796047000098,,,472.6796706999885,None,,,2.1112813999934588,0.2079933000204619,,,,,,,,,,00048,001,2026-01-18_11h30.21.482,MST_task,2024.2.0,60.274332598779225,2026-01-18 11h30.43.640038 +0530,
,Objects\223a.jpg,102,0,103,,,,,,,j,None,,,2.0453272000013385,0.16653499999665655,,,,103,0,102,472.6958515000006,,,,,,,,,,,,,,,,,,,,,,,472.67998099999386,472.6958515000006,473.1803340000042,,,,,,,,,,,,473.22289209999144,,,,,,,,,,,,473.2194284000143,473.22289209999144,473.22289209999144,473.22289209999144,476.19636900001206,indoor,j,476.1965166000009,,,476.19655709998915,None,,,2.0453272000013385,0.16653499999665655,,,,,,,,,,00048,001,2026-01-18_11h30.21.482,MST_task,2024.2.0,60.274332598779225,2026-01-18 11h30.43.640038 +0530,
,Objects\208a.jpg,103,0,104,,,,,,,f,None,,,2.2686528000049293,0.23037179998937063,,,,104,0,103,476.21239580001566,,,,,,,,,,,,,,,,,,,,,,,476.1967629000137,476.21239580001566,476.6967227999994,,,,,,,,,,,,476.74412109999685,,,,,,,,,,,,476.74059589998797,476.74412109999685,476.74412109999685,476.74412109999685,479.71278440000606,indoor,f,479.71289799999795,,,479.7129372000054,None,,,2.2686528000049293,0.23037179998937063,,,,,,,,,,00048,001,2026-01-18_11h30.21.482,MST_task,2024.2.0,60.274332598779225,2026-01-18 11h30.43.640038 +0530,
,Objects\132a.jpg,104,0,105,,,,,,,j,None,,,2.544593900005566,0.2708017000113614,,,,105,0,104,479.7292995000025,,,,,,,,,,,,,,,,,,,,,,,479.7131253000116,479.7292995000025,480.21365630000946,,,,,,,,,,,,480.2510668000032,,,,,,,,,,,,480.24811509999563,480.2510668000032,480.2510668000032,480.2510668000032,483.22964510001475,indoor,j,483.22984039998846,,,483.2299045000109,None,,,2.544593900005566,0.2708017000113614,,,,,,,,,,00048,001,2026-01-18_11h30.21.482,MST_task,2024.2.0,60.274332598779225,2026-01-18 11h30.43.640038 +0530,
,Objects\050a.jpg,105,0,106,,,,,,,j,None,,,2.888279300008435,None,,,,106,0,105,483.2459705999936,,,,,,,,,,,,,,,,,,,,,,,483.23018889999366,483.2459705999936,483.73029060001136,,,,,,,,,,,,483.77038130001165,,,,,,,,,,,,483.7677728999988,483.77038130001165,483.77038130001165,483.77038130001165,486.74613419998786,shoe,j,486.75196719999076,,,486.75201039999956,None,,,2.888279300008435,None,,,,,,,,,,00048,001,2026-01-18_11h30.21.482,MST_task,2024.2.0,60.274332598779225,2026-01-18 11h30.43.640038 +0530,
,Objects\108a.jpg,106,0,107,,,,,,,j,None,,,1.6797649999789428,0.15916280000237748,,,,107,0,106,486.7623489999969,,,,,,,,,,,,,,,,,,,,,,,486.75219279999146,486.7623489999969,487.2472165999934,,,,,,,,,,,,487.2914932999993,,,,,,,,,,,,487.28854959999444,487.2914932999993,487.2914932999993,487.2914932999993,490.2633230999927,shoe,j,490.2635006000055,,,490.26356670001405,None,,,1.6797649999789428,0.15916280000237748,,,,,,,,,,00048,001,2026-01-18_11h30.21.482,MST_task,2024.2.0,60.274332598779225,2026-01-18 11h30.43.640038 +0530,
,Objects\094a.jpg,107,0,108,,,,,,,f,None,,,1.4180093000177294,0.24842659998103045,,,,108,0,107,490.279143199994,,,,,,,,,,,,,,,,,,,,,,,490.26391209999565,490.279143199994,490.7635900999885,,,,,,,,,,,,490.8089881000051,,,,,,,,,,,,490.80587909999304,490.8089881000051,490.8089881000051,490.8089881000051,493.7794193000009,shoe,f,493.7795240000123,,,493.7795620000106,None,,,1.4180093000177294,0.24842659998103045,,,,,,,,,,00048,001,2026-01-18_11h30.21.482,MST_task,2024.2.0,60.274332598779225,2026-01-18 11h30.43.640038 +0530,
,Objects\334a.jpg,108,0,109,,,,,,,j,None,,,1.754083499981789,0.20071410000673495,,,,109,0,108,493.795767100004,,,,,,,,,,,,,,,,,,,,,,,493.7798199999961,493.795767100004,494.2803268000134,,,,,,,,,,,,494.3124272999994,,,,,,,,,,,,494.30972369998926,494.3124272999994,494.3124272999994,494.3124272999994,497.2962259000051,shoe,j,497.29640220000874,,,497.2964439000061,None,,,1.754083499981789,0.20071410000673495,,,,,,,,,,00048,001,2026-01-18_11h30.21.482,MST_task,2024.2.0,60.274332598779225,2026-01-18 11h30.43.640038 +0530,
,Objects\355a.jpg,109,0,110,,,,,,,f,None,,,1.6168474000005517,0.2620092999713961,,,,110,0,109,497.312477200001,,,,,,,,,,,,,,,,,,,,,,,497.2966269000026,497.312477200001,497.79687429999467,,,,,,,,,,,,497.8359244999883,,,,,,,,,,,,497.8326951999916,497.8359244999883,497.8359244999883,497.8359244999883,500.81288949999725,shoe,f,500.81307579998975,,,500.81314049998764,None,,,1.6168474000005517,0.2620092999713961,,,,,,,,,,00048,001,2026-01-18_11h30.21.482,MST_task,2024.2.0,60.274332598779225,2026-01-18 11h30.43.640038 +0530,
,Objects\360a.jpg,110,0,111,,,,,,,None,f,0.26503549999324605,None,,,,,,111,0,110,500.8292058999941,,,,,,,,,,,,,,,,,,,,,,,500.81342580000637,500.8292058999941,501.31360960000893,,,,,,,,,,,,501.3415011999896,,,,,,,,,,,,501.33814589999383,501.3415011999896,501.3415011999896,501.3415011999896,504.32960430000094,shoe,None,504.3297534000012,504.3459894999978,504.3459894999978,504.6144628000038,f,0.26503549999324605,None,,,,,,,,,,,,00048,001,2026-01-18_11h30.21.482,MST_task,2024.2.0,60.274332598779225,2026-01-18 11h30.43.640038 +0530,
,Objects\038a.jpg,111,0,112,,,,,,,f,None,,,1.657423500000732,0.21584530000109226,,,,112,0,111,504.6292974000098,,,,,,,,,,,,,,,,,,,,,,,504.61470390000613,504.6292974000098,505.11386839998886,,,,,,,,,,,,505.1544215999893,,,,,,,,,,,,505.1505973000021,505.1544215999893,505.1544215999893,505.1544215999893,508.12958579999395,shoe,f,508.1297612999915,,,508.1298284000077,None,,,1.657423500000732,0.21584530000109226,,,,,,,,,,00048,001,2026-01-18_11h30.21.482,MST_task,2024.2.0,60.274332598779225,2026-01-18 11h30.43.640038 +0530,
,Objects\140a.jpg,112,0,113,,,,,,,j,None,,,2.748596900026314,0.15203999998630024,,,,113,0,112,508.1459380000015,,,,,,,,,,,,,,,,,,,,,,,508.1302684000111,508.1459380000015,508.63049489998957,,,,,,,,,,,,508.68663810001453,,,,,,,,,,,,508.68342980000307,508.68663810001453,508.68663810001453,508.68663810001453,511.64638900000136,indoor,j,511.6511901000049,,,511.6512248000072,None,,,2.748596900026314,0.15203999998630024,,,,,,,,,,00048,001,2026-01-18_11h30.21.482,MST_task,2024.2.0,60.274332598779225,2026-01-18 11h30.43.640038 +0530,
,Objects\354a.jpg,113,0,114,,,,,,,None,f,1.6566638999793213,None,,,,,,114,0,113,511.66249710001284,,,,,,,,,,,,,,,,,,,,,,,511.65137239999603,511.66249710001284,512.1469640000141,,,,,,,,,,,,512.2003637999878,,,,,,,,,,,,512.1974384000059,512.2003637999878,512.2003637999878,512.2003637999878,515.1628649999911,indoor,None,515.1630163000082,515.1791249999951,515.1791249999951,516.8475555999903,f,1.6566638999793213,None,,,,,,,,,,,,00048,001,2026-01-18_11h30.21.482,MST_task,2024.2.0,60.274332598779225,2026-01-18 11h30.43.640038 +0530,
,Objects\040a.jpg,114,0,115,,,,,,,f,None,,,2.0641845000209287,0.19994900000165217,,,,115,0,114,516.8625457999879,,,,,,,,,,,,,,,,,,,,,,,516.8479488000157,516.8625457999879,517.3469481999928,,,,,,,,,,,,517.3795558999991,,,,,,,,,,,,517.3760949000134,517.3795558999991,517.3795558999991,517.3795558999991,520.3630569000088,indoor,f,520.3632271999959,,,520.3632929000014,None,,,2.0641845000209287,0.19994900000165217,,,,,,,,,,00048,001,2026-01-18_11h30.21.482,MST_task,2024.2.0,60.274332598779225,2026-01-18 11h30.43.640038 +0530,
,Objects\019a.jpg,115,0,116,,,,,,,f,None,,,2.093149499996798,0.15979420000803657,,,,116,0,115,520.3794425000087,,,,,,,,,,,,,,,,,,,,,,,520.363605999999,520.3794425000087,520.8640673999907,,,,,,,,,,,,520.9096268000139,,,,,,,,,,,,520.9062744000112,520.9096268000139,520.9096268000139,520.9096268000139,523.8797048999986,indoor,f,523.8798753999872,,,523.8799399000127,None,,,2.093149499996798,0.15979420000803657,,,,,,,,,,00048,001,2026-01-18_11h30.21.482,MST_task,2024.2.0,60.274332598779225,2026-01-18 11h30.43.640038 +0530,
,Objects\183a.jpg,116,0,117,,,,,,,f,None,,,0.878000400000019,0.22432009998010471,,,,117,0,116,523.8957129000046,,,,,,,,,,,,,,,,,,,,,,,523.880237800011,523.8957129000046,524.3801641000027,,,,,,,,,,,,524.421097399987,,,,,,,,,,,,524.4177151999902,524.421097399987,524.421097399987,524.421097399987,527.3963387999975,indoor,f,527.3965023999917,,,527.3965400999878,None,,,0.878000400000019,0.22432009998010471,,,,,,,,,,00048,001,2026-01-18_11h30.21.482,MST_task,2024.2.0,60.274332598779225,2026-01-18 11h30.43.640038 +0530,
,Objects\277a.jpg,117,0,118,,,,,,,None,j,0.874454800010426,None,,,,,,118,0,117,527.4124684999988,,,,,,,,,,,,,,,,,,,,,,,527.3967212999996,527.4124684999988,527.8967860999983,,,,,,,,,,,,527.94646929999,,,,,,,,,,,,527.943050300004,527.94646929999,527.94646929999,527.94646929999,530.9128192999924,indoor,None,530.9129567999917,530.9290621000109,530.9290621000109,531.8145947000012,j,0.874454800010426,None,,,,,,,,,,,,00048,001,2026-01-18_11h30.21.482,MST_task,2024.2.0,60.274332598779225,2026-01-18 11h30.43.640038 +0530,
,Objects\225a.jpg,118,0,119,,,,,,,f,None,,,2.504799099988304,0.223156200023368,,,,119,0,118,531.8291842000035,,,,,,,,,,,,,,,,,,,,,,,531.8149895000097,531.8291842000035,532.3134943000041,,,,,,,,,,,,532.3471586999949,,,,,,,,,,,,532.3439714999986,532.3471586999949,532.3471586999949,532.3471586999949,535.3298805000086,indoor,f,535.3300557000039,,,535.3301213000086,None,,,2.504799099988304,0.223156200023368,,,,,,,,,,00048,001,2026-01-18_11h30.21.482,MST_task,2024.2.0,60.274332598779225,2026-01-18 11h30.43.640038 +0530,
,Objects\122a.jpg,119,0,120,,,,,,,f,None,,,2.792363899992779,None,,,,120,0,119,535.3461347999983,,,,,,,,,,,,,,,,,,,,,,,535.3304371999984,535.3461347999983,535.8303333999938,,,,,,,,,,,,535.8747753000061,,,,,,,,,,,,535.8715500000108,535.8747753000061,535.8747753000061,535.8747753000061,538.8304853000154,shoe,f,538.8364444999897,,,538.8364933000121,None,,,2.792363899992779,None,,,,,,,,,,00048,001,2026-01-18_11h30.21.482,MST_task,2024.2.0,60.274332598779225,2026-01-18 11h30.43.640038 +0530,
,Objects\356a.jpg,120,0,121,,,,,,,None,f,0.22492069998406805,None,,,,,,121,0,120,538.8462258999934,,,,,,,,,,,,,,,,,,,,,,,538.8366880000103,538.8462258999934,539.3305969999928,,,,,,,,,,,,539.3770339000039,,,,,,,,,,,,539.3743536999973,539.3770339000039,539.3770339000039,539.3770339000039,542.3463395000144,shoe,None,542.3464417000068,542.3624229000125,542.3624229000125,542.5975945999962,f,0.22492069998406805,None,,,,,,,,,,,,00048,001,2026-01-18_11h30.21.482,MST_task,2024.2.0,60.274332598779225,2026-01-18 11h30.43.640038 +0530,
,Objects\128a.jpg,121,0,122,,,,,,,f,None,,,2.351022800023202,0.1923176999844145,,,,122,0,121,542.6125513000006,,,,,,,,,,,,,,,,,,,,,,,542.5979808999982,542.6125513000006,543.0970583999879,,,,,,,,,,,,543.1324821999879,,,,,,,,,,,,543.129647099995,543.1324821999879,543.1324821999879,543.1324821999879,546.1130327999999,shoe,f,546.1132292000111,,,546.1132977000088,None,,,2.351022800023202,0.1923176999844145,,,,,,,,,,00048,001,2026-01-18_11h30.21.482,MST_task,2024.2.0,60.274332598779225,2026-01-18 11h30.43.640038 +0530,
,Objects\156a.jpg,122,0,123,,,,,,,f,None,,,2.821302600001218,None,,,,123,0,122,546.1291710000078,,,,,,,,,,,,,,,,,,,,,,,546.1135941999964,546.1291710000078,546.6131625999988,,,,,,,,,,,,546.6694997999875,,,,,,,,,,,,546.6663530000078,546.6694997999875,546.6694997999875,546.6694997999875,549.6296242999961,shoe,f,549.629814999993,,,549.629898299987,None,,,2.821302600001218,None,,,,,,,,,,00048,001,2026-01-18_11h30.21.482,MST_task,2024.2.0,60.274332598779225,2026-01-18 11h30.43.640038 +0530,
,Objects\358a.jpg,123,0,124,,,,,,,f,None,,,2.4621663999860175,0.21623359998920932,,,,124,0,123,549.6458497999993,,,,,,,,,,,,,,,,,,,,,,,549.6301207999932,549.6458497999993,550.1302078000153,,,,,,,,,,,,550.1812167000026,,,,,,,,,,,,550.1779792000016,550.1812167000026,550.1812167000026,550.1812167000026,553.1459337999986,shoe,f,553.1460749999969,,,553.1461241999932,None,,,2.4621663999860175,0.21623359998920932,,,,,,,,,,00048,001,2026-01-18_11h30.21.482,MST_task,2024.2.0,60.274332598779225,2026-01-18 11h30.43.640038 +0530,
,Objects\323a.jpg,124,0,125,,,,,,,f,None,,,2.8244931000226643,None,,,,125,0,124,553.1627623999957,,,,,,,,,,,,,,,,,,,,,,,553.1463638000132,553.1627623999957,553.6467580999888,,,,,,,,,,,,553.6822391999885,,,,,,,,,,,,553.6787680000125,553.6822391999885,553.6822391999885,553.6822391999885,556.6626052999927,shoe,f,556.6627772999927,,,556.662837300013,None,,,2.8244931000226643,None,,,,,,,,,,00048,001,2026-01-18_11h30.21.482,MST_task,2024.2.0,60.274332598779225,2026-01-18 11h30.43.640038 +0530,
,Objects\313a.jpg,125,0,126,,,,,,,None,f,0.2633207000035327,None,,,,,,126,0,125,556.6788286000083,,,,,,,,,,,,,,,,,,,,,,,556.6630257999932,556.6788286000083,557.1631788999948,,,,,,,,,,,,557.2610435000097,,,,,,,,,,,,557.2581629999913,557.2610435000097,557.2610435000097,557.2610435000097,560.1632643000048,shoe,None,560.1634182000125,560.1793943000084,560.1793943000084,560.4477862000058,f,0.2633207000035327,None,,,,,,,,,,,,00048,001,2026-01-18_11h30.21.482,MST_task,2024.2.0,60.274332598779225,2026-01-18 11h30.43.640038 +0530,
,Objects\131a.jpg,126,0,127,,,,,,,None,j,0.6165936000179499,None,,,,,,127,0,126,560.4626288000145,,,,,,,,,,,,,,,,,,,,,,,560.4481005000125,560.4626288000145,560.9470001000154,,,,,,,,,,,,560.9949763999903,,,,,,,,,,,,560.9915660000115,560.9949763999903,560.9949763999903,560.9949763999903,563.9628264000057,indoor,None,563.9671929999895,563.979061399994,563.979061399994,564.5978197999939,j,0.6165936000179499,None,,,,,,,,,,,,00048,001,2026-01-18_11h30.21.482,MST_task,2024.2.0,60.274332598779225,2026-01-18 11h30.43.640038 +0530,
,Objects\363a.jpg,127,0,128,,,,,,,f,None,,,2.314842399995541,0.24016469999332912,,,,128,0,127,564.6125063000072,,,,,,,,,,,,,,,,,,,,,,,564.5981396000134,564.6125063000072,565.0967707000091,,,,,,,,,,,,565.135678199993,,,,,,,,,,,,565.132689799997,565.135678199993,565.135678199993,565.135678199993,568.1127681999933,indoor,f,568.1128945999953,,,568.1129430000146,None,,,2.314842399995541,0.24016469999332912,,,,,,,,,,00048,001,2026-01-18_11h30.21.482,MST_task,2024.2.0,60.274332598779225,2026-01-18 11h30.43.640038 +0530,
,Objects\085a.jpg,128,0,129,,,,,,,None,f,2.252577300008852,None,,,,,,129,0,128,568.1292826000135,,,,,,,,,,,,,,,,,,,,,,,568.1131631000026,568.1292826000135,568.613494499994,,,,,,,,,,,,568.663799300004,,,,,,,,,,,,568.6604338999896,568.663799300004,568.663799300004,568.663799300004,571.6293911999965,indoor,None,571.629482999997,571.6459368999931,571.6459368999931,573.9141061000118,f,2.252577300008852,None,,,,,,,,,,,,00048,001,2026-01-18_11h30.21.482,MST_task,2024.2.0,60.274332598779225,2026-01-18 11h30.43.640038 +0530,
,Objects\047a.jpg,129,0,130,,,,,,,None,f,0.725667099992279,None,,,,,,130,0,129,573.9291293999995,,,,,,,,,,,,,,,,,,,,,,,573.9144583999878,573.9291293999995,574.413555200008,,,,,,,,,,,,574.4462936999917,,,,,,,,,,,,574.4430401000136,574.4462936999917,574.4462936999917,574.4462936999917,577.4295110999956,indoor,None,577.4296662000124,577.4459680000145,577.4459680000145,578.1811564000091,f,0.725667099992279,None,,,,,,,,,,,,00048,001,2026-01-18_11h30.21.482,MST_task,2024.2.0,60.274332598779225,2026-01-18 11h30.43.640038 +0530,
,Objects\234a.jpg,130,0,131,,,,,,,None,j,0.523107799992431,None,,,,,,131,0,130,578.1958327000029,,,,,,,,,,,,,,,,,,,,,,,578.1814922000049,578.1958327000029,578.680446399987,,,,,,,,,,,,578.7119164000032,,,,,,,,,,,,578.7088876999915,578.7119164000032,578.7119164000032,578.7119164000032,581.6960635000141,indoor,None,581.6961566999962,581.7126075999986,581.7126075999986,582.2479340000136,j,0.523107799992431,None,,,,,,,,,,,,00048,001,2026-01-18_11h30.21.482,MST_task,2024.2.0,60.274332598779225,2026-01-18 11h30.43.640038 +0530,
,Objects\049a.jpg,131,0,132,,,,,,,None,f,0.3437405000149738,None,,,,,,132,0,131,582.2626612999884,,,,,,,,,,,,,,,,,,,,,,,582.2482727000024,582.2626612999884,582.7473249000032,,,,,,,,,,,,582.7886136999878,,,,,,,,,,,,582.7855460999999,582.7886136999878,582.7886136999878,582.7886136999878,585.7628071999934,indoor,None,585.7629444999911,585.7788708999869,585.7788708999869,586.1297790000099,f,0.3437405000149738,None,,,,,,,,,,,,00048,001,2026-01-18_11h30.21.482,MST_task,2024.2.0,60.274332598779225,2026-01-18 11h30.43.640038 +0530,
,Objects\226a.jpg,132,0,133,,,,,,,None,f,0.27657580000231974,None,,,,,,133,0,132,586.145477300015,,,,,,,,,,,,,,,,,,,,,,,586.1298856000067,586.145477300015,586.6294197000097,,,,,,,,,,,,586.670237000013,,,,,,,,,,,,586.667282200011,586.670237000013,586.670237000013,586.670237000013,589.6462494000152,indoor,None,589.6463992999925,589.6625605000008,589.6625605000008,589.9474330999947,f,0.27657580000231974,None,,,,,,,,,,,,00048,001,2026-01-18_11h30.21.482,MST_task,2024.2.0,60.274332598779225,2026-01-18 11h30.43.640038 +0530,
,Objects\335a.jpg,133,0,134,,,,,,,None,j,0.8600336999807041,None,,,,,,134,0,133,589.9625540999987,,,,,,,,,,,,,,,,,,,,,,,589.9476420000137,589.9625540999987,590.4470860000001,,,,,,,,,,,,590.4791481000138,,,,,,,,,,,,590.4760260999901,590.4791481000138,590.4791481000138,590.4791481000138,593.4629099000013,shoe,None,593.4669264999975,593.4790760999895,593.4790760999895,594.3477052999951,j,0.8600336999807041,None,,,,,,,,,,,,00048,001,2026-01-18_11h30.21.482,MST_task,2024.2.0,60.274332598779225,2026-01-18 11h30.43.640038 +0530,
,Objects\103a.jpg,134,0,135,,,,,,,j,None,,,1.689854899974307,0.19170300001860596,,,,135,0,134,594.3626198999991,,,,,,,,,,,,,,,,,,,,,,,594.3482249999943,594.3626198999991,594.8468089000089,,,,,,,,,,,,594.8981987000152,,,,,,,,,,,,594.8947725000035,594.8981987000152,594.8981987000152,594.8981987000152,597.8630073000095,shoe,j,597.8631904000067,,,597.8632601000136,None,,,1.689854899974307,0.19170300001860596,,,,,,,,,,00048,001,2026-01-18_11h30.21.482,MST_task,2024.2.0,60.274332598779225,2026-01-18 11h30.43.640038 +0530,
,Objects\301a.jpg,135,0,136,,,,,,,None,j,1.2552914000116289,None,,,,,,136,0,135,597.879170900007,,,,,,,,,,,,,,,,,,,,,,,597.8636915000097,597.879170900007,598.3636986000056,,,,,,,,,,,,598.397091699997,,,,,,,,,,,,598.3935655000096,598.397091699997,598.397091699997,598.397091699997,601.3798364000104,shoe,None,601.3800019999908,601.3960044000123,601.3960044000123,602.6640471999999,j,1.2552914000116289,None,,,,,,,,,,,,00048,001,2026-01-18_11h30.21.482,MST_task,2024.2.0,60.274332598779225,2026-01-18 11h30.43.640038 +0530,
,Objects\353a.jpg,136,0,137,,,,,,,f,None,,,1.3421799000061583,0.2163163000077475,,,,137,0,136,602.6791778999905,,,,,,,,,,,,,,,,,,,,,,,602.6643011000124,602.6791778999905,603.1634538999933,,,,,,,,,,,,603.1974228000036,,,,,,,,,,,,603.1946391999954,603.1974228000036,603.1974228000036,603.1974228000036,606.179750500014,shoe,f,606.179925000004,,,606.1799919999903,None,,,1.3421799000061583,0.2163163000077475,,,,,,,,,,00048,001,2026-01-18_11h30.21.482,MST_task,2024.2.0,60.274332598779225,2026-01-18 11h30.43.640038 +0530,
,Objects\198a.jpg,137,0,138,,,,,,,f,None,,,1.3014381999964826,0.20020610000938177,,,,138,0,137,606.1958774999948,,,,,,,,,,,,,,,,,,,,,,,606.1802907999954,606.1958774999948,606.6803267000068,,,,,,,,,,,,606.7176369999943,,,,,,,,,,,,606.713916800014,606.7176369999943,606.7176369999943,606.7176369999943,609.6959658999986,shoe,f,609.69607179999,,,609.6961093000136,None,,,1.3014381999964826,0.20020610000938177,,,,,,,,,,00048,001,2026-01-18_11h30.21.482,MST_task,2024.2.0,60.274332598779225,2026-01-18 11h30.43.640038 +0530,
,Objects\238a.jpg,138,0,139,,,,,,,None,f,0.6947015000041574,None,,,,,,139,0,138,609.712618199992,,,,,,,,,,,,,,,,,,,,,,,609.6962539000087,609.712618199992,610.1968661000137,,,,,,,,,,,,610.2378874999995,,,,,,,,,,,,610.2349957000115,610.2378874999995,610.2378874999995,610.2378874999995,613.1969261000049,shoe,None,613.197047499998,613.2126519000158,613.2126519000158,613.9141209000081,f,0.6947015000041574,None,,,,,,,,,,,,00048,001,2026-01-18_11h30.21.482,MST_task,2024.2.0,60.274332598779225,2026-01-18 11h30.43.640038 +0530,
,Objects\151a.jpg,139,0,140,,,,,,,f,None,,,0.8384698999871034,0.1999974999926053,,,,140,0,139,613.929160300002,,,,,,,,,,,,,,,,,,,,,,,613.9143632999912,613.929160300002,614.4136984999932,,,,,,,,,,,,614.4769324999943,,,,,,,,,,,,614.4735027000133,614.4769324999943,614.4769324999943,614.4769324999943,617.4295107999933,shoe,f,617.4296876000008,,,617.4297553999932,None,,,0.8384698999871034,0.1999974999926053,,,,,,,,,,00048,001,2026-01-18_11h30.21.482,MST_task,2024.2.0,60.274332598779225,2026-01-18 11h30.43.640038 +0530,
,Objects\344a.jpg,140,0,141,,,,,,,f,None,,,2.465416600025492,0.19113439999637194,,,,141,0,140,617.4460402000113,,,,,,,,,,,,,,,,,,,,,,,617.4300701000029,617.4460402000113,617.9301562999899,,,,,,,,,,,,617.9626793999923,,,,,,,,,,,,617.9594047999999,617.9626793999923,617.9626793999923,617.9626793999923,620.9464983000071,indoor,f,620.9500390999892,,,620.9500782999967,None,,,2.465416600025492,0.19113439999637194,,,,,,,,,,00048,001,2026-01-18_11h30.21.482,MST_task,2024.2.0,60.274332598779225,2026-01-18 11h30.43.640038 +0530,
,Objects\092a.jpg,141,0,142,,,,,,,f,None,,,2.648733700014418,0.1452655000030063,,,,142,0,141,620.9625454999914,,,,,,,,,,,,,,,,,,,,,,,620.9502020000073,620.9625454999914,621.4471491000149,,,,,,,,,,,,621.4975668000116,,,,,,,,,,,,621.4942417000129,621.4975668000116,621.4975668000116,621.4975668000116,624.462932800001,indoor,f,624.4630579999939,,,624.4631039999949,None,,,2.648733700014418,0.1452655000030063,,,,,,,,,,00048,001,2026-01-18_11h30.21.482,MST_task,2024.2.0,60.274332598779225,2026-01-18 11h30.43.640038 +0530,
,Objects\171a.jpg,142,0,143,,,,,,,f,None,,,0.9234763999993447,0.17645190001348965,,,,143,0,142,624.4794261000061,,,,,,,,,,,,,,,,,,,,,,,624.4633207000152,624.4794261000061,624.9635850999912,,,,,,,,,,,,625.0068553999881,,,,,,,,,,,,625.0038419000048,625.0068553999881,625.0068553999881,625.0068553999881,627.9794671999989,indoor,f,627.979594000004,,,627.9796403000073,None,,,0.9234763999993447,0.17645190001348965,,,,,,,,,,00048,001,2026-01-18_11h30.21.482,MST_task,2024.2.0,60.274332598779225,2026-01-18 11h30.43.640038 +0530,
,Objects\144a.jpg,143,0,144,,,,,,,f,None,,,1.7687165999959689,0.24794229998951778,,,,144,0,143,627.996072000009,,,,,,,,,,,,,,,,,,,,,,,627.9798782000144,627.996072000009,628.4797613999981,,,,,,,,,,,,,,,,,,,,,,,,628.5353484000079,628.5380029999942,628.5380029999942,628.5380029999942,631.4961231999914,indoor,f,631.4962934000068,,,631.4963557000156,None,,,1.7687165999959689,0.24794229998951778,,,,,,,,,,00048,001,2026-01-18_11h30.21.482,MST_task,2024.2.0,60.274332598779225,2026-01-18 11h30.43.640038 +0530,
,Objects\175a.jpg,144,0,145,,,,,,,f,None,,,1.2714454000233673,0.20025289998739026,,,,145,0,144,631.512809900014,,,,,,,,,,,,,,,,,,,,,,,631.4966702999955,631.512809900014,631.9967906000093,,,,,,,,,,,,632.0519831000129,,,,,,,,,,,,632.0487805000157,632.0519831000129,632.0519831000129,632.0519831000129,635.012842600001,indoor,f,635.0129477999872,,,635.0129857000138,None,,,1.2714454000233673,0.20025289998739026,,,,,,,,,,00048,001,2026-01-18_11h30.21.482,MST_task,2024.2.0,60.274332598779225,2026-01-18 11h30.43.640038 +0530,
,Objects\211a.jpg,145,0,146,,,,,,,None,f,0.2260037999949418,None,,,,,,146,0,145,635.0292788000079,,,,,,,,,,,,,,,,,,,,,,,635.0131724000094,635.0292788000079,635.5135042000038,,,,,,,,,,,,635.5597613000136,,,,,,,,,,,,635.5568619999976,635.5597613000136,635.5597613000136,635.5597613000136,638.5296009000158,indoor,None,638.529749999987,638.545789900003,638.545789900003,638.7812149999954,f,0.2260037999949418,None,,,,,,,,,,,,00048,001,2026-01-18_11h30.21.482,MST_task,2024.2.0,60.274332598779225,2026-01-18 11h30.43.640038 +0530,
,Objects\280a.jpg,146,0,147,,,,,,,f,None,,,1.540154700021958,0.22263329999987036,,,,147,0,146,638.7961261000019,,,,,,,,,,,,,,,,,,,,,,,638.7814317999873,638.7961261000019,639.2804035000154,,,,,,,,,,,,639.3195660999918,,,,,,,,,,,,639.3168369999912,639.3195660999918,639.3195660999918,639.3195660999918,642.2963723000139,indoor,f,642.2965395000065,,,642.2965904000157,None,,,1.540154700021958,0.22263329999987036,,,,,,,,,,00048,001,2026-01-18_11h30.21.482,MST_task,2024.2.0,60.274332598779225,2026-01-18 11h30.43.640038 +0530,
,Objects\043a.jpg,147,0,148,,,,,,,None,f,0.5260313999897335,None,,,,,,148,0,147,642.3124723999936,,,,,,,,,,,,,,,,,,,,,,,642.29682280001,642.3124723999936,642.7973001000064,,,,,,,,,,,,642.9170035000134,,,,,,,,,,,,642.9136976000154,642.9170035000134,642.9170035000134,642.9170035000134,645.8129408000095,shoe,None,645.8169052000158,645.8290861000132,645.8290861000132,646.3645512000076,f,0.5260313999897335,None,,,,,,,,,,,,00048,001,2026-01-18_11h30.21.482,MST_task,2024.2.0,60.274332598779225,2026-01-18 11h30.43.640038 +0530,
,Objects\001a.jpg,148,0,149,,,,,,,None,f,0.7148693999915849,None,,,,,,149,0,148,646.3791713000101,,,,,,,,,,,,,,,,,,,,,,,646.3649502999906,646.3791713000101,646.8637165999971,,,,,,,,,,,,646.9167236000067,,,,,,,,,,,,646.9128859000048,646.9167236000067,646.9167236000067,646.9167236000067,649.8793150999991,shoe,None,649.8794410999981,649.895511300012,649.895511300012,650.6131212000037,f,0.7148693999915849,None,,,,,,,,,,,,00048,001,2026-01-18_11h30.21.482,MST_task,2024.2.0,60.274332598779225,2026-01-18 11h30.43.640038 +0530,
,Objects\201a.jpg,149,0,150,,,,,,,None,f,0.44969060001312755,None,,,,,,150,0,149,650.6288877000043,,,,,,,,,,,,,,,,,,,,,,,650.6132426999975,650.6288877000043,651.1130019999982,,,,,,,,,,,,651.1501500000013,,,,,,,,,,,,651.1461265000107,651.1501500000013,651.1501500000013,651.1501500000013,654.1296143000072,shoe,None,654.1297671000066,654.1458798999956,654.1458798999956,654.5981328999915,f,0.44969060001312755,None,,,,,,,,,,,,00048,001,2026-01-18_11h30.21.482,MST_task,2024.2.0,60.274332598779225,2026-01-18 11h30.43.640038 +0530,
,Objects\184a.jpg,150,0,151,,,,,,,None,j,0.4100414999993518,None,,,,,,151,0,150,654.6124616999878,,,,,,,,,,,,,,,,,,,,,,,654.5984696999949,654.6124616999878,655.0971616999886,,,,,,,,,,,,655.1346649999905,,,,,,,,,,,,655.1303727999912,655.1346649999905,655.1346649999905,655.1346649999905,658.1128257999953,shoe,None,658.1129381000064,658.1291397000023,658.1291397000023,658.5472859000147,j,0.4100414999993518,None,,,,,,,,,,,,00048,001,2026-01-18_11h30.21.482,MST_task,2024.2.0,60.274332598779225,2026-01-18 11h30.43.640038 +0530,
,Objects\155a.jpg,151,0,152,,,,,,,None,f,0.3883145999861881,None,,,,,,152,0,151,658.5626429000113,,,,,,,,,,,,,,,,,,,,,,,658.5476121999964,658.5626429000113,659.0471391000028,,,,,,,,,,,,659.0949290000135,,,,,,,,,,,,659.0916173000005,659.0949290000135,659.0949290000135,659.0949290000135,662.0630137000117,shoe,None,662.0631229999999,662.0790455999959,662.0790455999959,662.4810953999986,f,0.3883145999861881,None,,,,,,,,,,,,00048,001,2026-01-18_11h30.21.482,MST_task,2024.2.0,60.274332598779225,2026-01-18 11h30.43.640038 +0530,
,Objects\073a.jpg,152,0,153,,,,,,,None,f,0.37429949999204837,None,,,,,,153,0,152,662.4960960999888,,,,,,,,,,,,,,,,,,,,,,,662.4813779999968,662.4960960999888,662.9799090999877,,,,,,,,,,,,663.0198716000014,,,,,,,,,,,,663.0163527000113,663.0198716000014,663.0198716000014,663.0198716000014,665.9966839000117,shoe,None,665.9967350999941,666.012741100014,666.012741100014,666.3977225999988,f,0.37429949999204837,None,,,,,,,,,,,,00048,001,2026-01-18_11h30.21.482,MST_task,2024.2.0,60.274332598779225,2026-01-18 11h30.43.640038 +0530,
,Objects\220a.jpg,153,0,154,,,,,,,None,f,0.38515459999325685,None,,,,,,154,0,153,666.4126407000003,,,,,,,,,,,,,,,,,,,,,,,666.3982636000146,666.4126407000003,666.8969959999959,,,,,,,,,,,,666.9338736000063,,,,,,,,,,,,666.9302151000011,666.9338736000063,666.9338736000063,666.9338736000063,669.9131605000002,shoe,None,669.9133094999997,669.9295282000094,669.9295282000094,670.3315434000106,f,0.38515459999325685,None,,,,,,,,,,,,00048,001,2026-01-18_11h30.21.482,MST_task,2024.2.0,60.274332598779225,2026-01-18 11h30.43.640038 +0530,
,Objects\096a.jpg,154,0,155,,,,,,,None,f,0.3557986000087112,None,,,,,,155,0,154,670.3458333000017,,,,,,,,,,,,,,,,,,,,,,,670.3318358999968,670.3458333000017,670.8306060000032,,,,,,,,,,,,670.8719120000023,,,,,,,,,,,,670.868809800013,670.8719120000023,670.8719120000023,670.8719120000023,673.8464323999942,indoor,None,673.8509656999959,673.8627038999985,673.8627038999985,674.230924500007,f,0.3557986000087112,None,,,,,,,,,,,,00048,001,2026-01-18_11h30.21.482,MST_task,2024.2.0,60.274332598779225,2026-01-18 11h30.43.640038 +0530,
,Objects\177a.jpg,155,0,156,,,,,,,None,j,1.1598770999989938,None,,,,,,156,0,155,674.2460736999928,,,,,,,,,,,,,,,,,,,,,,,674.2312617000134,674.2460736999928,674.7303991999943,,,,,,,,,,,,674.768410699995,,,,,,,,,,,,674.7652577999979,674.768410699995,674.768410699995,674.768410699995,677.747276500013,indoor,None,677.747406200011,677.7633799999894,677.7633799999894,678.9311388999922,j,1.1598770999989938,None,,,,,,,,,,,,00048,001,2026-01-18_11h30.21.482,MST_task,2024.2.0,60.274332598779225,2026-01-18 11h30.43.640038 +0530,
,Objects\338a.jpg,156,0,157,,,,,,,None,f,0.5882028999913018,None,,,,,,157,0,156,678.9458631000016,,,,,,,,,,,,,,,,,,,,,,,678.9315370999975,678.9458631000016,679.4303942999977,,,,,,,,,,,,679.5034338000114,,,,,,,,,,,,679.5002465000143,679.5034338000114,679.5034338000114,679.5034338000114,682.4463387000142,indoor,None,682.446460200008,682.462502600014,682.462502600014,683.0643012000073,f,0.5882028999913018,None,,,,,,,,,,,,00048,001,2026-01-18_11h30.21.482,MST_task,2024.2.0,60.274332598779225,2026-01-18 11h30.43.640038 +0530,
,Objects\310a.jpg,157,0,158,,,,,,,None,j,0.6305743999837432,None,,,,,,158,0,157,683.0791414999985,,,,,,,,,,,,,,,,,,,,,,,683.0646120999882,683.0791414999985,683.5645653000101,,,,,,,,,,,,683.6089958999946,,,,,,,,,,,,683.605539000011,683.6089958999946,683.6089958999946,683.6089958999946,686.579482000001,indoor,None,686.5796325000119,686.5959589999984,686.5959589999984,687.2311260999995,j,0.6305743999837432,None,,,,,,,,,,,,00048,001,2026-01-18_11h30.21.482,MST_task,2024.2.0,60.274332598779225,2026-01-18 11h30.43.640038 +0530,
,Objects\143a.jpg,158,0,159,,,,,,,None,j,1.168846400018083,None,,,,,,159,0,158,687.245745799999,,,,,,,,,,,,,,,,,,,,,,,687.2314219000109,687.245745799999,687.7299479999929,,,,,,,,,,,,687.7697901999927,,,,,,,,,,,,687.7657160999952,687.7697901999927,687.7697901999927,687.7697901999927,690.7463213000156,indoor,None,690.746476100001,690.7623811000085,690.7623811000085,691.9474380000029,j,1.168846400018083,None,,,,,,,,,,,,00048,001,2026-01-18_11h30.21.482,MST_task,2024.2.0,60.274332598779225,2026-01-18 11h30.43.640038 +0530,
,Objects\160a.jpg,159,0,160,,,,,,,None,j,1.0197892999858595,None,,,,,,160,0,159,691.9628116000094,,,,,,,,,,,,,,,,,,,,,,,691.9477501999936,691.9628116000094,692.4469391999883,,,,,,,,,,,,692.4981011000054,,,,,,,,,,,,692.4948975000007,692.4981011000054,692.4981011000054,692.4981011000054,695.462933200004,indoor,None,695.463107699994,695.4791848000023,695.4791848000023,696.5145580999961,j,1.0197892999858595,None,,,,,,,,,,,,00048,001,2026-01-18_11h30.21.482,MST_task,2024.2.0,60.274332598779225,2026-01-18 11h30.43.640038 +0530,
,Objects\056a.jpg,160,0,161,,,,,,,None,f,0.5579412000079174,None,,,,,,161,0,160,696.529223199992,,,,,,,,,,,,,,,,,,,,,,,696.5148077000049,696.529223199992,697.0135588000121,,,,,,,,,,,,697.0555811999948,,,,,,,,,,,,697.0522555999923,697.0555811999948,697.0555811999948,697.0555811999948,700.0294016000116,indoor,None,700.0295698000118,700.045850399998,700.045850399998,700.6143655999913,f,0.5579412000079174,None,,,,,,,,,,,,00048,001,2026-01-18_11h30.21.482,MST_task,2024.2.0,60.274332598779225,2026-01-18 11h30.43.640038 +0530,
,Objects\232a.jpg,161,0,162,,,,,,,f,None,,,2.567752200004179,0.23280820000218228,,,,162,0,161,700.629197000002,,,,,,,,,,,,,,,,,,,,,,,700.6146493999986,700.629197000002,701.1135045000119,,,,,,,,,,,,701.1625224000018,,,,,,,,,,,,701.1588838000025,701.1625224000018,701.1625224000018,701.1625224000018,704.1299987999955,shoe,f,704.1342580000055,,,704.1342883000034,None,,,2.567752200004179,0.23280820000218228,,,,,,,,,,00048,001,2026-01-18_11h30.21.482,MST_task,2024.2.0,60.274332598779225,2026-01-18 11h30.43.640038 +0530,
,Objects\088a.jpg,162,0,163,,,,,,,None,j,0.7644851000222843,None,,,,,,163,0,162,704.145726399991,,,,,,,,,,,,,,,,,,,,,,,704.1344141000009,704.145726399991,704.6301693000132,,,,,,,,,,,,704.6718939999992,,,,,,,,,,,,704.6686322999885,704.6718939999992,704.6718939999992,704.6718939999992,707.6461577999871,shoe,None,707.6463270999957,707.6626333000022,707.6626333000022,708.4309455000039,j,0.7644851000222843,None,,,,,,,,,,,,00048,001,2026-01-18_11h30.21.482,MST_task,2024.2.0,60.274332598779225,2026-01-18 11h30.43.640038 +0530,
,Objects\089a.jpg,163,0,164,,,,,,,None,j,1.2967072000028566,None,,,,,,164,0,163,708.4456773000129,,,,,,,,,,,,,,,,,,,,,,,708.4313510000065,708.4456773000129,708.9302654000057,,,,,,,,,,,,708.9798503000056,,,,,,,,,,,,708.9770399999979,708.9798503000056,708.9798503000056,708.9798503000056,711.9463618999871,shoe,None,711.9465092000028,711.9625268999953,711.9625268999953,713.264618199988,j,1.2967072000028566,None,,,,,,,,,,,,00048,001,2026-01-18_11h30.21.482,MST_task,2024.2.0,60.274332598779225,2026-01-18 11h30.43.640038 +0530,
,Objects\307a.jpg,164,0,165,,,,,,,None,j,0.3278483999893069,None,,,,,,165,0,164,713.2792689999915,,,,,,,,,,,,,,,,,,,,,,,713.2650326000003,713.2792689999915,713.7636788999953,,,,,,,,,,,,713.8105649999925,,,,,,,,,,,,713.8065815000155,713.8105649999925,713.8105649999925,713.8105649999925,716.779529499996,shoe,None,716.7796371000004,716.796010799997,716.796010799997,717.1309340999869,j,0.3278483999893069,None,,,,,,,,,,,,00048,001,2026-01-18_11h30.21.482,MST_task,2024.2.0,60.274332598779225,2026-01-18 11h30.43.640038 +0530,
,Objects\142a.jpg,165,0,166,,,,,,,None,f,0.4203136999858543,None,,,,,,166,0,165,717.1461559000018,,,,,,,,,,,,,,,,,,,,,,,717.1312447999953,717.1461559000018,717.6303046999965,,,,,,,,,,,,717.6780688000144,,,,,,,,,,,,717.6748878000071,717.6780688000144,717.6780688000144,717.6780688000144,720.6463243000035,shoe,None,720.6464791999897,720.6624187999987,720.6624187999987,721.0979225999909,f,0.4203136999858543,None,,,,,,,,,,,,00048,001,2026-01-18_11h30.21.482,MST_task,2024.2.0,60.274332598779225,2026-01-18 11h30.43.640038 +0530,
,Objects\080a.jpg,166,0,167,,,,,,,None,f,0.2697263000009116,None,,,,,,167,0,166,721.1123996000097,,,,,,,,,,,,,,,,,,,,,,,721.0984156999912,721.1123996000097,721.5973080999975,,,,,,,,,,,,721.6437338000105,,,,,,,,,,,,721.6401527000125,721.6437338000105,721.6437338000105,721.6437338000105,724.6128589000145,shoe,None,724.6130076000118,724.629507900012,724.629507900012,724.9141132000077,f,0.2697263000009116,None,,,,,,,,,,,,00048,001,2026-01-18_11h30.21.482,MST_task,2024.2.0,60.274332598779225,2026-01-18 11h30.43.640038 +0530,
,Objects\045a.jpg,167,0,168,,,,,,,None,j,0.41255579999415204,None,,,,,,168,0,167,724.9291048999876,,,,,,,,,,,,,,,,,,,,,,,724.9143931000144,724.9291048999876,725.4135595000116,,,,,,,,,,,,725.4675648999983,,,,,,,,,,,,725.4646087000147,725.4675648999983,725.4675648999983,725.4675648999983,728.4295478000131,shoe,None,728.4297076000075,728.4460324000102,728.4460324000102,728.8640570999996,j,0.41255579999415204,None,,,,,,,,,,,,00048,001,2026-01-18_11h30.21.482,MST_task,2024.2.0,60.274332598779225,2026-01-18 11h30.43.640038 +0530,
,Objects\319a.jpg,168,0,169,,,,,,,None,f,0.4239077999955043,None,,,,,,169,0,168,728.8791373000131,,,,,,,,,,,,,,,,,,,,,,,728.8645484000153,728.8791373000131,729.363428200013,,,,,,,,,,,,729.4192186,,,,,,,,,,,,729.4158280999982,729.4192186,729.4192186,729.4192186,732.3797418999893,indoor,None,732.3850550999923,732.39579889999,732.39579889999,732.83143749999,f,0.4239077999955043,None,,,,,,,,,,,,00048,001,2026-01-18_11h30.21.482,MST_task,2024.2.0,60.274332598779225,2026-01-18 11h30.43.640038 +0530,
,Objects\061a.jpg,169,0,170,,,,,,,None,j,2.248394800000824,None,,,,,,170,0,169,732.845776800008,,,,,,,,,,,,,,,,,,,,,,,732.831806000002,732.845776800008,733.3302337999921,,,,,,,,,,,,733.3650113999902,,,,,,,,,,,,733.3615513000113,733.3650113999902,733.3650113999902,733.3650113999902,736.3462664000108,indoor,None,736.3464410000015,736.3628231000039,736.3628231000039,738.6142452000058,j,2.248394800000824,None,,,,,,,,,,,,00048,001,2026-01-18_11h30.21.482,MST_task,2024.2.0,60.274332598779225,2026-01-18 11h30.43.640038 +0530,
,Objects\180a.jpg,170,0,171,,,,,,,None,f,0.6092552999907639,None,,,,,,171,0,170,738.629077199992,,,,,,,,,,,,,,,,,,,,,,,738.6144664000021,738.629077199992,739.1136522000015,,,,,,,,,,,,739.1597044999944,,,,,,,,,,,,739.1565256000031,739.1597044999944,739.1597044999944,739.1597044999944,742.1295287999965,indoor,None,742.1296798000112,742.1458293999895,742.1458293999895,742.7646400000085,f,0.6092552999907639,None,,,,,,,,,,,,00048,001,2026-01-18_11h30.21.482,MST_task,2024.2.0,60.274332598779225,2026-01-18 11h30.43.640038 +0530,
,Objects\218a.jpg,171,0,172,,,,,,,None,j,1.5798082000110298,None,,,,,,172,0,171,742.7792009999976,,,,,,,,,,,,,,,,,,,,,,,742.7648966000124,742.7792009999976,743.2635746999877,,,,,,,,,,,,743.3135282000003,,,,,,,,,,,,743.3106374999916,743.3135282000003,743.3135282000003,743.3135282000003,746.2797220000066,indoor,None,746.2798798000149,746.2959537999996,746.2959537999996,747.8812202000117,j,1.5798082000110298,None,,,,,,,,,,,,00048,001,2026-01-18_11h30.21.482,MST_task,2024.2.0,60.274332598779225,2026-01-18 11h30.43.640038 +0530,
,Objects\365a.jpg,172,0,173,,,,,,,None,f,1.7673920999804977,None,,,,,,173,0,172,747.8957949999894,,,,,,,,,,,,,,,,,,,,,,,747.8815172000031,747.8957949999894,748.3801126999897,,,,,,,,,,,,748.4252625000081,,,,,,,,,,,,748.4221390000021,748.4252625000081,748.4252625000081,748.4252625000081,751.3963065000135,indoor,None,751.3964196000015,751.4124452999968,751.4124452999968,753.1820377999975,f,1.7673920999804977,None,,,,,,,,,,,,00048,001,2026-01-18_11h30.21.482,MST_task,2024.2.0,60.274332598779225,2026-01-18 11h30.43.640038 +0530,
,Objects\112a.jpg,173,0,174,,,,,,,None,f,0.25884599998244084,None,,,,,,174,0,173,753.1957710999995,,,,,,,,,,,,,,,,,,,,,,,753.1822806000127,753.1957710999995,753.6812106000143,,,,,,,,,,,,753.7313557000016,,,,,,,,,,,,753.7276346000144,753.7313557000016,753.7313557000016,753.7313557000016,756.6962201000133,indoor,None,756.6963596999994,756.7125903000124,756.7125903000124,756.9809065000154,f,0.25884599998244084,None,,,,,,,,,,,,00048,001,2026-01-18_11h30.21.482,MST_task,2024.2.0,60.274332598779225,2026-01-18 11h30.43.640038 +0530,
