Sl_no,image_path,thisN,thisTrialN,thisRepN,key_resp_5.keys,key_resp_5.rt,key_resp_5.duration,key_resp_7.keys,key_resp_9.keys,key_resp_8.keys,key_resp_8.rt,key_resp_8.duration,key_resp_9.rt,key_resp_9.duration,practice.thisRepN,practice.thisTrialN,practice.thisN,trials.thisRepN,trials.thisTrialN,trials.thisN,thisRow.t,notes,welcome_page.started,text.started,key_resp.started,welcome_page.stopped,key_resp.keys,key_resp.rt,key_resp.duration,instructions.started,ins.started,key_resp_2.started,instructions.stopped,key_resp_2.keys,key_resp_2.rt,key_resp_2.duration,objects_only_instruction.started,text_3.started,key_resp_3.started,objects_only_instruction.stopped,key_resp_3.keys,key_resp_3.rt,key_resp_3.duration,ISI.started,text_4.started,ISI.stopped,practice_block.started,image.started,key_resp_5.started,text_5.started,practice_block.stopped,practice.key_resp_5.keys,practice.key_resp_5.rt,practice.key_resp_5.duration,indoor_outdoor.started,indoor_outdoor.stopped,practice.key_resp_7.keys,text_4.stopped,practice_to_main.started,text_2.started,key_resp_4.started,practice_to_main.stopped,key_resp_4.keys,key_resp_4.rt,key_resp_4.duration,objects.started,image_2.started,text_9.started,key_resp_9.started,objects.stopped,category,trials.key_resp_9.keys,encoding_task.started,text_8.started,key_resp_8.started,encoding_task.stopped,trials.key_resp_8.keys,trials.key_resp_8.rt,trials.key_resp_8.duration,trials.key_resp_9.rt,trials.key_resp_9.duration,end_experiment.started,text_6.started,key_resp_6.started,participant,session,date,expName,psychopyVersion,frameRate,expStart,
,,,,,,,,,,,,,,,,,,,,,,,0.014521600009175017,0.03116569999838248,0.03116569999838248,17.14559610001743,space,17.09670449999976,None,,,,,,,,,,,,,,,,,,,,,,,,,,,,,,,,,,,,,,,,,,,,,,,,,,,,,,,,00035,001,2026-01-16_12h36.17.636,MST_task,2024.2.0,59.79652437939091,2026-01-16 12h36.43.949042 +0530,
,,,,,,,,,,,,,,,,,,,,,,,,,,,,,,17.145630100014387,17.176187700009905,17.176187700009905,39.3380306000181,space,22.150540600006934,None,,,,,,,,,,,,,,,,,,,,,,,,,,,,,,,,,,,,,,,,,,,,,,,,,00035,001,2026-01-16_12h36.17.636,MST_task,2024.2.0,59.79652437939091,2026-01-16 12h36.43.949042 +0530,
,,,,,,,,,,,,,,,,,,,,,,,,,,,,,,,,,,,,,39.3380689000187,39.3536260999972,39.3536260999972,48.05187759999535,space,8.692600999987917,None,,,,,,,,,,,,,,,,,,,,,,,,,,,,,,,,,,,,,,,,,,00035,001,2026-01-16_12h36.17.636,MST_task,2024.2.0,59.79652437939091,2026-01-16 12h36.43.949042 +0530,
9,practice_images/180a.jpg,0,0,1,f,1.8118935000093188,0.09595349998562597,None,,,,,,,1,0,0,,,,48.13515410001855,,,,,,,,,,,,,,,,,,,,,,,48.11469200000283,48.13515410001855,48.55297889999929,48.57211890001781,48.58628889999818,48.58628889999818,48.58628889999818,51.56346500001382,f,1.8118935000093188,0.09595349998562597,51.565269400016405,51.56528720000642,None,,,,,,,,,,,,,,,,,,,,,,,,,,,,00035,001,2026-01-16_12h36.17.636,MST_task,2024.2.0,59.79652437939091,2026-01-16 12h36.43.949042 +0530,
2,practice_images/031a.jpg,1,1,1,f,1.0605841999931727,0.09527270001126453,None,,,,,,,1,1,1,,,,51.5800150000141,,,,,,,,,,,,,,,,,,,,,,,51.565359900007024,51.5800150000141,52.06568870000774,52.07824510001228,52.09849619999295,52.09849619999295,52.09849619999295,55.075278300006175,f,1.0605841999931727,0.09527270001126453,55.07533439999679,55.075347900012275,None,52.09849619999295,,,,,,,,,,,,,,,,,,,,,,,,,,,00035,001,2026-01-16_12h36.17.636,MST_task,2024.2.0,59.79652437939091,2026-01-16 12h36.43.949042 +0530,
10,practice_images/182a.jpg,2,2,1,f,0.6521538000088185,0.10398610000265762,None,,,,,,,1,2,2,,,,55.09214069999871,,,,,,,,,,,,,,,,,,,,,,,55.07541809999384,55.09214069999871,55.57711169999675,55.5887972000055,55.61057140000048,55.61057140000048,55.61057140000048,58.587694400019245,f,0.6521538000088185,0.10398610000265762,58.58773130000918,58.58774300001096,None,,,,,,,,,,,,,,,,,,,,,,,,,,,,00035,001,2026-01-16_12h36.17.636,MST_task,2024.2.0,59.79652437939091,2026-01-16 12h36.43.949042 +0530,
7,practice_images/166a.jpg,3,3,1,f,0.8841330999857746,0.11935980000998825,None,,,,,,,1,3,3,,,,58.604284600005485,,,,,,,,,,,,,,,,,,,,,,,58.58782320001046,58.604284600005485,59.08961769999587,59.099382999993395,59.12287880000076,59.12287880000076,59.12287880000076,62.09992370000691,f,0.8841330999857746,0.11935980000998825,62.0999747000169,62.0999866000202,None,,,,,,,,,,,,,,,,,,,,,,,,,,,,00035,001,2026-01-16_12h36.17.636,MST_task,2024.2.0,59.79652437939091,2026-01-16 12h36.43.949042 +0530,
3,practice_images/037a.jpg,4,4,1,j,1.739775499998359,0.1519962000020314,None,,,,,,,1,4,4,,,,62.116729800007306,,,,,,,,,,,,,,,,,,,,,,,62.10005569999339,62.116729800007306,62.60170420000213,62.61172660000739,62.63518120002118,62.63518120002118,62.63518120002118,65.61278039999888,j,1.739775499998359,0.1519962000020314,65.61283170001116,65.61284459999297,None,,,,,,,,,,,,,,,,,,,,,,,,,,,,00035,001,2026-01-16_12h36.17.636,MST_task,2024.2.0,59.79652437939091,2026-01-16 12h36.43.949042 +0530,
4,practice_images/002b.jpg,5,5,1,f,0.7952639000141062,0.11299749999307096,None,,,,,,,1,5,5,,,,65.6291734999977,,,,,,,,,,,,,,,,,,,,,,,65.61291960001108,65.6291734999977,66.11454549999326,66.12726140001905,66.14751300000353,66.14751300000353,66.14751300000353,69.124502199993,f,0.7952639000141062,0.11299749999307096,69.1264799000055,69.12649680001778,None,,,,,,,,,,,,,,,,,,,,,,,,,,,,00035,001,2026-01-16_12h36.17.636,MST_task,2024.2.0,59.79652437939091,2026-01-16 12h36.43.949042 +0530,
8,practice_images/178a.jpg,6,6,1,f,1.2671387000009418,0.12764320001588203,None,,,,,,,1,6,6,,,,69.1414532000199,,,,,,,,,,,,,,,,,,,,,,,69.12656470001093,69.1414532000199,69.62674289999995,69.63675090001198,69.65976820001379,69.65976820001379,69.65976820001379,72.63707300001988,f,1.2671387000009418,0.12764320001588203,72.63711300000432,72.63712660002057,None,69.65976820001379,,,,,,,,,,,,,,,,,,,,,,,,,,,00035,001,2026-01-16_12h36.17.636,MST_task,2024.2.0,59.79652437939091,2026-01-16 12h36.43.949042 +0530,
1,practice_images/013a.jpg,7,7,1,j,1.3721606000035536,0.13441410000086762,None,,,,,,,1,7,7,,,,72.65388470000471,,,,,,,,,,,,,,,,,,,,,,,72.63721800001804,72.65388470000471,73.13889550001477,73.14882620002027,73.17194689999451,73.17194689999451,73.17194689999451,76.14909930000431,j,1.3721606000035536,0.13441410000086762,76.14913800000795,76.14914980001049,None,,,,,,,,,,,,,,,,,,,,,,,,,,,,00035,001,2026-01-16_12h36.17.636,MST_task,2024.2.0,59.79652437939091,2026-01-16 12h36.43.949042 +0530,
6,practice_images/158a.jpg,8,8,1,j,0.9306530999892857,0.11141260000295006,None,,,,,,,1,8,8,,,,76.16594910001731,,,,,,,,,,,,,,,,,,,,,,,76.14950250001857,76.16594910001731,76.65095340000698,76.66082869999809,76.68436879999354,76.68436879999354,76.68436879999354,79.66168879999896,j,0.9306530999892857,0.11141260000295006,79.66172689999803,79.66173870000057,None,,,,,,,,,,,,,,,,,,,,,,,,,,,,00035,001,2026-01-16_12h36.17.636,MST_task,2024.2.0,59.79652437939091,2026-01-16 12h36.43.949042 +0530,
5,practice_images/139a.jpg,9,9,1,j,2.306519900012063,0.10318919998826459,None,,,,,,,1,9,9,,,,79.67812369999592,,,,,,,,,,,,,,,,,,,,,,,79.66180620001978,79.67812369999592,80.16337379999459,80.17315550000058,80.19654420000734,80.19654420000734,80.19654420000734,83.17369220001274,j,2.306519900012063,0.10318919998826459,83.17373189999489,83.17374389999895,None,,,,,,,,,,,,,,,,,,,,,,,,,,,,00035,001,2026-01-16_12h36.17.636,MST_task,2024.2.0,59.79652437939091,2026-01-16 12h36.43.949042 +0530,
,,,,,,,,,,,,,,,,,,,,,,,,,,,,,,,,,,,,,,,,,,,,,,,,,,,,,,,,,,,83.17379030000302,83.19036860001506,83.19036860001506,117.87925349999568,space,34.67196779997903,None,,,,,,,,,,,,,,,,,,,,00035,001,2026-01-16_12h36.17.636,MST_task,2024.2.0,59.79652437939091,2026-01-16 12h36.43.949042 +0530,
,Objects\033a.jpg,0,0,1,,,,,None,j,0.03883760000462644,None,,,,,,1,0,0,117.89527920002001,,,,,,,,,,,,,,,,,,,,,,,117.87989149999339,117.89527920002001,118.38048920000438,,,,,,,,,,,,,,,,,,,,118.40739969999413,118.43170050001936,118.43170050001936,118.43170050001936,121.39121699999669,shoe,None,121.39265250001336,121.40810630001943,121.40810630001943,121.45897750000586,j,0.03883760000462644,None,,,,,,00035,001,2026-01-16_12h36.17.636,MST_task,2024.2.0,59.79652437939091,2026-01-16 12h36.43.949042 +0530,
,Objects\073a.jpg,1,0,2,,,,,f,None,,,1.2453531000064686,0.08835309999994934,,,,2,0,1,121.474910799996,,,,,,,,,,,,,,,,,,,,,,,121.45905850001145,121.474910799996,121.95991460001096,,,,,,,,,,,,,,,,,,,,121.97119090001797,121.99348730000202,121.99348730000202,121.99348730000202,124.97058600001037,shoe,f,124.97063100000378,,,124.97064300000784,None,,,1.2453531000064686,0.08835309999994934,,,,00035,001,2026-01-16_12h36.17.636,MST_task,2024.2.0,59.79652437939091,2026-01-16 12h36.43.949042 +0530,
,Objects\243a.jpg,2,0,3,,,,,f,None,,,0.9479587000096217,0.11183559999335557,,,,3,0,2,124.98840990001918,,,,,,,,,,,,,,,,,,,,,,,124.9707602999988,124.98840990001918,125.47223770001438,,,,,,,,,,,,,,,,,,,,125.48979870000039,125.50688650002121,125.50688650002121,125.50688650002121,128.48295580002014,shoe,f,128.48299790002056,,,128.48300949999248,None,,,0.9479587000096217,0.11183559999335557,,,,00035,001,2026-01-16_12h36.17.636,MST_task,2024.2.0,59.79652437939091,2026-01-16 12h36.43.949042 +0530,
,Objects\269a.jpg,3,0,4,,,,,j,None,,,2.925201999983983,None,,,,4,0,3,128.49939050001558,,,,,,,,,,,,,,,,,,,,,,,128.4830780000193,128.49939050001558,128.98457309999503,,,,,,,,,,,,,,,,,,,,129.00185760000022,129.01784730001236,129.01784730001236,129.01784730001236,131.99553370001377,shoe,j,131.9955820000032,,,131.9955939000065,None,,,2.925201999983983,None,,,,00035,001,2026-01-16_12h36.17.636,MST_task,2024.2.0,59.79652437939091,2026-01-16 12h36.43.949042 +0530,
,Objects\368a.jpg,4,0,5,,,,,j,None,,,1.4772333999862894,0.10434900000109337,,,,5,0,4,132.0123181999952,,,,,,,,,,,,,,,,,,,,,,,131.9956643000187,132.0123181999952,132.4967527000117,,,,,,,,,,,,,,,,,,,,132.51336290000472,132.5302661000169,132.5302661000169,132.5302661000169,135.5074872999976,shoe,j,135.5075318000163,,,135.5075437000196,None,,,1.4772333999862894,0.10434900000109337,,,,00035,001,2026-01-16_12h36.17.636,MST_task,2024.2.0,59.79652437939091,2026-01-16 12h36.43.949042 +0530,
,Objects\221a.jpg,5,0,6,,,,,j,None,,,2.043904800026212,0.0717331999912858,,,,6,0,5,135.52398719999474,,,,,,,,,,,,,,,,,,,,,,,135.50761220001732,135.52398719999474,136.00918310001725,,,,,,,,,,,,,,,,,,,,136.02593999999226,136.04256520001218,136.04256520001218,136.04256520001218,139.0196249000146,shoe,j,139.01966869999887,,,139.01968090000446,None,,,2.043904800026212,0.0717331999912858,,,,00035,001,2026-01-16_12h36.17.636,MST_task,2024.2.0,59.79652437939091,2026-01-16 12h36.43.949042 +0530,
,Objects\156a.jpg,6,0,7,,,,,f,None,,,1.5157868999813218,0.11990630000946112,,,,7,0,6,139.0363917000068,,,,,,,,,,,,,,,,,,,,,,,139.0197540000081,139.0363917000068,139.52136529999552,,,,,,,,,,,,,,,,,,,,139.5389996000158,139.5549638000084,139.5549638000084,139.5549638000084,142.53189620000194,shoe,f,142.53195950001827,,,142.53197500001988,None,,,1.5157868999813218,0.11990630000946112,,,,00035,001,2026-01-16_12h36.17.636,MST_task,2024.2.0,59.79652437939091,2026-01-16 12h36.43.949042 +0530,
,Objects\024a.jpg,7,0,8,,,,,f,None,,,1.3720965999818873,0.12886789999902248,,,,8,0,7,142.54868750000605,,,,,,,,,,,,,,,,,,,,,,,142.53204520000145,142.54868750000605,143.033700400003,,,,,,,,,,,,,,,,,,,,143.04671630001394,143.06705710000824,143.06705710000824,143.06705710000824,146.04386400000658,indoor,f,146.0452554000076,,,146.0452731999976,None,,,1.3720965999818873,0.12886789999902248,,,,00035,001,2026-01-16_12h36.17.636,MST_task,2024.2.0,59.79652437939091,2026-01-16 12h36.43.949042 +0530,
,Objects\264a.jpg,8,0,9,,,,,j,None,,,1.427081600006204,0.13613230001647025,,,,9,0,8,146.06084109999938,,,,,,,,,,,,,,,,,,,,,,,146.04563969999435,146.06084109999938,146.54570230000536,,,,,,,,,,,,,,,,,,,,146.56207139999606,146.5791201000102,146.5791201000102,146.5791201000102,149.5564523000212,indoor,j,149.5564960000047,,,149.556507900008,None,,,1.427081600006204,0.13613230001647025,,,,00035,001,2026-01-16_12h36.17.636,MST_task,2024.2.0,59.79652437939091,2026-01-16 12h36.43.949042 +0530,
,Objects\080a.jpg,9,0,10,,,,,f,None,,,1.5478921000030823,0.14297260000603274,,,,10,0,9,149.5728850000014,,,,,,,,,,,,,,,,,,,,,,,149.55657790001715,149.5728850000014,150.0582235000038,,,,,,,,,,,,,,,,,,,,150.07509630001732,150.0913040000014,150.0913040000014,150.0913040000014,153.06844820000697,indoor,f,153.06850730002043,,,153.06851889999234,None,,,1.5478921000030823,0.14297260000603274,,,,00035,001,2026-01-16_12h36.17.636,MST_task,2024.2.0,59.79652437939091,2026-01-16 12h36.43.949042 +0530,
,Objects\215a.jpg,10,0,11,,,,,f,None,,,1.8669951999909244,0.11998079999466427,,,,11,0,10,153.08529760001693,,,,,,,,,,,,,,,,,,,,,,,153.0685894000053,153.08529760001693,153.57030740001937,,,,,,,,,,,,,,,,,,,,153.58122650001314,153.60384830000112,153.60384830000112,153.60384830000112,156.58087380000507,indoor,f,156.58091910000076,,,156.58093100000406,None,,,1.8669951999909244,0.11998079999466427,,,,00035,001,2026-01-16_12h36.17.636,MST_task,2024.2.0,59.79652437939091,2026-01-16 12h36.43.949042 +0530,
,Objects\110a.jpg,11,0,12,,,,,f,None,,,0.8111182999855373,0.11148310001590289,,,,12,0,11,156.59748399999808,,,,,,,,,,,,,,,,,,,,,,,156.58100160001777,156.59748399999808,157.08273620001273,,,,,,,,,,,,,,,,,,,,157.09379360001185,157.11590590002015,157.11590590002015,157.11590590002015,160.0931640000199,indoor,f,160.09320940001635,,,160.09322110001813,None,,,0.8111182999855373,0.11148310001590289,,,,00035,001,2026-01-16_12h36.17.636,MST_task,2024.2.0,59.79652437939091,2026-01-16 12h36.43.949042 +0530,
,Objects\008a.jpg,12,0,13,,,,,j,None,,,2.594168500014348,0.11986659999820404,,,,13,0,12,160.1097804000019,,,,,,,,,,,,,,,,,,,,,,,160.09329560000333,160.1097804000019,160.59490359999472,,,,,,,,,,,,,,,,,,,,160.60610249999445,160.62833540001884,160.62833540001884,160.62833540001884,163.60542430001078,indoor,j,163.60547270000097,,,163.60563239999465,None,,,2.594168500014348,0.11986659999820404,,,,00035,001,2026-01-16_12h36.17.636,MST_task,2024.2.0,59.79652437939091,2026-01-16 12h36.43.949042 +0530,
,Objects\314a.jpg,13,0,14,,,,,f,None,,,0.9617114000138827,0.15221169998403639,,,,14,0,13,163.62219500000356,,,,,,,,,,,,,,,,,,,,,,,163.60570790001657,163.62219500000356,164.107196500001,,,,,,,,,,,,,,,,,,,,164.12231490001432,164.1407458000176,164.1407458000176,164.1407458000176,167.1177716999955,indoor,f,167.117817499995,,,167.11782929999754,None,,,0.9617114000138827,0.15221169998403639,,,,00035,001,2026-01-16_12h36.17.636,MST_task,2024.2.0,59.79652437939091,2026-01-16 12h36.43.949042 +0530,
,Objects\377a.jpg,14,0,15,,,,,j,None,,,1.7457886000047438,0.1435213999939151,,,,15,0,14,167.134372600005,,,,,,,,,,,,,,,,,,,,,,,167.1179153000121,167.134372600005,167.61962979999953,,,,,,,,,,,,,,,,,,,,167.6363549999951,167.65280599999824,167.65280599999824,167.65280599999824,170.62995430000592,shoe,j,170.63191150000785,,,170.63192800001707,None,,,1.7457886000047438,0.1435213999939151,,,,00035,001,2026-01-16_12h36.17.636,MST_task,2024.2.0,59.79652437939091,2026-01-16 12h36.43.949042 +0530,
,Objects\100a.jpg,15,0,16,,,,,f,None,,,1.5937905999890063,0.15895760001149029,,,,16,0,15,170.6469081999967,,,,,,,,,,,,,,,,,,,,,,,170.63204120000592,170.6469081999967,171.1321833000111,,,,,,,,,,,,171.16522630001418,,,,,,,,171.1402092000062,171.16522630001418,171.16522630001418,171.16522630001418,174.14238470001146,shoe,f,174.1424278000195,,,174.1424410000036,None,,,1.5937905999890063,0.15895760001149029,,,,00035,001,2026-01-16_12h36.17.636,MST_task,2024.2.0,59.79652437939091,2026-01-16 12h36.43.949042 +0530,
,Objects\130a.jpg,16,0,17,,,,,j,None,,,1.1370119999919552,0.16031480001402088,,,,17,0,16,174.1589946000022,,,,,,,,,,,,,,,,,,,,,,,174.14251460001105,174.1589946000022,174.64420800001244,,,,,,,,,,,,,,,,,,,,174.6574246000091,174.6774102000054,174.6774102000054,174.6774102000054,177.65467469999567,shoe,j,177.65471950001665,,,177.6547313000192,None,,,1.1370119999919552,0.16031480001402088,,,,00035,001,2026-01-16_12h36.17.636,MST_task,2024.2.0,59.79652437939091,2026-01-16 12h36.43.949042 +0530,
,Objects\053a.jpg,17,0,18,,,,,f,None,,,1.9130248000146821,0.13591029998497106,,,,18,0,17,177.67138450001949,,,,,,,,,,,,,,,,,,,,,,,177.6548391999968,177.67138450001949,178.15648599999258,,,,,,,,,,,,,,,,,,,,178.1685775000078,178.1897054000001,178.1897054000001,178.1897054000001,181.16737660000217,shoe,f,181.16742189999786,,,181.1674337000004,None,,,1.9130248000146821,0.13591029998497106,,,,00035,001,2026-01-16_12h36.17.636,MST_task,2024.2.0,59.79652437939091,2026-01-16 12h36.43.949042 +0530,
,Objects\079a.jpg,18,0,19,,,,,j,None,,,1.5446911999897566,0.14421820000279695,,,,19,0,18,181.18363260000478,,,,,,,,,,,,,,,,,,,,,,,181.167540800001,181.18363260000478,181.6688042000169,,,,,,,,,,,,,,,,,,,,181.6797993000073,181.70201280000038,181.70201280000038,181.70201280000038,184.67942650002078,shoe,j,184.67950100000598,,,184.67951990000438,None,,,1.5446911999897566,0.14421820000279695,,,,00035,001,2026-01-16_12h36.17.636,MST_task,2024.2.0,59.79652437939091,2026-01-16 12h36.43.949042 +0530,
,Objects\333a.jpg,19,0,20,,,,,f,None,,,1.304062699986389,0.17632319999393076,,,,20,0,19,184.69601270000567,,,,,,,,,,,,,,,,,,,,,,,184.67963280002004,184.69601270000567,185.18120690001524,,,,,,,,,,,,,,,,,,,,185.19226360000903,185.2144373000192,185.2144373000192,185.2144373000192,188.19164490001276,shoe,f,188.19184990000213,,,188.19186380002066,None,,,1.304062699986389,0.17632319999393076,,,,00035,001,2026-01-16_12h36.17.636,MST_task,2024.2.0,59.79652437939091,2026-01-16 12h36.43.949042 +0530,
,Objects\127a.jpg,20,0,21,,,,,f,None,,,0.8875070000067353,0.1680474999884609,,,,21,0,20,188.20822180001414,,,,,,,,,,,,,,,,,,,,,,,188.1919364000205,188.20822180001414,188.6938841000083,,,,,,,,,,,,,,,,,,,,188.70337980001932,188.72660950000864,188.72660950000864,188.72660950000864,191.7039516000077,shoe,f,191.70403270001407,,,191.70404740000959,None,,,0.8875070000067353,0.1680474999884609,,,,00035,001,2026-01-16_12h36.17.636,MST_task,2024.2.0,59.79652437939091,2026-01-16 12h36.43.949042 +0530,
,Objects\232a.jpg,21,0,22,,,,,j,None,,,2.5994497000065167,0.13625449998653494,,,,22,0,21,191.72058399999514,,,,,,,,,,,,,,,,,,,,,,,191.704118499998,191.72058399999514,192.2056688000157,,,,,,,,,,,,,,,,,,,,192.22356680000667,192.23901900000055,192.23901900000055,192.23901900000055,195.21612590001314,indoor,j,195.21782980000717,,,195.2178486000048,None,,,2.5994497000065167,0.13625449998653494,,,,00035,001,2026-01-16_12h36.17.636,MST_task,2024.2.0,59.79652437939091,2026-01-16 12h36.43.949042 +0530,
,Objects\302a.jpg,22,0,23,,,,,f,None,,,1.231439399998635,0.15119180001784116,,,,23,0,22,195.23289090002072,,,,,,,,,,,,,,,,,,,,,,,195.21792330002063,195.23289090002072,195.7178996000148,,,,,,,,,,,,,,,,,,,,195.72602440000628,195.75132149999263,195.75132149999263,195.75132149999263,198.72848990000784,indoor,f,198.7285348000005,,,198.72854660000303,None,,,1.231439399998635,0.15119180001784116,,,,00035,001,2026-01-16_12h36.17.636,MST_task,2024.2.0,59.79652437939091,2026-01-16 12h36.43.949042 +0530,
,Objects\166a.jpg,23,0,24,,,,,f,None,,,1.7596681999857537,0.1675944000016898,,,,24,0,23,198.74524370001745,,,,,,,,,,,,,,,,,,,,,,,198.72861610000837,198.74524370001745,199.23027050000383,,,,,,,,,,,,,,,,,,,,199.23917990000336,199.26350100000855,199.26350100000855,199.26350100000855,202.240661000018,indoor,f,202.24072020000312,,,202.2407340000209,None,,,1.7596681999857537,0.1675944000016898,,,,00035,001,2026-01-16_12h36.17.636,MST_task,2024.2.0,59.79652437939091,2026-01-16 12h36.43.949042 +0530,
,Objects\159a.jpg,24,0,25,,,,,f,None,,,1.2067456000077073,0.144065899978159,,,,25,0,24,202.2574974000163,,,,,,,,,,,,,,,,,,,,,,,202.24080500000855,202.2574974000163,202.74246420001145,,,,,,,,,,,,,,,,,,,,202.75360880000517,202.77593360000174,202.77593360000174,202.77593360000174,205.75306790001923,indoor,f,205.75325900001917,,,205.75327200000174,None,,,1.2067456000077073,0.144065899978159,,,,00035,001,2026-01-16_12h36.17.636,MST_task,2024.2.0,59.79652437939091,2026-01-16 12h36.43.949042 +0530,
,Objects\048a.jpg,25,0,26,,,,,j,None,,,1.326352499978384,0.1603692000207957,,,,26,0,25,205.7696758999955,,,,,,,,,,,,,,,,,,,,,,,205.7533422000124,205.7696758999955,206.25517150000087,,,,,,,,,,,,,,,,,,,,206.26652050000848,206.28811690001749,206.28811690001749,206.28811690001749,209.26524810001138,indoor,j,209.26529320000554,,,209.26530490000732,None,,,1.326352499978384,0.1603692000207957,,,,00035,001,2026-01-16_12h36.17.636,MST_task,2024.2.0,59.79652437939091,2026-01-16 12h36.43.949042 +0530,
,Objects\219a.jpg,26,0,27,,,,,j,None,,,2.7505352000007406,0.15260800000396557,,,,27,0,26,209.2820888000133,,,,,,,,,,,,,,,,,,,,,,,209.2653743000119,209.2820888000133,209.76715130000957,,,,,,,,,,,,,,,,,,,,209.77080940001179,209.7836748000118,209.7836748000118,209.7836748000118,212.77784940000856,indoor,j,212.77789490000578,,,212.77790710001136,None,,,2.7505352000007406,0.15260800000396557,,,,00035,001,2026-01-16_12h36.17.636,MST_task,2024.2.0,59.79652437939091,2026-01-16 12h36.43.949042 +0530,
,Objects\370a.jpg,27,0,28,,,,,f,None,,,1.0702050999971107,0.1753978000197094,,,,28,0,27,212.7942748000205,,,,,,,,,,,,,,,,,,,,,,,212.77797720002127,212.7942748000205,213.2796195000119,,,,,,,,,,,,,,,,,,,,213.29092260001926,213.3127139999997,213.3127139999997,213.3127139999997,216.28984770001261,indoor,f,216.29010949999793,,,216.2901242999942,None,,,1.0702050999971107,0.1753978000197094,,,,00035,001,2026-01-16_12h36.17.636,MST_task,2024.2.0,59.79652437939091,2026-01-16 12h36.43.949042 +0530,
,Objects\241a.jpg,28,0,29,,,,,f,None,,,2.485818699991796,0.14471329998923466,,,,29,0,28,216.3067426000198,,,,,,,,,,,,,,,,,,,,,,,216.29020020001917,216.3067426000198,216.79168280001613,,,,,,,,,,,,,,,,,,,,216.80516620000708,216.8251310000196,216.8251310000196,216.8251310000196,219.80227879999438,shoe,f,219.80439890001435,,,219.80441680000513,None,,,2.485818699991796,0.14471329998923466,,,,00035,001,2026-01-16_12h36.17.636,MST_task,2024.2.0,59.79652437939091,2026-01-16 12h36.43.949042 +0530,
,Objects\296a.jpg,29,0,30,,,,,j,None,,,1.4937948000151664,0.11974449999979697,,,,30,0,29,219.81888599999365,,,,,,,,,,,,,,,,,,,,,,,219.80448660001275,219.81888599999365,220.3044526000158,,,,,,,,,,,,220.33730820001801,,,,,,,,220.3208322999999,220.33730820001801,220.33730820001801,220.33730820001801,223.31445430000895,shoe,j,223.31451100000413,,,223.3145243000181,None,,,1.4937948000151664,0.11974449999979697,,,,00035,001,2026-01-16_12h36.17.636,MST_task,2024.2.0,59.79652437939091,2026-01-16 12h36.43.949042 +0530,
,Objects\147a.jpg,30,0,31,,,,,j,None,,,1.4700579000054859,0.1589848000148777,,,,31,0,30,223.3313019000052,,,,,,,,,,,,,,,,,,,,,,,223.31473740001093,223.3313019000052,223.81626839999808,,,,,,,,,,,,,,,,,,,,223.83394760001102,223.84974540001713,223.84974540001713,223.84974540001713,226.82686130001093,shoe,j,226.82690440001898,,,226.82691639999393,None,,,1.4700579000054859,0.1589848000148777,,,,00035,001,2026-01-16_12h36.17.636,MST_task,2024.2.0,59.79652437939091,2026-01-16 12h36.43.949042 +0530,
,Objects\322a.jpg,31,0,32,,,,,f,None,,,0.9813956000143662,0.1587693999754265,,,,32,0,31,226.84348030001274,,,,,,,,,,,,,,,,,,,,,,,226.82698630000232,226.84348030001274,227.3286844000104,,,,,,,,,,,,,,,,,,,,227.34497960002045,227.36191330000293,227.36191330000293,227.36191330000293,230.3392945000087,shoe,f,230.33933930000057,,,230.33935150000616,None,,,0.9813956000143662,0.1587693999754265,,,,00035,001,2026-01-16_12h36.17.636,MST_task,2024.2.0,59.79652437939091,2026-01-16 12h36.43.949042 +0530,
,Objects\346a.jpg,32,0,33,,,,,j,None,,,0.8761691999970935,0.17558599999756552,,,,33,0,32,230.3558927999984,,,,,,,,,,,,,,,,,,,,,,,230.33964010002092,230.3558927999984,230.84086580001167,,,,,,,,,,,,,,,,,,,,230.85801480000373,230.87432000000263,230.87432000000263,230.87432000000263,233.85147110000253,shoe,j,233.8515141000098,,,233.85152590001235,None,,,0.8761691999970935,0.17558599999756552,,,,00035,001,2026-01-16_12h36.17.636,MST_task,2024.2.0,59.79652437939091,2026-01-16 12h36.43.949042 +0530,
,Objects\286a.jpg,33,0,34,,,,,j,None,,,1.0846977999899536,0.1829282999970019,,,,34,0,33,233.86808159999782,,,,,,,,,,,,,,,,,,,,,,,233.85163320001448,233.86808159999782,234.35327439999674,,,,,,,,,,,,,,,,,,,,234.3682017000101,234.38651790001313,234.38651790001313,234.38651790001313,237.36366269999417,shoe,j,237.36370539999916,,,237.36371689999942,None,,,1.0846977999899536,0.1829282999970019,,,,00035,001,2026-01-16_12h36.17.636,MST_task,2024.2.0,59.79652437939091,2026-01-16 12h36.43.949042 +0530,
,Objects\133a.jpg,34,0,35,,,,,j,None,,,2.1318278000107966,0.1598054000060074,,,,35,0,34,237.3805185999954,,,,,,,,,,,,,,,,,,,,,,,237.36378780001542,237.3805185999954,237.86546760000056,,,,,,,,,,,,,,,,,,,,237.8822891000018,237.898927000002,237.898927000002,237.898927000002,240.87606270000106,shoe,j,240.87610680001671,,,240.8761185000185,None,,,2.1318278000107966,0.1598054000060074,,,,00035,001,2026-01-16_12h36.17.636,MST_task,2024.2.0,59.79652437939091,2026-01-16 12h36.43.949042 +0530,
,Objects\190a.jpg,35,0,36,,,,,f,None,,,1.0767852000135463,0.16742729998077266,,,,36,0,35,240.89267709999694,,,,,,,,,,,,,,,,,,,,,,,240.87618789999397,240.89267709999694,241.37857369999983,,,,,,,,,,,,,,,,,,,,241.3827670000028,241.39444010000443,241.39444010000443,241.39444010000443,244.38839989999542,indoor,f,244.38975060000666,,,244.38976930000354,None,,,1.0767852000135463,0.16742729998077266,,,,00035,001,2026-01-16_12h36.17.636,MST_task,2024.2.0,59.79652437939091,2026-01-16 12h36.43.949042 +0530,
,Objects\191a.jpg,36,0,37,,,,,j,None,,,1.2349847000150476,0.20008149999193847,,,,37,0,36,244.40498670001398,,,,,,,,,,,,,,,,,,,,,,,244.38984109999728,244.40498670001398,244.8900788000028,,,,,,,,,,,,,,,,,,,,244.9007552000112,244.9235316000122,244.9235316000122,244.9235316000122,247.90067770000314,indoor,j,247.9009922000114,,,247.90100750001147,None,,,1.2349847000150476,0.20008149999193847,,,,00035,001,2026-01-16_12h36.17.636,MST_task,2024.2.0,59.79652437939091,2026-01-16 12h36.43.949042 +0530,
,Objects\123a.jpg,37,0,38,,,,,j,None,,,1.483298500010278,0.15880840001045726,,,,38,0,37,247.91726670000935,,,,,,,,,,,,,,,,,,,,,,,247.90107900000294,247.91726670000935,248.40248720001546,,,,,,,,,,,,,,,,,,,,248.41360369999893,248.43583649999346,248.43583649999346,248.43583649999346,251.41287180001382,indoor,j,251.41293019999284,,,251.4129469000036,None,,,1.483298500010278,0.15880840001045726,,,,00035,001,2026-01-16_12h36.17.636,MST_task,2024.2.0,59.79652437939091,2026-01-16 12h36.43.949042 +0530,
,Objects\112a.jpg,38,0,39,,,,,f,None,,,1.137523000012152,0.17650759997195564,,,,39,0,38,251.42979029999697,,,,,,,,,,,,,,,,,,,,,,,251.41301849999581,251.42979029999697,251.91483700001845,,,,,,,,,,,,,,,,,,,,251.92618780001067,251.94863050000276,251.94863050000276,251.94863050000276,254.92527840001276,indoor,f,254.92548649999662,,,254.92549829999916,None,,,1.137523000012152,0.17650759997195564,,,,00035,001,2026-01-16_12h36.17.636,MST_task,2024.2.0,59.79652437939091,2026-01-16 12h36.43.949042 +0530,
,Objects\118a.jpg,39,0,40,,,,,f,None,,,1.1785740000195801,0.19118989998241886,,,,40,0,39,254.94187780001084,,,,,,,,,,,,,,,,,,,,,,,254.92556810000679,254.94187780001084,255.4271768000035,,,,,,,,,,,,,,,,,,,,255.43861700000707,255.4603093000187,255.4603093000187,255.4603093000187,258.43743930000346,indoor,f,258.4374829000153,,,258.4374943000148,None,,,1.1785740000195801,0.19118989998241886,,,,00035,001,2026-01-16_12h36.17.636,MST_task,2024.2.0,59.79652437939091,2026-01-16 12h36.43.949042 +0530,
,Objects\138a.jpg,40,0,41,,,,,j,None,,,1.2664835999894422,0.1514651000034064,,,,41,0,40,258.45443529999466,,,,,,,,,,,,,,,,,,,,,,,258.43756399999256,258.45443529999466,258.93929619999835,,,,,,,,,,,,,,,,,,,,258.9502993999922,258.9727223000082,258.9727223000082,258.9727223000082,261.9500930000213,indoor,j,261.95019580001826,,,261.950210400013,None,,,1.2664835999894422,0.1514651000034064,,,,00035,001,2026-01-16_12h36.17.636,MST_task,2024.2.0,59.79652437939091,2026-01-16 12h36.43.949042 +0530,
,Objects\236a.jpg,41,0,42,,,,,j,None,,,1.2489693999814335,0.18439500001841225,,,,42,0,41,261.9666104000062,,,,,,,,,,,,,,,,,,,,,,,261.9502868000127,261.9666104000062,262.4515603000182,,,,,,,,,,,,,,,,,,,,262.4705171000096,262.48501629999373,262.48501629999373,262.48501629999373,265.462159000017,indoor,j,265.46221290001995,,,265.4622445999994,None,,,1.2489693999814335,0.18439500001841225,,,,00035,001,2026-01-16_12h36.17.636,MST_task,2024.2.0,59.79652437939091,2026-01-16 12h36.43.949042 +0530,
,Objects\069a.jpg,42,0,43,,,,,j,None,,,0.9933834999974351,0.1924474000115879,,,,43,0,42,265.4787655000109,,,,,,,,,,,,,,,,,,,,,,,265.46232260001125,265.4787655000109,265.96397640000214,,,,,,,,,,,,,,,,,,,,265.9820441000047,265.99720720000914,265.99720720000914,265.99720720000914,268.9743615000043,shoe,j,268.97575460001826,,,268.97577380001894,None,,,0.9933834999974351,0.1924474000115879,,,,00035,001,2026-01-16_12h36.17.636,MST_task,2024.2.0,59.79652437939091,2026-01-16 12h36.43.949042 +0530,
,Objects\192a.jpg,43,0,44,,,,,f,None,,,2.8968045000219718,None,,,,44,0,43,268.99131830001716,,,,,,,,,,,,,,,,,,,,,,,268.97636910001165,268.99131830001716,269.4766261000186,,,,,,,,,,,,269.5097475000075,,,,,,,,269.48727110002073,269.5097475000075,269.5097475000075,269.5097475000075,272.4867887000146,shoe,f,272.48683120001806,,,272.48684409999987,None,,,2.8968045000219718,None,,,,00035,001,2026-01-16_12h36.17.636,MST_task,2024.2.0,59.79652437939091,2026-01-16 12h36.43.949042 +0530,
,Objects\310a.jpg,44,0,45,,,,,j,None,,,1.3602809000003617,0.1605961000022944,,,,45,0,44,272.5033645000076,,,,,,,,,,,,,,,,,,,,,,,272.48691530001815,272.5033645000076,272.9885581000126,,,,,,,,,,,,,,,,,,,,273.00509809999494,273.02181150001707,273.02181150001707,273.02181150001707,275.9989526999998,shoe,j,275.99902990000555,,,275.99904409999726,None,,,1.3602809000003617,0.1605961000022944,,,,00035,001,2026-01-16_12h36.17.636,MST_task,2024.2.0,59.79652437939091,2026-01-16 12h36.43.949042 +0530,
,Objects\358a.jpg,45,0,46,,,,,f,None,,,2.935632300010184,None,,,,46,0,45,276.0157890999981,,,,,,,,,,,,,,,,,,,,,,,275.9991154000163,276.0157890999981,276.50075540001853,,,,,,,,,,,,,,,,,,,,276.5177284000092,276.5343659000064,276.5343659000064,276.5343659000064,279.51124570000684,shoe,f,279.5113169999968,,,279.5113333000045,None,,,2.935632300010184,None,,,,00035,001,2026-01-16_12h36.17.636,MST_task,2024.2.0,59.79652437939091,2026-01-16 12h36.43.949042 +0530,
,Objects\158a.jpg,46,0,47,,,,,f,None,,,0.9758111000119243,0.15283009997801855,,,,47,0,46,279.5280876000179,,,,,,,,,,,,,,,,,,,,,,,279.51168339999276,279.5280876000179,280.01313770000706,,,,,,,,,,,,,,,,,,,,280.03054870001506,280.04659470001934,280.04659470001934,280.04659470001934,283.0236589999986,shoe,f,283.02384179999353,,,283.0238546000037,None,,,0.9758111000119243,0.15283009997801855,,,,00035,001,2026-01-16_12h36.17.636,MST_task,2024.2.0,59.79652437939091,2026-01-16 12h36.43.949042 +0530,
,Objects\004a.jpg,47,0,48,,,,,j,None,,,1.439679699979024,0.18466880000778474,,,,48,0,47,283.0402754000097,,,,,,,,,,,,,,,,,,,,,,,283.02397810001276,283.0402754000097,283.52548080001725,,,,,,,,,,,,,,,,,,,,283.5365735999949,283.5587105000159,283.5587105000159,283.5587105000159,286.53591030000825,shoe,j,286.53595690001384,,,286.5359689000179,None,,,1.439679699979024,0.18466880000778474,,,,00035,001,2026-01-16_12h36.17.636,MST_task,2024.2.0,59.79652437939091,2026-01-16 12h36.43.949042 +0530,
,Objects\088a.jpg,48,0,49,,,,,j,None,,,1.9357106999959797,0.15199179999763146,,,,49,0,48,286.5526991999941,,,,,,,,,,,,,,,,,,,,,,,286.536042599997,286.5526991999941,287.037662799994,,,,,,,,,,,,,,,,,,,,287.04905279999366,287.0711242000107,287.0711242000107,287.0711242000107,290.0486589000211,shoe,j,290.04870250000386,,,290.0487140000041,None,,,1.9357106999959797,0.15199179999763146,,,,00035,001,2026-01-16_12h36.17.636,MST_task,2024.2.0,59.79652437939091,2026-01-16 12h36.43.949042 +0530,
,Objects\060a.jpg,49,0,50,,,,,j,None,,,2.135733400005847,0.11910370000987314,,,,50,0,49,290.06486800001585,,,,,,,,,,,,,,,,,,,,,,,290.0488335000118,290.06486800001585,290.55012319999514,,,,,,,,,,,,,,,,,,,,290.5620628000179,290.58329530002084,290.58329530002084,290.58329530002084,293.56056589999935,indoor,j,293.5621236000152,,,293.5621432000189,None,,,2.135733400005847,0.11910370000987314,,,,00035,001,2026-01-16_12h36.17.636,MST_task,2024.2.0,59.79652437939091,2026-01-16 12h36.43.949042 +0530,
,Objects\266a.jpg,50,0,51,,,,,j,None,,,1.6152246999845374,0.1520287000166718,,,,51,0,50,293.57730370000354,,,,,,,,,,,,,,,,,,,,,,,293.56221629999345,293.57730370000354,294.06225899999845,,,,,,,,,,,,,,,,,,,,294.0795783000067,294.0957111000025,294.0957111000025,294.0957111000025,297.07273330001044,indoor,j,297.0727880000195,,,297.07279979999294,None,,,1.6152246999845374,0.1520287000166718,,,,00035,001,2026-01-16_12h36.17.636,MST_task,2024.2.0,59.79652437939091,2026-01-16 12h36.43.949042 +0530,
,Objects\193a.jpg,51,0,52,,,,,f,None,,,1.7255203000095207,0.1521270000084769,,,,52,0,51,297.0897232000134,,,,,,,,,,,,,,,,,,,,,,,297.07301240001107,297.0897232000134,297.5748355000105,,,,,,,,,,,,,,,,,,,,297.5948954000196,297.60848049999913,297.60848049999913,297.60848049999913,300.5851618000015,indoor,f,300.58520620001946,,,300.58521910000127,None,,,1.7255203000095207,0.1521270000084769,,,,00035,001,2026-01-16_12h36.17.636,MST_task,2024.2.0,59.79652437939091,2026-01-16 12h36.43.949042 +0530,
,Objects\321a.jpg,52,0,53,,,,,f,None,,,2.878211300005205,None,,,,53,0,52,300.60192149999784,,,,,,,,,,,,,,,,,,,,,,,300.58528950001346,300.60192149999784,301.0871330999944,,,,,,,,,,,,,,,,,,,,301.10234300000593,301.12036630001967,301.12036630001967,301.12036630001967,304.09752080001635,indoor,f,304.0975643999991,,,304.09757569999783,None,,,2.878211300005205,None,,,,00035,001,2026-01-16_12h36.17.636,MST_task,2024.2.0,59.79652437939091,2026-01-16 12h36.43.949042 +0530,
,Objects\205a.jpg,53,0,54,,,,,f,None,,,2.078298000007635,0.15133130000322126,,,,54,0,53,304.11434920001193,,,,,,,,,,,,,,,,,,,,,,,304.09764580000774,304.11434920001193,304.5991977000085,,,,,,,,,,,,,,,,,,,,304.61546870000893,304.6327975000022,304.6327975000022,304.6327975000022,307.6099338000058,indoor,f,307.6099778999924,,,307.60998989999644,None,,,2.078298000007635,0.15133130000322126,,,,00035,001,2026-01-16_12h36.17.636,MST_task,2024.2.0,59.79652437939091,2026-01-16 12h36.43.949042 +0530,
,Objects\058a.jpg,54,0,55,,,,,f,None,,,1.5731504999857862,0.16826249999576248,,,,55,0,54,307.6268490999937,,,,,,,,,,,,,,,,,,,,,,,307.61006020000787,307.6268490999937,308.11174089999986,,,,,,,,,,,,,,,,,,,,308.1279066000134,308.1449608000112,308.1449608000112,308.1449608000112,311.1220053000143,indoor,f,311.12205760000506,,,311.1220689000038,None,,,1.5731504999857862,0.16826249999576248,,,,00035,001,2026-01-16_12h36.17.636,MST_task,2024.2.0,59.79652437939091,2026-01-16 12h36.43.949042 +0530,
,Objects\282a.jpg,55,0,56,,,,,j,None,,,2.15800309999031,0.1504801000119187,,,,56,0,55,311.1389615999942,,,,,,,,,,,,,,,,,,,,,,,311.1221423000097,311.1389615999942,311.6239072000026,,,,,,,,,,,,,,,,,,,,311.6340283000027,311.6573788000096,311.6573788000096,311.6573788000096,314.63449950001086,indoor,j,314.63454319999437,,,314.63455489999615,None,,,2.15800309999031,0.1504801000119187,,,,00035,001,2026-01-16_12h36.17.636,MST_task,2024.2.0,59.79652437939091,2026-01-16 12h36.43.949042 +0530,
,Objects\013a.jpg,56,0,57,,,,,j,None,,,1.8937770999909844,0.16051240000524558,,,,57,0,56,314.6509861999948,,,,,,,,,,,,,,,,,,,,,,,314.6346243000007,314.6509861999948,315.1364145000116,,,,,,,,,,,,,,,,,,,,315.140954100003,315.1527385000081,315.1527385000081,315.1527385000081,318.1468611000164,shoe,j,318.14857170000323,,,318.1485907000024,None,,,1.8937770999909844,0.16051240000524558,,,,00035,001,2026-01-16_12h36.17.636,MST_task,2024.2.0,59.79652437939091,2026-01-16 12h36.43.949042 +0530,
,Objects\011a.jpg,57,0,58,,,,,f,None,,,1.2770421000022907,0.16796130000147969,,,,58,0,57,318.16327170000295,,,,,,,,,,,,,,,,,,,,,,,318.1486620999931,318.16327170000295,318.6488129000063,,,,,,,,,,,,318.6816950000066,,,,,,,,318.6599019000132,318.6816950000066,318.6816950000066,318.6816950000066,321.65883640001994,shoe,f,321.6588932000159,,,321.65891140000895,None,,,1.2770421000022907,0.16796130000147969,,,,00035,001,2026-01-16_12h36.17.636,MST_task,2024.2.0,59.79652437939091,2026-01-16 12h36.43.949042 +0530,
,Objects\119a.jpg,58,0,59,,,,,j,None,,,1.3485133999784011,0.14361500000813976,,,,59,0,58,321.6757357000024,,,,,,,,,,,,,,,,,,,,,,,321.65898150001885,321.6757357000024,322.1606329000206,,,,,,,,,,,,,,,,,,,,322.17174839999643,322.19411939999554,322.19411939999554,322.19411939999554,325.17125109999324,shoe,j,325.1712924000167,,,325.1713038000162,None,,,1.3485133999784011,0.14361500000813976,,,,00035,001,2026-01-16_12h36.17.636,MST_task,2024.2.0,59.79652437939091,2026-01-16 12h36.43.949042 +0530,
,Objects\276a.jpg,59,0,60,,,,,f,None,,,2.405287400004454,0.1279727999935858,,,,60,0,59,325.1878681000089,,,,,,,,,,,,,,,,,,,,,,,325.1714084999985,325.1878681000089,325.67325540000456,,,,,,,,,,,,,,,,,,,,325.6763973000052,325.68956240001717,325.68956240001717,325.68956240001717,328.683712500002,shoe,f,328.68376050001825,,,328.6837727999955,None,,,2.405287400004454,0.1279727999935858,,,,00035,001,2026-01-16_12h36.17.636,MST_task,2024.2.0,59.79652437939091,2026-01-16 12h36.43.949042 +0530,
,Objects\121a.jpg,60,0,61,,,,,f,None,,,1.492247900023358,0.12712900000042282,,,,61,0,60,328.7002977000084,,,,,,,,,,,,,,,,,,,,,,,328.68385260002105,328.7002977000084,329.1854866000067,,,,,,,,,,,,,,,,,,,,329.19649659999413,329.2185898000025,329.2185898000025,329.2185898000025,332.19603760002065,shoe,f,332.19608100000187,,,332.1960925000021,None,,,1.492247900023358,0.12712900000042282,,,,00035,001,2026-01-16_12h36.17.636,MST_task,2024.2.0,59.79652437939091,2026-01-16 12h36.43.949042 +0530,
,Objects\297a.jpg,61,0,62,,,,,j,None,,,1.2675291000050493,0.16878819998237304,,,,62,0,61,332.21245819999604,,,,,,,,,,,,,,,,,,,,,,,332.196160099993,332.21245819999604,332.69771000000765,,,,,,,,,,,,,,,,,,,,332.71648760000244,332.73088570000255,332.73088570000255,332.73088570000255,335.70804140000837,shoe,j,335.7080846000172,,,335.70809600001667,None,,,1.2675291000050493,0.16878819998237304,,,,00035,001,2026-01-16_12h36.17.636,MST_task,2024.2.0,59.79652437939091,2026-01-16 12h36.43.949042 +0530,
,Objects\313a.jpg,62,0,63,,,,,j,None,,,2.2033405999827664,0.15150179999182,,,,63,0,62,335.7248831000179,,,,,,,,,,,,,,,,,,,,,,,335.7081652000197,335.7248831000179,336.2101607999939,,,,,,,,,,,,,,,,,,,,336.227224000002,336.24380339999334,336.24380339999334,336.24380339999334,339.2205696000019,shoe,j,339.22087809999357,,,339.2208905000007,None,,,2.2033405999827664,0.15150179999182,,,,00035,001,2026-01-16_12h36.17.636,MST_task,2024.2.0,59.79652437939091,2026-01-16 12h36.43.949042 +0530,
,Objects\132a.jpg,63,0,64,,,,,j,None,,,2.1470687999972142,0.1364295000093989,,,,64,0,63,339.23706360001233,,,,,,,,,,,,,,,,,,,,,,,339.2209644000104,339.23706360001233,339.72231310000643,,,,,,,,,,,,,,,,,,,,339.7340966000047,339.75549340000725,339.75549340000725,339.75549340000725,342.73266619999777,indoor,j,342.734603000019,,,342.7346224000212,None,,,2.1470687999972142,0.1364295000093989,,,,00035,001,2026-01-16_12h36.17.636,MST_task,2024.2.0,59.79652437939091,2026-01-16 12h36.43.949042 +0530,
,Objects\081a.jpg,64,0,65,,,,,f,None,,,1.4267758000059985,0.15991019998909906,,,,65,0,64,342.74946530000307,,,,,,,,,,,,,,,,,,,,,,,342.7346976000117,342.74946530000307,343.23517510000966,,,,,,,,,,,,343.2679008000123,,,,,,,,343.2458731000079,343.2679008000123,343.2679008000123,343.2679008000123,346.2452475000173,indoor,f,346.2453157000127,,,346.24532829999225,None,,,1.4267758000059985,0.15991019998909906,,,,00035,001,2026-01-16_12h36.17.636,MST_task,2024.2.0,59.79652437939091,2026-01-16 12h36.43.949042 +0530,
,Objects\007a.jpg,65,0,66,,,,,f,None,,,0.6264750999980606,0.1520611000014469,,,,66,0,65,346.2618252999964,,,,,,,,,,,,,,,,,,,,,,,346.24539450000157,346.2618252999964,346.74685690001934,,,,,,,,,,,,,,,,,,,,346.7577963999938,346.7800949999946,346.7800949999946,346.7800949999946,349.7573504000029,indoor,f,349.7574154000031,,,349.757431200007,None,,,0.6264750999980606,0.1520611000014469,,,,00035,001,2026-01-16_12h36.17.636,MST_task,2024.2.0,59.79652437939091,2026-01-16 12h36.43.949042 +0530,
,Objects\098a.jpg,66,0,67,,,,,j,None,,,0.8504216999863274,0.16879130000597797,,,,67,0,66,349.7739562000206,,,,,,,,,,,,,,,,,,,,,,,349.7575069000013,349.7739562000206,350.2591708000109,,,,,,,,,,,,,,,,,,,,350.2703974000178,350.2923972000135,350.2923972000135,350.2923972000135,353.2695403000107,indoor,j,353.2696039000002,,,353.2696288000152,None,,,0.8504216999863274,0.16879130000597797,,,,00035,001,2026-01-16_12h36.17.636,MST_task,2024.2.0,59.79652437939091,2026-01-16 12h36.43.949042 +0530,
,Objects\178a.jpg,67,0,68,,,,,j,None,,,1.3377410999964923,0.1762274999928195,,,,68,0,67,353.28637159999926,,,,,,,,,,,,,,,,,,,,,,,353.26985250000143,353.28637159999926,353.7714460999996,,,,,,,,,,,,,,,,,,,,353.78338229999645,353.80496370000765,353.80496370000765,353.80496370000765,356.78214220001246,indoor,j,356.7821873000066,,,356.7821987000061,None,,,1.3377410999964923,0.1762274999928195,,,,00035,001,2026-01-16_12h36.17.636,MST_task,2024.2.0,59.79652437939091,2026-01-16 12h36.43.949042 +0530,
,Objects\292a.jpg,68,0,69,,,,,j,None,,,1.065868900011992,0.16025049999007024,,,,69,0,68,356.7986877000076,,,,,,,,,,,,,,,,,,,,,,,356.7822715000075,356.7986877000076,357.28376109999954,,,,,,,,,,,,,,,,,,,,357.2987756000075,357.3169987000001,357.3169987000001,357.3169987000001,360.29417090001516,indoor,j,360.2942137000209,,,360.29422529999283,None,,,1.065868900011992,0.16025049999007024,,,,00035,001,2026-01-16_12h36.17.636,MST_task,2024.2.0,59.79652437939091,2026-01-16 12h36.43.949042 +0530,
,Objects\149a.jpg,69,0,70,,,,,f,None,,,1.0581959999981336,0.15097940000123344,,,,70,0,69,360.31097990000853,,,,,,,,,,,,,,,,,,,,,,,360.294446600019,360.31097990000853,360.7959339999943,,,,,,,,,,,,,,,,,,,,360.8144968000124,360.829409900005,360.829409900005,360.829409900005,363.8065379000036,indoor,f,363.8065809000109,,,363.80659310001647,None,,,1.0581959999981336,0.15097940000123344,,,,00035,001,2026-01-16_12h36.17.636,MST_task,2024.2.0,59.79652437939091,2026-01-16 12h36.43.949042 +0530,
,Objects\101a.jpg,70,0,71,,,,,f,None,,,1.3531658000138123,0.1530882999941241,,,,71,0,70,363.8231429000152,,,,,,,,,,,,,,,,,,,,,,,363.80666070000734,363.8231429000152,364.3083612000046,,,,,,,,,,,,,,,,,,,,364.3129931000003,364.324938500009,364.324938500009,364.324938500009,367.31899260001956,shoe,f,367.32046089999494,,,367.320477900008,None,,,1.3531658000138123,0.1530882999941241,,,,00035,001,2026-01-16_12h36.17.636,MST_task,2024.2.0,59.79652437939091,2026-01-16 12h36.43.949042 +0530,
,Objects\126a.jpg,71,0,72,,,,,j,None,,,1.3763225000002421,0.17585289999260567,,,,72,0,71,367.33557260001544,,,,,,,,,,,,,,,,,,,,,,,367.32054830002016,367.33557260001544,367.8206739000161,,,,,,,,,,,,,,,,,,,,367.831904199993,367.8539935000008,367.8539935000008,367.8539935000008,370.8321719999949,shoe,j,370.8322237000102,,,370.83223660002113,None,,,1.3763225000002421,0.17585289999260567,,,,00035,001,2026-01-16_12h36.17.636,MST_task,2024.2.0,59.79652437939091,2026-01-16 12h36.43.949042 +0530,
,Objects\227a.jpg,72,0,73,,,,,f,None,,,1.8574658000143245,0.17551400000229478,,,,73,0,72,370.847883200011,,,,,,,,,,,,,,,,,,,,,,,370.83231550001074,370.847883200011,371.332951599994,,,,,,,,,,,,,,,,,,,,371.3390292999975,371.34932900001877,371.34932900001877,371.34932900001877,374.34347950000665,shoe,f,374.3435211000033,,,374.3435326000035,None,,,1.8574658000143245,0.17551400000229478,,,,00035,001,2026-01-16_12h36.17.636,MST_task,2024.2.0,59.79652437939091,2026-01-16 12h36.43.949042 +0530,
,Objects\301a.jpg,73,0,74,,,,,j,None,,,1.9440520000061952,0.16943899999023415,,,,74,0,73,374.3600453000108,,,,,,,,,,,,,,,,,,,,,,,374.3436004999967,374.3600453000108,374.8453991000133,,,,,,,,,,,,,,,,,,,,374.8568765000091,374.8784752000065,374.8784752000065,374.8784752000065,377.85563599999296,shoe,j,377.85580419999314,,,377.8558191000193,None,,,1.9440520000061952,0.16943899999023415,,,,00035,001,2026-01-16_12h36.17.636,MST_task,2024.2.0,59.79652437939091,2026-01-16 12h36.43.949042 +0530,
,Objects\319a.jpg,74,0,75,,,,,f,None,,,1.2317136999918148,0.15232019999530166,,,,75,0,74,377.87247339999885,,,,,,,,,,,,,,,,,,,,,,,377.8558912000153,377.87247339999885,378.3574315000151,,,,,,,,,,,,,,,,,,,,378.3727833000012,378.39099380001426,378.39099380001426,378.39099380001426,381.3680366000044,shoe,f,381.3680781000003,,,381.368089399999,None,,,1.2317136999918148,0.15232019999530166,,,,00035,001,2026-01-16_12h36.17.636,MST_task,2024.2.0,59.79652437939091,2026-01-16 12h36.43.949042 +0530,
,Objects\089a.jpg,75,0,76,,,,,j,None,,,2.1034601999854203,0.16874590000952594,,,,76,0,75,381.3846564000123,,,,,,,,,,,,,,,,,,,,,,,381.3681993999926,381.3846564000123,381.86985849999473,,,,,,,,,,,,,,,,,,,,381.88759490000666,381.90319350000937,381.90319350000937,381.90319350000937,384.88038680001046,shoe,j,384.88043240000843,,,384.8804441000102,None,,,2.1034601999854203,0.16874590000952594,,,,00035,001,2026-01-16_12h36.17.636,MST_task,2024.2.0,59.79652437939091,2026-01-16 12h36.43.949042 +0530,
,Objects\252a.jpg,76,0,77,,,,,f,None,,,1.294923600013135,0.16756939998595044,,,,77,0,76,384.896946199995,,,,,,,,,,,,,,,,,,,,,,,384.88056839999626,384.896946199995,385.3821440000029,,,,,,,,,,,,,,,,,,,,385.3937214000034,385.41538650001166,385.41538650001166,385.41538650001166,388.39276919999975,shoe,f,388.3928100000194,,,388.3928213000181,None,,,1.294923600013135,0.16756939998595044,,,,00035,001,2026-01-16_12h36.17.636,MST_task,2024.2.0,59.79652437939091,2026-01-16 12h36.43.949042 +0530,
,Objects\258a.jpg,77,0,78,,,,,f,None,,,1.8542549000121653,0.16876229998888448,,,,78,0,77,388.4093597000174,,,,,,,,,,,,,,,,,,,,,,,388.39289000001736,388.4093597000174,388.8952702000097,,,,,,,,,,,,,,,,,,,,388.90389390001656,388.92778339999495,388.92778339999495,388.92778339999495,391.9049329000118,indoor,f,391.9067757000157,,,391.90679530001944,None,,,1.8542549000121653,0.16876229998888448,,,,00035,001,2026-01-16_12h36.17.636,MST_task,2024.2.0,59.79652437939091,2026-01-16 12h36.43.949042 +0530,
,Objects\237a.jpg,78,0,79,,,,,j,None,,,1.8954755000013392,0.15887620000285096,,,,79,0,78,391.9217324000201,,,,,,,,,,,,,,,,,,,,,,,391.90686720001395,391.9217324000201,392.4068760999944,,,,,,,,,,,,,,,,,,,,392.42398429999594,392.439975700021,392.439975700021,392.439975700021,395.4171520000091,indoor,j,395.4172179000161,,,395.41723330001696,None,,,1.8954755000013392,0.15887620000285096,,,,00035,001,2026-01-16_12h36.17.636,MST_task,2024.2.0,59.79652437939091,2026-01-16 12h36.43.949042 +0530,
,Objects\382a.jpg,79,0,80,,,,,j,None,,,1.630111999984365,0.1846549000183586,,,,80,0,79,395.4339537000051,,,,,,,,,,,,,,,,,,,,,,,395.4173281000112,395.4339537000051,395.91931349999504,,,,,,,,,,,,,,,,,,,,395.9361043999961,395.9523926000111,395.9523926000111,395.9523926000111,398.92952050000895,indoor,j,398.9295742000104,,,398.9295856000099,None,,,1.630111999984365,0.1846549000183586,,,,00035,001,2026-01-16_12h36.17.636,MST_task,2024.2.0,59.79652437939091,2026-01-16 12h36.43.949042 +0530,
,Objects\204a.jpg,80,0,81,,,,,j,None,,,1.6382871999812778,0.16729949999717064,,,,81,0,80,398.94614129999536,,,,,,,,,,,,,,,,,,,,,,,398.92965400000685,398.94614129999536,399.4313778000069,,,,,,,,,,,,,,,,,,,,399.44050890000653,399.46455619999324,399.46455619999324,399.46455619999324,402.44186330001685,indoor,j,402.441922900005,,,402.4419353000121,None,,,1.6382871999812778,0.16729949999717064,,,,00035,001,2026-01-16_12h36.17.636,MST_task,2024.2.0,59.79652437939091,2026-01-16 12h36.43.949042 +0530,
,Objects\041a.jpg,81,0,82,,,,,j,None,,,1.125136399990879,0.17649230000097305,,,,82,0,81,402.45843339999556,,,,,,,,,,,,,,,,,,,,,,,402.4420053999929,402.45843339999556,402.9436541000032,,,,,,,,,,,,,,,,,,,,402.95486329999403,402.9769084000145,402.9769084000145,402.9769084000145,405.9541195000056,indoor,j,405.9541750999924,,,405.9541863000195,None,,,1.125136399990879,0.17649230000097305,,,,00035,001,2026-01-16_12h36.17.636,MST_task,2024.2.0,59.79652437939091,2026-01-16 12h36.43.949042 +0530,
,Objects\225a.jpg,82,0,83,,,,,f,None,,,2.285338199988473,0.1513388000021223,,,,83,0,82,405.9708524000016,,,,,,,,,,,,,,,,,,,,,,,405.95425500001875,405.9708524000016,406.4558828000154,,,,,,,,,,,,,,,,,,,,406.4673894000007,406.48928680000245,406.48928680000245,406.48928680000245,409.46642010001233,indoor,f,409.46647390001453,,,409.4664856000163,None,,,2.285338199988473,0.1513388000021223,,,,00035,001,2026-01-16_12h36.17.636,MST_task,2024.2.0,59.79652437939091,2026-01-16 12h36.43.949042 +0530,
,Objects\207a.jpg,83,0,84,,,,,f,None,,,1.0370016999950167,0.1525707999826409,,,,84,0,83,409.4831585000211,,,,,,,,,,,,,,,,,,,,,,,409.46655509999255,409.4831585000211,409.9682894000143,,,,,,,,,,,,,,,,,,,,409.9847046000068,410.0014698000159,410.0014698000159,410.0014698000159,412.978738100006,indoor,f,412.97877940000035,,,412.9787915000052,None,,,1.0370016999950167,0.1525707999826409,,,,00035,001,2026-01-16_12h36.17.636,MST_task,2024.2.0,59.79652437939091,2026-01-16 12h36.43.949042 +0530,
,Objects\025a.jpg,84,0,85,,,,,j,None,,,1.8208788000047207,0.18524429999524727,,,,85,0,84,412.99559330000193,,,,,,,,,,,,,,,,,,,,,,,412.9788682000071,412.99559330000193,413.4805175999936,,,,,,,,,,,,,,,,,,,,413.4981018000108,413.5138938000018,413.5138938000018,413.5138938000018,416.49103810000815,shoe,j,416.4924775999971,,,416.4924930999987,None,,,1.8208788000047207,0.18524429999524727,,,,00035,001,2026-01-16_12h36.17.636,MST_task,2024.2.0,59.79652437939091,2026-01-16 12h36.43.949042 +0530,
,Objects\083a.jpg,85,0,86,,,,,f,None,,,1.1562369000166655,0.1844324999838136,,,,86,0,85,416.50775910000084,,,,,,,,,,,,,,,,,,,,,,,416.49260080000386,416.50775910000084,416.99281890000566,,,,,,,,,,,,,,,,,,,,417.00364400001126,417.02606649999507,417.02606649999507,417.02606649999507,420.0036117999989,shoe,f,420.00365460000467,,,420.0036664000072,None,,,1.1562369000166655,0.1844324999838136,,,,00035,001,2026-01-16_12h36.17.636,MST_task,2024.2.0,59.79652437939091,2026-01-16 12h36.43.949042 +0530,
,Objects\143a.jpg,86,0,87,,,,,f,None,,,1.4520381999900565,0.16855790000408888,,,,87,0,86,420.02021829999285,,,,,,,,,,,,,,,,,,,,,,,420.00375709999935,420.02021829999285,420.505261400016,,,,,,,,,,,,,,,,,,,,420.5180275000166,420.53847460000543,420.53847460000543,420.53847460000543,423.5156765000138,shoe,f,423.5157373000111,,,423.51575449999655,None,,,1.4520381999900565,0.16855790000408888,,,,00035,001,2026-01-16_12h36.17.636,MST_task,2024.2.0,59.79652437939091,2026-01-16 12h36.43.949042 +0530,
,Objects\281a.jpg,87,0,88,,,,,f,None,,,2.5653249000024516,0.11172290000831708,,,,88,0,87,423.53235490000225,,,,,,,,,,,,,,,,,,,,,,,423.51585070000147,423.53235490000225,424.017325599998,,,,,,,,,,,,,,,,,,,,424.0246344000043,424.0335319000005,424.0335319000005,424.0335319000005,427.0280103000114,shoe,f,427.0280561000109,,,427.0280716000125,None,,,2.5653249000024516,0.11172290000831708,,,,00035,001,2026-01-16_12h36.17.636,MST_task,2024.2.0,59.79652437939091,2026-01-16 12h36.43.949042 +0530,
,Objects\061a.jpg,88,0,89,,,,,j,None,,,1.3952301999961492,0.1364008999953512,,,,89,0,88,427.0454827999929,,,,,,,,,,,,,,,,,,,,,,,427.02818530000513,427.0454827999929,427.5296193000104,,,,,,,,,,,,,,,,,,,,427.5462851000193,427.5630863000115,427.5630863000115,427.5630863000115,430.5403709000093,shoe,j,430.5404139000166,,,430.54042510001455,None,,,1.3952301999961492,0.1364008999953512,,,,00035,001,2026-01-16_12h36.17.636,MST_task,2024.2.0,59.79652437939091,2026-01-16 12h36.43.949042 +0530,
,Objects\222a.jpg,89,0,90,,,,,j,None,,,1.147229399997741,0.13599929999327287,,,,90,0,89,430.5571370999969,,,,,,,,,,,,,,,,,,,,,,,430.5405318000121,430.5571370999969,431.0420213000034,,,,,,,,,,,,,,,,,,,,431.05888729999424,431.07525950000854,431.07525950000854,431.07525950000854,434.05241239999305,shoe,j,434.0524549999973,,,434.05246720000287,None,,,1.147229399997741,0.13599929999327287,,,,00035,001,2026-01-16_12h36.17.636,MST_task,2024.2.0,59.79652437939091,2026-01-16 12h36.43.949042 +0530,
,Objects\135a.jpg,90,0,91,,,,,f,None,,,1.0509277999808546,0.15298290000646375,,,,91,0,90,434.06924770001206,,,,,,,,,,,,,,,,,,,,,,,434.05253499999526,434.06924770001206,434.55422170000384,,,,,,,,,,,,,,,,,,,,434.57137750001857,434.5877017000166,434.5877017000166,434.5877017000166,437.564710000006,shoe,f,437.56481760001043,,,437.5648583000002,None,,,1.0509277999808546,0.15298290000646375,,,,00035,001,2026-01-16_12h36.17.636,MST_task,2024.2.0,59.79652437939091,2026-01-16 12h36.43.949042 +0530,
,Objects\145a.jpg,91,0,92,,,,,f,None,,,1.7305071000009775,0.1360440999851562,,,,92,0,91,437.5815400000138,,,,,,,,,,,,,,,,,,,,,,,437.5649711000151,437.5815400000138,438.0665227000136,,,,,,,,,,,,,,,,,,,,438.0791762000008,438.09996859999956,438.09996859999956,438.09996859999956,441.0772541000042,indoor,f,441.0790227999969,,,441.0790432000067,None,,,1.7305071000009775,0.1360440999851562,,,,00035,001,2026-01-16_12h36.17.636,MST_task,2024.2.0,59.79652437939091,2026-01-16 12h36.43.949042 +0530,
,Objects\267a.jpg,92,0,93,,,,,j,None,,,1.1701115999894682,0.16825519999838434,,,,93,0,92,441.0938057000167,,,,,,,,,,,,,,,,,,,,,,,441.0791175000195,441.0938057000167,441.57908630001475,,,,,,,,,,,,,,,,,,,,441.5964152000088,441.6121550000098,441.6121550000098,441.6121550000098,444.58956730001955,indoor,j,444.58961339999223,,,444.58962499999325,None,,,1.1701115999894682,0.16825519999838434,,,,00035,001,2026-01-16_12h36.17.636,MST_task,2024.2.0,59.79652437939091,2026-01-16 12h36.43.949042 +0530,
,Objects\148a.jpg,93,0,94,,,,,f,None,,,1.4734606000129133,0.15376079999259673,,,,94,0,93,444.6060221999942,,,,,,,,,,,,,,,,,,,,,,,444.5896953000047,444.6060221999942,445.0913475000125,,,,,,,,,,,,,,,,,,,,445.10772759999963,445.1244643999962,445.1244643999962,445.1244643999962,448.1016094000079,indoor,f,448.10165190001135,,,448.1016637000139,None,,,1.4734606000129133,0.15376079999259673,,,,00035,001,2026-01-16_12h36.17.636,MST_task,2024.2.0,59.79652437939091,2026-01-16 12h36.43.949042 +0530,
,Objects\036a.jpg,94,0,95,,,,,f,None,,,1.457207900006324,0.167950800008839,,,,95,0,94,448.1184479999938,,,,,,,,,,,,,,,,,,,,,,,448.1017322000116,448.1184479999938,448.6035514000105,,,,,,,,,,,,,,,,,,,,448.6145909000188,448.6368708999944,448.6368708999944,448.6368708999944,451.614020900015,indoor,f,451.61433490001946,,,451.61434990001726,None,,,1.457207900006324,0.167950800008839,,,,00035,001,2026-01-16_12h36.17.636,MST_task,2024.2.0,59.79652437939091,2026-01-16 12h36.43.949042 +0530,
,Objects\179a.jpg,95,0,96,,,,,f,None,,,2.001088500022888,0.15235219997703098,,,,96,0,95,451.6307416000054,,,,,,,,,,,,,,,,,,,,,,,451.6144237999979,451.6307416000054,452.11583009999595,,,,,,,,,,,,,,,,,,,,452.126600699994,452.1490554000193,452.1490554000193,452.1490554000193,455.1264473000192,indoor,f,455.1264896999928,,,455.1265013999946,None,,,2.001088500022888,0.15235219997703098,,,,00035,001,2026-01-16_12h36.17.636,MST_task,2024.2.0,59.79652437939091,2026-01-16 12h36.43.949042 +0530,
,Objects\057a.jpg,96,0,97,,,,,f,None,,,1.1453998999786563,0.15949020002153702,,,,97,0,96,455.1429267000058,,,,,,,,,,,,,,,,,,,,,,,455.1265698999923,455.1429267000058,455.62813379999716,,,,,,,,,,,,,,,,,,,,455.6393583000172,455.6613505000132,455.6613505000132,455.6613505000132,458.63850130001083,indoor,f,458.6386674999958,,,458.6386831999989,None,,,1.1453998999786563,0.15949020002153702,,,,00035,001,2026-01-16_12h36.17.636,MST_task,2024.2.0,59.79652437939091,2026-01-16 12h36.43.949042 +0530,
,Objects\171a.jpg,97,0,98,,,,,f,None,,,0.8743584000039846,0.18280870001763105,,,,98,0,97,458.6554623999982,,,,,,,,,,,,,,,,,,,,,,,458.63875579999876,458.6554623999982,459.1403458999994,,,,,,,,,,,,,,,,,,,,459.1437072000117,459.1570529000019,459.1570529000019,459.1570529000019,462.1509642000019,indoor,f,462.1510203999933,,,462.15103259999887,None,,,0.8743584000039846,0.18280870001763105,,,,00035,001,2026-01-16_12h36.17.636,MST_task,2024.2.0,59.79652437939091,2026-01-16 12h36.43.949042 +0530,
,Objects\231a.jpg,98,0,99,,,,,j,None,,,0.9678448000049684,0.16080979999969713,,,,99,0,98,462.16788530000485,,,,,,,,,,,,,,,,,,,,,,,462.15138710002066,462.16788530000485,462.6527481999947,,,,,,,,,,,,,,,,,,,,462.6704500000051,462.6860653000185,462.6860653000185,462.6860653000185,465.66326319999644,shoe,j,465.66559650001,,,465.66561450000154,None,,,0.9678448000049684,0.16080979999969713,,,,00035,001,2026-01-16_12h36.17.636,MST_task,2024.2.0,59.79652437939091,2026-01-16 12h36.43.949042 +0530,
,Objects\152a.jpg,99,0,100,,,,,f,None,,,1.0077194000186864,0.20069189998321235,,,,100,0,99,465.6798296000052,,,,,,,,,,,,,,,,,,,,,,,465.6656844000099,465.6798296000052,466.1658885999932,,,,,,,,,,,,,,,,,,,,466.18243169999914,466.19847840000875,466.19847840000875,466.19847840000875,469.17557099999976,shoe,f,469.1756277999957,,,469.1756410000089,None,,,1.0077194000186864,0.20069189998321235,,,,00035,001,2026-01-16_12h36.17.636,MST_task,2024.2.0,59.79652437939091,2026-01-16 12h36.43.949042 +0530,
,Objects\293a.jpg,100,0,101,,,,,f,None,,,1.1514807000057772,0.15998260001651943,,,,101,0,100,469.1923739000049,,,,,,,,,,,,,,,,,,,,,,,469.17575829999987,469.1923739000049,469.6774210000003,,,,,,,,,,,,,,,,,,,,469.6926389000146,469.7108638000209,469.7108638000209,469.7108638000209,472.6878609000123,shoe,f,472.6879251000064,,,472.6879421000194,None,,,1.1514807000057772,0.15998260001651943,,,,00035,001,2026-01-16_12h36.17.636,MST_task,2024.2.0,59.79652437939091,2026-01-16 12h36.43.949042 +0530,
,Objects\228a.jpg,101,0,102,,,,,f,None,,,0.9831248999980744,0.18444559999625199,,,,102,0,101,472.7047037000011,,,,,,,,,,,,,,,,,,,,,,,472.6880119999987,472.7047037000011,473.1897695999942,,,,,,,,,,,,,,,,,,,,473.2064243000059,473.2230802999984,473.2230802999984,473.2230802999984,476.2002769999963,shoe,f,476.20031980000203,,,476.20033170000534,None,,,0.9831248999980744,0.18444559999625199,,,,00035,001,2026-01-16_12h36.17.636,MST_task,2024.2.0,59.79652437939091,2026-01-16 12h36.43.949042 +0530,
,Objects\373a.jpg,102,0,103,,,,,j,None,,,1.6309135000046808,0.1528249999973923,,,,103,0,102,476.21692299999995,,,,,,,,,,,,,,,,,,,,,,,476.2004140000208,476.21692299999995,476.7022254000185,,,,,,,,,,,,,,,,,,,,476.71772970000166,476.7353104999929,476.7353104999929,476.7353104999929,479.7124662999995,shoe,j,479.7125103000144,,,479.7125220000162,None,,,1.6309135000046808,0.1528249999973923,,,,00035,001,2026-01-16_12h36.17.636,MST_task,2024.2.0,59.79652437939091,2026-01-16 12h36.43.949042 +0530,
,Objects\142a.jpg,103,0,104,,,,,f,None,,,0.878775899996981,0.15999090002151206,,,,104,0,103,479.7293040000077,,,,,,,,,,,,,,,,,,,,,,,479.71263310001814,479.7293040000077,480.21433600000455,,,,,,,,,,,,,,,,,,,,480.23263959999895,480.2481258000189,480.2481258000189,480.2481258000189,483.22471120001865,shoe,f,483.22497090001707,,,483.22498960001394,None,,,0.878775899996981,0.15999090002151206,,,,00035,001,2026-01-16_12h36.17.636,MST_task,2024.2.0,59.79652437939091,2026-01-16 12h36.43.949042 +0530,
,Objects\356a.jpg,104,0,105,,,,,f,None,,,1.3506173999921884,0.1608667999971658,,,,105,0,104,483.24131050001597,,,,,,,,,,,,,,,,,,,,,,,483.22511400000076,483.24131050001597,483.72650990000693,,,,,,,,,,,,,,,,,,,,483.7443628000037,483.7597454000206,483.7597454000206,483.7597454000206,486.736894200003,shoe,f,486.736982900009,,,486.7370031000173,None,,,1.3506173999921884,0.1608667999971658,,,,00035,001,2026-01-16_12h36.17.636,MST_task,2024.2.0,59.79652437939091,2026-01-16 12h36.43.949042 +0530,
,Objects\275a.jpg,105,0,106,,,,,j,None,,,1.7113706999807619,0.15894059999845922,,,,106,0,105,486.7538861000212,,,,,,,,,,,,,,,,,,,,,,,486.73708270001225,486.7538861000212,487.2386870000046,,,,,,,,,,,,,,,,,,,,487.2567554000125,487.2721589000139,487.2721589000139,487.2721589000139,490.2491923000198,indoor,j,490.2506884000031,,,490.25070770000457,None,,,1.7113706999807619,0.15894059999845922,,,,00035,001,2026-01-16_12h36.17.636,MST_task,2024.2.0,59.79652437939091,2026-01-16 12h36.43.949042 +0530,
,Objects\091a.jpg,106,0,107,,,,,j,None,,,1.383572099992307,0.16786250000586733,,,,107,0,106,490.26613980002,,,,,,,,,,,,,,,,,,,,,,,490.25077810001676,490.26613980002,490.7510377000144,,,,,,,,,,,,,,,,,,,,490.7588321999938,490.76719460001914,490.76719460001914,490.76719460001914,493.7614698999969,indoor,j,493.7615288000088,,,493.76154060001136,None,,,1.383572099992307,0.16786250000586733,,,,00035,001,2026-01-16_12h36.17.636,MST_task,2024.2.0,59.79652437939091,2026-01-16 12h36.43.949042 +0530,
,Objects\176a.jpg,107,0,108,,,,,j,None,,,0.8692452999821398,0.183911200001603,,,,108,0,107,493.7784137999988,,,,,,,,,,,,,,,,,,,,,,,493.7616140000173,493.7784137999988,494.26329810000607,,,,,,,,,,,,,,,,,,,,494.27463040000293,494.2967636999965,494.2967636999965,494.2967636999965,497.27389020001283,indoor,j,497.2740778000152,,,497.27409560000524,None,,,0.8692452999821398,0.183911200001603,,,,00035,001,2026-01-16_12h36.17.636,MST_task,2024.2.0,59.79652437939091,2026-01-16 12h36.43.949042 +0530,
,Objects\224a.jpg,108,0,109,,,,,f,None,,,1.0132400000002235,0.16089459997601807,,,,109,0,108,497.2905107999977,,,,,,,,,,,,,,,,,,,,,,,497.27416669999366,497.2905107999977,497.77577320000273,,,,,,,,,,,,,,,,,,,,497.79038700001547,497.80894129999797,497.80894129999797,497.80894129999797,500.786070400005,indoor,f,500.78614010001183,,,500.78615590001573,None,,,1.0132400000002235,0.16089459997601807,,,,00035,001,2026-01-16_12h36.17.636,MST_task,2024.2.0,59.79652437939091,2026-01-16 12h36.43.949042 +0530,
,Objects\096a.jpg,109,0,110,,,,,f,None,,,1.5970852000173181,0.15962009999202564,,,,110,0,109,500.8029204000195,,,,,,,,,,,,,,,,,,,,,,,500.78652630001307,500.8029204000195,501.2881600999972,,,,,,,,,,,,,,,,,,,,501.3073524000065,501.321379800007,501.321379800007,501.321379800007,504.2984882000019,indoor,f,504.2985440000193,,,504.2985559999943,None,,,1.5970852000173181,0.15962009999202564,,,,00035,001,2026-01-16_12h36.17.636,MST_task,2024.2.0,59.79652437939091,2026-01-16 12h36.43.949042 +0530,
,Objects\299a.jpg,110,0,111,,,,,j,None,,,1.6453165999846533,0.1441769000084605,,,,111,0,110,504.3151080000098,,,,,,,,,,,,,,,,,,,,,,,504.29862700001104,504.3151080000098,504.8003169000149,,,,,,,,,,,,,,,,,,,,504.8168141999922,504.83353590001934,504.83353590001934,504.83353590001934,507.81096689999686,indoor,j,507.811008699995,,,507.8110200999945,None,,,1.6453165999846533,0.1441769000084605,,,,00035,001,2026-01-16_12h36.17.636,MST_task,2024.2.0,59.79652437939091,2026-01-16 12h36.43.949042 +0530,
,Objects\197a.jpg,111,0,112,,,,,j,None,,,1.180843400012236,0.17558949999511242,,,,112,0,111,507.8275763000129,,,,,,,,,,,,,,,,,,,,,,,507.8110902000044,507.8275763000129,508.312785600021,,,,,,,,,,,,,,,,,,,,508.3286772000138,508.3460899000056,508.3460899000056,508.3460899000056,511.32280799999717,indoor,j,511.32286060001934,,,511.3228728999966,None,,,1.180843400012236,0.17558949999511242,,,,00035,001,2026-01-16_12h36.17.636,MST_task,2024.2.0,59.79652437939091,2026-01-16 12h36.43.949042 +0530,
,Objects\336a.jpg,112,0,113,,,,,f,None,,,1.0768229000095744,0.1912581000069622,,,,113,0,112,511.34063900000183,,,,,,,,,,,,,,,,,,,,,,,511.32294909999473,511.34063900000183,511.825462400011,,,,,,,,,,,,,,,,,,,,511.8433859999932,511.858267100004,511.858267100004,511.858267100004,514.8354434999928,shoe,f,514.8369524000154,,,514.8369810000004,None,,,1.0768229000095744,0.1912581000069622,,,,00035,001,2026-01-16_12h36.17.636,MST_task,2024.2.0,59.79652437939091,2026-01-16 12h36.43.949042 +0530,
,Objects\290a.jpg,113,0,114,,,,,j,None,,,1.0366966000001412,0.17749180001555942,,,,114,0,113,514.8521721000143,,,,,,,,,,,,,,,,,,,,,,,514.8370527999941,514.8521721000143,515.3373740999959,,,,,,,,,,,,,,,,,,,,515.3445824999944,515.3536151000008,515.3536151000008,515.3536151000008,518.3476748999965,shoe,j,518.3479012000025,,,518.3479146000172,None,,,1.0366966000001412,0.17749180001555942,,,,00035,001,2026-01-16_12h36.17.636,MST_task,2024.2.0,59.79652437939091,2026-01-16 12h36.43.949042 +0530,
,Objects\030a.jpg,114,0,115,,,,,f,None,,,1.0841650000074878,0.16743989998940378,,,,115,0,114,518.3643003000179,,,,,,,,,,,,,,,,,,,,,,,518.3479916999931,518.3643003000179,518.8495073000086,,,,,,,,,,,,,,,,,,,,518.8665714999952,518.8827477000013,518.8827477000013,518.8827477000013,521.859992600017,shoe,f,521.8600375000096,,,521.8600494000129,None,,,1.0841650000074878,0.16743989998940378,,,,00035,001,2026-01-16_12h36.17.636,MST_task,2024.2.0,59.79652437939091,2026-01-16 12h36.43.949042 +0530,
,Objects\332a.jpg,115,0,116,,,,,j,None,,,1.2270367000019178,0.16088509999099188,,,,116,0,115,521.8767169000057,,,,,,,,,,,,,,,,,,,,,,,521.8603229,521.8767169000057,522.3616917000036,,,,,,,,,,,,,,,,,,,,522.3783417000086,522.3951501999982,522.3951501999982,522.3951501999982,525.3722051999939,shoe,j,525.3722597000015,,,525.3722718000063,None,,,1.2270367000019178,0.16088509999099188,,,,00035,001,2026-01-16_12h36.17.636,MST_task,2024.2.0,59.79652437939091,2026-01-16 12h36.43.949042 +0530,
,Objects\291a.jpg,116,0,117,,,,,f,None,,,1.1392333000258077,0.1679215999902226,,,,117,0,116,525.3890231999976,,,,,,,,,,,,,,,,,,,,,,,525.3725063000165,525.3890231999976,525.8739856000175,,,,,,,,,,,,,,,,,,,,525.8899529000046,525.9074819000089,525.9074819000089,525.9074819000089,528.8845947000082,shoe,f,528.8847911000194,,,528.8848039000004,None,,,1.1392333000258077,0.1679215999902226,,,,00035,001,2026-01-16_12h36.17.636,MST_task,2024.2.0,59.79652437939091,2026-01-16 12h36.43.949042 +0530,
,Objects\288a.jpg,117,0,118,,,,,f,None,,,1.3705085999972653,0.1683269999921322,,,,118,0,117,528.9012013000029,,,,,,,,,,,,,,,,,,,,,,,528.8848741000111,528.9012013000029,529.3864144000108,,,,,,,,,,,,,,,,,,,,529.4040258000023,529.419629800017,529.419629800017,529.419629800017,532.3967628999962,shoe,f,532.3968058000028,,,532.3968175000045,None,,,1.3705085999972653,0.1683269999921322,,,,00035,001,2026-01-16_12h36.17.636,MST_task,2024.2.0,59.79652437939091,2026-01-16 12h36.43.949042 +0530,
,Objects\188a.jpg,118,0,119,,,,,f,None,,,1.050534499983769,0.13573879998875782,,,,119,0,118,532.4137134000193,,,,,,,,,,,,,,,,,,,,,,,532.3968860000023,532.4137134000193,532.8986384000164,,,,,,,,,,,,,,,,,,,,532.9154603000206,532.9320536000014,532.9320536000014,532.9320536000014,535.9093585000082,shoe,f,535.909401300014,,,535.9094134000188,None,,,1.050534499983769,0.13573879998875782,,,,00035,001,2026-01-16_12h36.17.636,MST_task,2024.2.0,59.79652437939091,2026-01-16 12h36.43.949042 +0530,
,Objects\031a.jpg,119,0,120,,,,,j,None,,,1.5294355999794789,0.16818209999473765,,,,120,0,119,535.9259478000167,,,,,,,,,,,,,,,,,,,,,,,535.9095218000002,535.9259478000167,536.4112584000104,,,,,,,,,,,,,,,,,,,,536.4233362000086,536.4449892000121,536.4449892000121,536.4449892000121,539.4213724000147,indoor,j,539.423309500009,,,539.4233267999953,None,,,1.5294355999794789,0.16818209999473765,,,,00035,001,2026-01-16_12h36.17.636,MST_task,2024.2.0,59.79652437939091,2026-01-16 12h36.43.949042 +0530,
,Objects\289a.jpg,120,0,121,,,,,j,None,,,2.6007990000071004,0.14399859998957254,,,,121,0,120,539.4382281000144,,,,,,,,,,,,,,,,,,,,,,,539.4233996999974,539.4382281000144,539.9236549000198,,,,,,,,,,,,539.9571245000116,,,,,,,,539.9317407000053,539.9571245000116,539.9571245000116,539.9571245000116,542.9336631000042,indoor,j,542.9337058000092,,,542.9337186000193,None,,,2.6007990000071004,0.14399859998957254,,,,00035,001,2026-01-16_12h36.17.636,MST_task,2024.2.0,59.79652437939091,2026-01-16 12h36.43.949042 +0530,
,Objects\040a.jpg,121,0,122,,,,,f,None,,,1.3458052999922074,0.17598500000895,,,,122,0,121,542.9505178999971,,,,,,,,,,,,,,,,,,,,,,,542.9338141000189,542.9505178999971,543.4355163,,,,,,,,,,,,,,,,,,,,543.4537027000042,543.4689437000197,543.4689437000197,543.4689437000197,546.4460991999949,indoor,f,546.4461424000037,,,546.4461536000017,None,,,1.3458052999922074,0.17598500000895,,,,00035,001,2026-01-16_12h36.17.636,MST_task,2024.2.0,59.79652437939091,2026-01-16 12h36.43.949042 +0530,
,Objects\341a.jpg,122,0,123,,,,,j,None,,,2.5682459000090603,0.11215000000083819,,,,123,0,122,546.4630952000152,,,,,,,,,,,,,,,,,,,,,,,546.4462238000124,546.4630952000152,546.948446800001,,,,,,,,,,,,,,,,,,,,546.9598297000048,546.9818511000194,546.9818511000194,546.9818511000194,549.9582586000033,indoor,j,549.9583012000076,,,549.9583129000093,None,,,2.5682459000090603,0.11215000000083819,,,,00035,001,2026-01-16_12h36.17.636,MST_task,2024.2.0,59.79652437939091,2026-01-16 12h36.43.949042 +0530,
,Objects\125a.jpg,123,0,124,,,,,j,None,,,1.1841287999995984,0.1532135000161361,,,,124,0,123,549.9752439000004,,,,,,,,,,,,,,,,,,,,,,,549.958381400007,549.9752439000004,550.460070400004,,,,,,,,,,,,,,,,,,,,550.4708932000212,550.4938590000093,550.4938590000093,550.4938590000093,553.4709815999959,indoor,j,553.4710275999969,,,553.4710423999932,None,,,1.1841287999995984,0.1532135000161361,,,,00035,001,2026-01-16_12h36.17.636,MST_task,2024.2.0,59.79652437939091,2026-01-16 12h36.43.949042 +0530,
,Objects\328a.jpg,124,0,125,,,,,j,None,,,1.0728844000259414,0.1593863999878522,,,,125,0,124,553.4874237000186,,,,,,,,,,,,,,,,,,,,,,,553.471114999993,553.4874237000186,553.9725043000071,,,,,,,,,,,,,,,,,,,,553.9834202000056,554.005667999998,554.005667999998,554.005667999998,556.9830091000185,indoor,j,556.9830506000144,,,556.9830857000197,None,,,1.0728844000259414,0.1593863999878522,,,,00035,001,2026-01-16_12h36.17.636,MST_task,2024.2.0,59.79652437939091,2026-01-16 12h36.43.949042 +0530,
,Objects\103a.jpg,125,0,126,,,,,f,None,,,2.264135199977318,0.12888670002575964,,,,126,0,125,556.9998046999972,,,,,,,,,,,,,,,,,,,,,,,556.9834291000152,556.9998046999972,557.4846963000018,,,,,,,,,,,,,,,,,,,,557.4959876000066,557.518416100007,557.518416100007,557.518416100007,560.4952416000015,indoor,f,560.4952868999972,,,560.4952985999989,None,,,2.264135199977318,0.12888670002575964,,,,00035,001,2026-01-16_12h36.17.636,MST_task,2024.2.0,59.79652437939091,2026-01-16 12h36.43.949042 +0530,
,Objects\376a.jpg,126,0,127,,,,,j,None,,,1.1762766000174452,0.13575580000178888,,,,127,0,126,560.5119992000109,,,,,,,,,,,,,,,,,,,,,,,560.4953718000033,560.5119992000109,560.9970088000118,,,,,,,,,,,,,,,,,,,,561.009569100017,561.0304337000125,561.0304337000125,561.0304337000125,564.0075863999955,shoe,j,564.0093829999969,,,564.0094011000183,None,,,1.1762766000174452,0.13575580000178888,,,,00035,001,2026-01-16_12h36.17.636,MST_task,2024.2.0,59.79652437939091,2026-01-16 12h36.43.949042 +0530,
,Objects\278a.jpg,127,0,128,,,,,j,None,,,2.3198092999809887,0.11999740000464953,,,,128,0,127,564.0241859999951,,,,,,,,,,,,,,,,,,,,,,,564.0094701000198,564.0241859999951,564.5096365000063,,,,,,,,,,,,564.5426131999993,,,,,,,,564.5278486000025,564.5426131999993,564.5426131999993,564.5426131999993,567.5198860999953,shoe,j,567.5199565000075,,,567.5199755000067,None,,,2.3198092999809887,0.11999740000464953,,,,00035,001,2026-01-16_12h36.17.636,MST_task,2024.2.0,59.79652437939091,2026-01-16 12h36.43.949042 +0530,
,Objects\059a.jpg,128,0,129,,,,,j,None,,,1.079735500010429,0.16816480000852607,,,,129,0,128,567.5365948000108,,,,,,,,,,,,,,,,,,,,,,,567.5203423000057,567.5365948000108,568.0215619000082,,,,,,,,,,,,,,,,,,,,568.0384863000072,568.0550309999962,568.0550309999962,568.0550309999962,571.0322487000085,shoe,j,571.0322958000179,,,571.0323078999936,None,,,1.079735500010429,0.16816480000852607,,,,00035,001,2026-01-16_12h36.17.636,MST_task,2024.2.0,59.79652437939091,2026-01-16 12h36.43.949042 +0530,
,Objects\331a.jpg,129,0,130,,,,,j,None,,,1.6070210000034422,0.15234500000951812,,,,130,0,129,571.0489005999989,,,,,,,,,,,,,,,,,,,,,,,571.0324681000202,571.0489005999989,571.5340021000011,,,,,,,,,,,,,,,,,,,,571.5487423000159,571.5672137000074,571.5672137000074,571.5672137000074,574.5444743999979,shoe,j,574.5446610999934,,,574.5446746000089,None,,,1.6070210000034422,0.15234500000951812,,,,00035,001,2026-01-16_12h36.17.636,MST_task,2024.2.0,59.79652437939091,2026-01-16 12h36.43.949042 +0530,
,Objects\137a.jpg,130,0,131,,,,,j,None,,,1.4705131000082474,0.1279925999988336,,,,131,0,130,574.5610856999992,,,,,,,,,,,,,,,,,,,,,,,574.5447476000118,574.5610856999992,575.046281500021,,,,,,,,,,,,,,,,,,,,575.0627308000112,575.0795274999982,575.0795274999982,575.0795274999982,578.0569830000168,shoe,j,578.0570254000195,,,578.057036800019,None,,,1.4705131000082474,0.1279925999988336,,,,00035,001,2026-01-16_12h36.17.636,MST_task,2024.2.0,59.79652437939091,2026-01-16 12h36.43.949042 +0530,
,Objects\262a.jpg,131,0,132,,,,,f,None,,,1.205607699987013,0.16070790000958368,,,,132,0,131,578.0736298999982,,,,,,,,,,,,,,,,,,,,,,,578.0571055000182,578.0736298999982,578.5588408000185,,,,,,,,,,,,,,,,,,,,578.5665676000062,578.5923565000121,578.5923565000121,578.5923565000121,581.5691968000028,shoe,f,581.5692641000205,,,581.5692803999991,None,,,1.205607699987013,0.16070790000958368,,,,00035,001,2026-01-16_12h36.17.636,MST_task,2024.2.0,59.79652437939091,2026-01-16 12h36.43.949042 +0530,
,Objects\327a.jpg,132,0,133,,,,,j,None,,,1.709556200017687,0.15240419999463484,,,,133,0,132,581.5863629000087,,,,,,,,,,,,,,,,,,,,,,,581.5693697000097,581.5863629000087,582.0710185999924,,,,,,,,,,,,,,,,,,,,582.0803064999927,582.1044895999948,582.1044895999948,582.1044895999948,585.0813703000022,shoe,j,585.0816833999997,,,585.0816982999968,None,,,1.709556200017687,0.15240419999463484,,,,00035,001,2026-01-16_12h36.17.636,MST_task,2024.2.0,59.79652437939091,2026-01-16 12h36.43.949042 +0530,
,Objects\028a.jpg,133,0,134,,,,,f,None,,,1.3899492000055034,0.15217730001313612,,,,134,0,133,585.0980667000113,,,,,,,,,,,,,,,,,,,,,,,585.0817701000196,585.0980667000113,585.5831965999969,,,,,,,,,,,,,,,,,,,,585.6015557000064,585.6164086000063,585.6164086000063,585.6164086000063,588.5937537999998,indoor,f,588.5953338000108,,,588.5953531000123,None,,,1.3899492000055034,0.15217730001313612,,,,00035,001,2026-01-16_12h36.17.636,MST_task,2024.2.0,59.79652437939091,2026-01-16 12h36.43.949042 +0530,
,Objects\304a.jpg,134,0,135,,,,,f,None,,,1.2701094999792986,0.16087650001281872,,,,135,0,134,588.6105535000097,,,,,,,,,,,,,,,,,,,,,,,588.5958422000112,588.6105535000097,589.0960006999958,,,,,,,,,,,,589.1288165000151,,,,,,,,589.1134059000178,589.1288165000151,589.1288165000151,589.1288165000151,592.1060851000075,indoor,f,592.1062869000016,,,592.1063004000171,None,,,1.2701094999792986,0.16087650001281872,,,,00035,001,2026-01-16_12h36.17.636,MST_task,2024.2.0,59.79652437939091,2026-01-16 12h36.43.949042 +0530,
,Objects\300a.jpg,135,0,136,,,,,f,None,,,1.405246399983298,0.18451469999854453,,,,136,0,135,592.1225837999955,,,,,,,,,,,,,,,,,,,,,,,592.1063709000009,592.1225837999955,592.607780899998,,,,,,,,,,,,,,,,,,,,592.6256467000057,592.6410192000039,592.6410192000039,592.6410192000039,595.6184610000055,indoor,f,595.618503500009,,,595.6185159000161,None,,,1.405246399983298,0.18451469999854453,,,,00035,001,2026-01-16_12h36.17.636,MST_task,2024.2.0,59.79652437939091,2026-01-16 12h36.43.949042 +0530,
,Objects\307a.jpg,136,0,137,,,,,f,None,,,2.6765952999994624,0.15192469998146407,,,,137,0,136,595.6348786000162,,,,,,,,,,,,,,,,,,,,,,,595.6185859999969,595.6348786000162,596.1204855999968,,,,,,,,,,,,,,,,,,,,596.13662200002,596.1533198000106,596.1533198000106,596.1533198000106,599.1305640999926,indoor,f,599.1306057000184,,,599.1306170000171,None,,,2.6765952999994624,0.15192469998146407,,,,00035,001,2026-01-16_12h36.17.636,MST_task,2024.2.0,59.79652437939091,2026-01-16 12h36.43.949042 +0530,
,Objects\198a.jpg,137,0,138,,,,,f,None,,,1.5810429000121076,0.17516089999116957,,,,138,0,137,599.1472968000162,,,,,,,,,,,,,,,,,,,,,,,599.130685000011,599.1472968000162,599.6324809000071,,,,,,,,,,,,,,,,,,,,599.6352635000076,599.649751799996,599.649751799996,599.649751799996,602.6429185000015,indoor,f,602.6429705000191,,,602.6430092999944,None,,,1.5810429000121076,0.17516089999116957,,,,00035,001,2026-01-16_12h36.17.636,MST_task,2024.2.0,59.79652437939091,2026-01-16 12h36.43.949042 +0530,
,Objects\347a.jpg,138,0,139,,,,,f,None,,,1.1478158000099938,0.15971360000548884,,,,139,0,138,602.6599127000081,,,,,,,,,,,,,,,,,,,,,,,602.6431011999957,602.6599127000081,603.1441385000071,,,,,,,,,,,,,,,,,,,,603.1558543000137,603.1785970000201,603.1785970000201,603.1785970000201,606.1551738000126,indoor,f,606.1553773000196,,,606.1553897999984,None,,,1.1478158000099938,0.15971360000548884,,,,00035,001,2026-01-16_12h36.17.636,MST_task,2024.2.0,59.79652437939091,2026-01-16 12h36.43.949042 +0530,
,Objects\361a.jpg,139,0,140,,,,,f,None,,,1.2676229999924544,0.16776059998665005,,,,140,0,139,606.1717769000097,,,,,,,,,,,,,,,,,,,,,,,606.1554659999965,606.1717769000097,606.6569869999948,,,,,,,,,,,,,,,,,,,,606.6682492000109,606.6907713999972,606.6907713999972,606.6907713999972,609.6673501000041,indoor,f,609.6673943000205,,,609.6674067999993,None,,,1.2676229999924544,0.16776059998665005,,,,00035,001,2026-01-16_12h36.17.636,MST_task,2024.2.0,59.79652437939091,2026-01-16 12h36.43.949042 +0530,
,Objects\095a.jpg,140,0,141,,,,,f,None,,,1.3403251999989152,0.15209330001380295,,,,141,0,140,609.6842540999933,,,,,,,,,,,,,,,,,,,,,,,609.6675098999985,609.6842540999933,610.1691547000082,,,,,,,,,,,,,,,,,,,,610.1824645000161,610.2026076000184,610.2026076000184,610.2026076000184,613.1796786000195,shoe,f,613.1816920000128,,,613.1817147000111,None,,,1.3403251999989152,0.15209330001380295,,,,00035,001,2026-01-16_12h36.17.636,MST_task,2024.2.0,59.79652437939091,2026-01-16 12h36.43.949042 +0530,
,Objects\216a.jpg,141,0,142,,,,,f,None,,,1.5950147000257857,0.14433909999206662,,,,142,0,141,613.1965830000117,,,,,,,,,,,,,,,,,,,,,,,613.1818242000008,613.1965830000117,613.6816842000117,,,,,,,,,,,,613.7149180000124,,,,,,,,613.693041999999,613.7149180000124,613.7149180000124,613.7149180000124,616.6920809000148,shoe,f,616.6921229000145,,,616.6921364000009,None,,,1.5950147000257857,0.14433909999206662,,,,00035,001,2026-01-16_12h36.17.636,MST_task,2024.2.0,59.79652437939091,2026-01-16 12h36.43.949042 +0530,
,Objects\218a.jpg,142,0,143,,,,,j,None,,,1.283785000006901,0.16800529998727143,,,,143,0,142,616.708669900021,,,,,,,,,,,,,,,,,,,,,,,616.6922058000055,616.708669900021,617.1938699000166,,,,,,,,,,,,,,,,,,,,617.2020379000169,617.2103526999999,617.2103526999999,617.2103526999999,620.2043713000021,shoe,j,620.2045586000022,,,620.2045718000154,None,,,1.283785000006901,0.16800529998727143,,,,00035,001,2026-01-16_12h36.17.636,MST_task,2024.2.0,59.79652437939091,2026-01-16 12h36.43.949042 +0530,
,Objects\279a.jpg,143,0,144,,,,,j,None,,,1.395351599989226,0.14360619999933988,,,,144,0,143,620.2214795000036,,,,,,,,,,,,,,,,,,,,,,,620.2046933000092,620.2214795000036,620.7061576000124,,,,,,,,,,,,,,,,,,,,620.7234824000043,620.7393880000163,620.7393880000163,620.7393880000163,623.7165711999987,shoe,j,623.7166205999965,,,623.7166330000036,None,,,1.395351599989226,0.14360619999933988,,,,00035,001,2026-01-16_12h36.17.636,MST_task,2024.2.0,59.79652437939091,2026-01-16 12h36.43.949042 +0530,
,Objects\311a.jpg,144,0,145,,,,,j,None,,,1.2662924000178464,0.15933589998167008,,,,145,0,144,623.7335134000168,,,,,,,,,,,,,,,,,,,,,,,623.7167050999997,623.7335134000168,624.2183591999928,,,,,,,,,,,,,,,,,,,,624.23038980001,624.2523328000098,624.2523328000098,624.2523328000098,627.2289563000086,shoe,j,627.2289981000067,,,627.2290097000077,None,,,1.2662924000178464,0.15933589998167008,,,,00035,001,2026-01-16_12h36.17.636,MST_task,2024.2.0,59.79652437939091,2026-01-16 12h36.43.949042 +0530,
,Objects\323a.jpg,145,0,146,,,,,f,None,,,1.099052000005031,0.1517368000058923,,,,146,0,145,627.2455520000076,,,,,,,,,,,,,,,,,,,,,,,627.2290787000093,627.2455520000076,627.7308243000007,,,,,,,,,,,,,,,,,,,,627.7477972000197,627.764112600009,627.764112600009,627.764112600009,630.7413082999992,shoe,f,630.7413517000095,,,630.741371000011,None,,,1.099052000005031,0.1517368000058923,,,,00035,001,2026-01-16_12h36.17.636,MST_task,2024.2.0,59.79652437939091,2026-01-16 12h36.43.949042 +0530,
,Objects\084a.jpg,146,0,147,,,,,j,None,,,1.1150360999745317,0.13649030000669882,,,,147,0,146,630.7577706000011,,,,,,,,,,,,,,,,,,,,,,,630.7414538000012,630.7577706000011,631.243246900005,,,,,,,,,,,,,,,,,,,,631.251175900019,631.2592020000156,631.2592020000156,631.2592020000156,634.2537433000107,shoe,j,634.2537937000161,,,634.2538071000017,None,,,1.1150360999745317,0.13649030000669882,,,,00035,001,2026-01-16_12h36.17.636,MST_task,2024.2.0,59.79652437939091,2026-01-16 12h36.43.949042 +0530,
,Objects\357a.jpg,147,0,148,,,,,f,None,,,0.8575935999979265,0.16905260001658462,,,,148,0,147,634.2709753999952,,,,,,,,,,,,,,,,,,,,,,,634.2540491000109,634.2709753999952,634.7553729999927,,,,,,,,,,,,,,,,,,,,634.7674381000106,634.788709400018,634.788709400018,634.788709400018,637.7657389999949,indoor,f,637.7672896000149,,,637.7673057999928,None,,,0.8575935999979265,0.16905260001658462,,,,00035,001,2026-01-16_12h36.17.636,MST_task,2024.2.0,59.79652437939091,2026-01-16 12h36.43.949042 +0530,
,Objects\146a.jpg,148,0,149,,,,,j,None,,,2.5773457000032067,0.13666340001509525,,,,149,0,148,637.7825770000054,,,,,,,,,,,,,,,,,,,,,,,637.7673728000082,637.7825770000054,638.2675423000182,,,,,,,,,,,,,,,,,,,,638.2783943999966,638.3010133999924,638.3010133999924,638.3010133999924,641.278376000002,indoor,j,641.2784195000131,,,641.2784319000202,None,,,2.5773457000032067,0.13666340001509525,,,,00035,001,2026-01-16_12h36.17.636,MST_task,2024.2.0,59.79652437939091,2026-01-16 12h36.43.949042 +0530,
,Objects\330a.jpg,149,0,150,,,,,f,None,,,2.010333599988371,0.12729070000932552,,,,150,0,149,641.2948654000065,,,,,,,,,,,,,,,,,,,,,,,641.2785014999972,641.2948654000065,641.7797303000116,,,,,,,,,,,,,,,,,,,,641.7968915000092,641.8131863000162,641.8131863000162,641.8131863000162,644.7904256000184,indoor,f,644.7907372000045,,,644.7907499000139,None,,,2.010333599988371,0.12729070000932552,,,,00035,001,2026-01-16_12h36.17.636,MST_task,2024.2.0,59.79652437939091,2026-01-16 12h36.43.949042 +0530,
,Objects\182a.jpg,150,0,151,,,,,j,None,,,2.728346399992006,0.09698659999412484,,,,151,0,150,644.8071861000208,,,,,,,,,,,,,,,,,,,,,,,644.7908223000122,644.8071861000208,645.2921366000082,,,,,,,,,,,,,,,,,,,,645.3098622999969,645.3256143000035,645.3256143000035,645.3256143000035,648.3026504000009,indoor,j,648.3026937000104,,,648.3027057000145,None,,,2.728346399992006,0.09698659999412484,,,,00035,001,2026-01-16_12h36.17.636,MST_task,2024.2.0,59.79652437939091,2026-01-16 12h36.43.949042 +0530,
,Objects\164a.jpg,151,0,152,,,,,j,None,,,2.064840200007893,0.1512912000180222,,,,152,0,151,648.3194757000019,,,,,,,,,,,,,,,,,,,,,,,648.3027740000107,648.3194757000019,648.804494800017,,,,,,,,,,,,,,,,,,,,648.8152891000209,648.8379770000174,648.8379770000174,648.8379770000174,651.8153377000126,indoor,j,651.8153805000184,,,651.8153924999933,None,,,2.064840200007893,0.1512912000180222,,,,00035,001,2026-01-16_12h36.17.636,MST_task,2024.2.0,59.79652437939091,2026-01-16 12h36.43.949042 +0530,
,Objects\067a.jpg,152,0,153,,,,,f,None,,,2.080533700005617,0.17588090000208467,,,,153,0,152,651.8316656000097,,,,,,,,,,,,,,,,,,,,,,,651.8154606000171,651.8316656000097,652.3168611000001,,,,,,,,,,,,,,,,,,,,652.3278893000097,652.3500880000065,652.3500880000065,652.3500880000065,655.3273390000104,indoor,f,655.3274230000097,,,655.3274380000075,None,,,2.080533700005617,0.17588090000208467,,,,00035,001,2026-01-16_12h36.17.636,MST_task,2024.2.0,59.79652437939091,2026-01-16 12h36.43.949042 +0530,
,Objects\151a.jpg,153,0,154,,,,,f,None,,,1.1284847999922931,0.17644089998793788,,,,154,0,153,655.3441484000068,,,,,,,,,,,,,,,,,,,,,,,655.3275121000188,655.3441484000068,655.8290744000115,,,,,,,,,,,,,,,,,,,,655.83207210002,655.845773500012,655.845773500012,655.845773500012,658.839561700006,indoor,f,658.839604000008,,,658.8396152000059,None,,,1.1284847999922931,0.17644089998793788,,,,00035,001,2026-01-16_12h36.17.636,MST_task,2024.2.0,59.79652437939091,2026-01-16 12h36.43.949042 +0530,
,Objects\280a.jpg,154,0,155,,,,,j,None,,,1.2878460000210907,0.15268359999754466,,,,155,0,154,658.8563755000068,,,,,,,,,,,,,,,,,,,,,,,658.8396850000136,658.8563755000068,659.3413355000084,,,,,,,,,,,,,,,,,,,,659.3464019999956,659.3581130999955,659.3581130999955,659.3581130999955,662.352052000002,shoe,j,662.3539493000135,,,662.3539682000119,None,,,1.2878460000210907,0.15268359999754466,,,,00035,001,2026-01-16_12h36.17.636,MST_task,2024.2.0,59.79652437939091,2026-01-16 12h36.43.949042 +0530,
,Objects\308a.jpg,155,0,156,,,,,f,None,,,1.1111776999896392,0.16790430000401102,,,,156,0,155,662.3686698999954,,,,,,,,,,,,,,,,,,,,,,,662.3540379000187,662.3686698999954,662.853840900003,,,,,,,,,,,,662.8870990000141,,,,,,,,662.8651730999991,662.8870990000141,662.8870990000141,662.8870990000141,665.8644154000212,shoe,f,665.8644585000002,,,665.864498800016,None,,,1.1111776999896392,0.16790430000401102,,,,00035,001,2026-01-16_12h36.17.636,MST_task,2024.2.0,59.79652437939091,2026-01-16 12h36.43.949042 +0530,
,Objects\050a.jpg,156,0,157,,,,,f,None,,,1.1433336999907624,0.19962040000245906,,,,157,0,156,665.8810199,,,,,,,,,,,,,,,,,,,,,,,665.8645726999966,665.8810199,666.3661585999944,,,,,,,,,,,,,,,,,,,,666.3789120000147,666.3992972999986,666.3992972999986,666.3992972999986,669.3765719000075,shoe,f,669.3766147000133,,,669.3766274999944,None,,,1.1433336999907624,0.19962040000245906,,,,00035,001,2026-01-16_12h36.17.636,MST_task,2024.2.0,59.79652437939091,2026-01-16 12h36.43.949042 +0530,
,Objects\189a.jpg,157,0,158,,,,,j,None,,,1.2155956999922637,0.18438180000521243,,,,158,0,157,669.3932823000068,,,,,,,,,,,,,,,,,,,,,,,669.3766964999959,669.3932823000068,669.8782891000155,,,,,,,,,,,,,,,,,,,,669.8819440999941,669.8949775999936,669.8949775999936,669.8949775999936,672.8887288999977,shoe,j,672.8887739000202,,,672.8887871000043,None,,,1.2155956999922637,0.18438180000521243,,,,00035,001,2026-01-16_12h36.17.636,MST_task,2024.2.0,59.79652437939091,2026-01-16 12h36.43.949042 +0530,
,Objects\068a.jpg,158,0,159,,,,,f,None,,,1.4466762999945786,0.17607409998890944,,,,159,0,158,672.905568999995,,,,,,,,,,,,,,,,,,,,,,,672.8893141000008,672.905568999995,673.3905289999966,,,,,,,,,,,,,,,,,,,,673.4018693999969,673.4239990000206,673.4239990000206,673.4239990000206,676.4011305000167,shoe,f,676.4013268999988,,,676.4013413999928,None,,,1.4466762999945786,0.17607409998890944,,,,00035,001,2026-01-16_12h36.17.636,MST_task,2024.2.0,59.79652437939091,2026-01-16 12h36.43.949042 +0530,
,Objects\184a.jpg,159,0,160,,,,,j,None,,,2.0219455000187736,0.15162779999081977,,,,160,0,159,676.4177383000206,,,,,,,,,,,,,,,,,,,,,,,676.4014154000033,676.4177383000206,676.9029668000003,,,,,,,,,,,,,,,,,,,,676.9145870000066,676.9361750000098,676.9361750000098,676.9361750000098,679.9133080000174,shoe,j,679.9133494000125,,,679.9133619000204,None,,,2.0219455000187736,0.15162779999081977,,,,00035,001,2026-01-16_12h36.17.636,MST_task,2024.2.0,59.79652437939091,2026-01-16 12h36.43.949042 +0530,
,Objects\383a.jpg,160,0,161,,,,,f,None,,,2.8617317999887746,0.03162940000765957,,,,161,0,160,679.9301632000133,,,,,,,,,,,,,,,,,,,,,,,679.9136182999937,679.9301632000133,680.4154438000114,,,,,,,,,,,,,,,,,,,,680.4312268999929,680.4484865000122,680.4484865000122,680.4484865000122,683.4256288000033,shoe,f,683.4256725000159,,,683.4256844000192,None,,,2.8617317999887746,0.03162940000765957,,,,00035,001,2026-01-16_12h36.17.636,MST_task,2024.2.0,59.79652437939091,2026-01-16 12h36.43.949042 +0530,
,Objects\203a.jpg,161,0,162,,,,,f,None,,,1.6692006000084803,0.1775142000115011,,,,162,0,161,683.4424769000034,,,,,,,,,,,,,,,,,,,,,,,683.4257538999955,683.4424769000034,683.9274379000126,,,,,,,,,,,,,,,,,,,,683.9478990000207,683.9610240000184,683.9610240000184,683.9610240000184,686.9384654000169,indoor,f,686.9397613000183,,,686.939782100002,None,,,1.6692006000084803,0.1775142000115011,,,,00035,001,2026-01-16_12h36.17.636,MST_task,2024.2.0,59.79652437939091,2026-01-16 12h36.43.949042 +0530,
,Objects\229a.jpg,162,0,163,,,,,j,None,,,1.941627599997446,0.18330649999552406,,,,163,0,162,686.9546591000108,,,,,,,,,,,,,,,,,,,,,,,686.9398528000165,686.9546591000108,687.439844700013,,,,,,,,,,,,,,,,,,,,687.4562321999983,687.473109500017,687.473109500017,687.473109500017,690.4502236999979,indoor,j,690.4502687000204,,,690.4502806999953,None,,,1.941627599997446,0.18330649999552406,,,,00035,001,2026-01-16_12h36.17.636,MST_task,2024.2.0,59.79652437939091,2026-01-16 12h36.43.949042 +0530,
,Objects\116a.jpg,163,0,164,,,,,j,None,,,1.2050257999799214,0.16777040000306442,,,,164,0,163,690.4670777000138,,,,,,,,,,,,,,,,,,,,,,,690.4503530999937,690.4670777000138,690.9520890999993,,,,,,,,,,,,,,,,,,,,690.9712983999925,690.9856231000158,690.9856231000158,690.9856231000158,693.9629335000063,indoor,j,693.9629762000113,,,693.9629881000146,None,,,1.2050257999799214,0.16777040000306442,,,,00035,001,2026-01-16_12h36.17.636,MST_task,2024.2.0,59.79652437939091,2026-01-16 12h36.43.949042 +0530,
,Objects\257a.jpg,164,0,165,,,,,f,None,,,1.2045913000183646,0.16765159997157753,,,,165,0,164,693.9792487999948,,,,,,,,,,,,,,,,,,,,,,,693.9630695999949,693.9792487999948,694.4650701000064,,,,,,,,,,,,,,,,,,,,694.4807280999958,694.4976730000053,694.4976730000053,694.4976730000053,697.4749330000195,indoor,f,697.4749745000154,,,697.4749862000172,None,,,1.2045913000183646,0.16765159997157753,,,,00035,001,2026-01-16_12h36.17.636,MST_task,2024.2.0,59.79652437939091,2026-01-16 12h36.43.949042 +0530,
,Objects\167a.jpg,165,0,166,,,,,j,None,,,1.604807299998356,0.1512184999883175,,,,166,0,165,697.4915398000157,,,,,,,,,,,,,,,,,,,,,,,697.4750556999934,697.4915398000157,697.9767647999979,,,,,,,,,,,,,,,,,,,,697.9934328999952,698.0100873000047,698.0100873000047,698.0100873000047,700.9871385000006,indoor,j,700.9871805000002,,,700.9871934000112,None,,,1.604807299998356,0.1512184999883175,,,,00035,001,2026-01-16_12h36.17.636,MST_task,2024.2.0,59.79652437939091,2026-01-16 12h36.43.949042 +0530,
,Objects\015a.jpg,166,0,167,,,,,j,None,,,1.1645468000206165,0.18446920000133105,,,,167,0,166,701.0039587999927,,,,,,,,,,,,,,,,,,,,,,,700.9876459999941,701.0039587999927,701.4889408000163,,,,,,,,,,,,,,,,,,,,701.4927055000153,701.5056641999981,701.5056641999981,701.5056641999981,704.4996436999936,indoor,j,704.499698700005,,,704.4997101000044,None,,,1.1645468000206165,0.18446920000133105,,,,00035,001,2026-01-16_12h36.17.636,MST_task,2024.2.0,59.79652437939091,2026-01-16 12h36.43.949042 +0530,
,Objects\032a.jpg,167,0,168,,,,,j,None,,,1.0277064999972936,0.15950740000698715,,,,168,0,167,704.5162694000173,,,,,,,,,,,,,,,,,,,,,,,704.500045599998,704.5162694000173,705.001237599994,,,,,,,,,,,,,,,,,,,,705.0121634000097,705.0347067000112,705.0347067000112,705.0347067000112,708.011728100013,indoor,j,708.0117854000127,,,708.011809699994,None,,,1.0277064999972936,0.15950740000698715,,,,00035,001,2026-01-16_12h36.17.636,MST_task,2024.2.0,59.79652437939091,2026-01-16 12h36.43.949042 +0530,
,Objects\185a.jpg,168,0,169,,,,,f,None,,,1.3157907000277191,0.17551089997868985,,,,169,0,168,708.0285691000172,,,,,,,,,,,,,,,,,,,,,,,708.0120309000195,708.0285691000172,708.5135262999975,,,,,,,,,,,,,,,,,,,,708.5257321000099,708.5470003999944,708.5470003999944,708.5470003999944,711.5243022000068,shoe,f,711.5257377999951,,,711.5257565000211,None,,,1.3157907000277191,0.17551089997868985,,,,00035,001,2026-01-16_12h36.17.636,MST_task,2024.2.0,59.79652437939091,2026-01-16 12h36.43.949042 +0530,
,Objects\345a.jpg,169,0,170,,,,,f,None,,,1.786588799994206,0.17614020002656616,,,,170,0,169,711.5409076999931,,,,,,,,,,,,,,,,,,,,,,,711.5258863000199,711.5409076999931,712.0261785000039,,,,,,,,,,,,,,,,,,,,712.0373034999939,712.0593375000171,712.0593375000171,712.0593375000171,715.0367154999985,shoe,f,715.0367568999936,,,715.0367695000023,None,,,1.786588799994206,0.17614020002656616,,,,00035,001,2026-01-16_12h36.17.636,MST_task,2024.2.0,59.79652437939091,2026-01-16 12h36.43.949042 +0530,
,Objects\250a.jpg,170,0,171,,,,,f,None,,,1.3626920999959111,0.1524546000000555,,,,171,0,170,715.0530443000025,,,,,,,,,,,,,,,,,,,,,,,715.0368383000023,715.0530443000025,715.538270399993,,,,,,,,,,,,,,,,,,,,715.5544035000203,715.5714649000147,715.5714649000147,715.5714649000147,718.5486404999974,shoe,f,718.548695800011,,,718.5487081000174,None,,,1.3626920999959111,0.1524546000000555,,,,00035,001,2026-01-16_12h36.17.636,MST_task,2024.2.0,59.79652437939091,2026-01-16 12h36.43.949042 +0530,
,Objects\094a.jpg,171,0,172,,,,,f,None,,,1.3943582000210881,0.17593090000445955,,,,172,0,171,718.5654566000158,,,,,,,,,,,,,,,,,,,,,,,718.5489249000093,718.5654566000158,719.0504294999992,,,,,,,,,,,,,,,,,,,,719.067541700002,719.0838877999922,719.0838877999922,719.0838877999922,722.0614364000212,shoe,f,722.0614918000065,,,722.0615039000113,None,,,1.3943582000210881,0.17593090000445955,,,,00035,001,2026-01-16_12h36.17.636,MST_task,2024.2.0,59.79652437939091,2026-01-16 12h36.43.949042 +0530,
,Objects\306a.jpg,172,0,173,,,,,f,None,,,1.1146796000248287,0.16751989998738281,,,,173,0,172,722.0777503999998,,,,,,,,,,,,,,,,,,,,,,,722.0616053999984,722.0777503999998,722.5633305000083,,,,,,,,,,,,,,,,,,,,722.57940040002,722.5962344,722.5962344,722.5962344,725.573240800004,shoe,f,725.5732867000042,,,725.5732989000098,None,,,1.1146796000248287,0.16751989998738281,,,,00035,001,2026-01-16_12h36.17.636,MST_task,2024.2.0,59.79652437939091,2026-01-16 12h36.43.949042 +0530,
,Objects\037a.jpg,173,0,174,,,,,f,None,,,0.9697804999887012,0.19169900001725182,,,,174,0,173,725.5900627000083,,,,,,,,,,,,,,,,,,,,,,,725.5734229999944,725.5900627000083,726.075437099993,,,,,,,,,,,,,,,,,,,,726.0944691000041,726.1084909000201,726.1084909000201,726.1084909000201,729.0856702000019,shoe,f,729.0857147000206,,,729.0857274000009,None,,,0.9697804999887012,0.19169900001725182,,,,00035,001,2026-01-16_12h36.17.636,MST_task,2024.2.0,59.79652437939091,2026-01-16 12h36.43.949042 +0530,
,Objects\157a.jpg,174,0,175,,,,,f,None,,,0.9213738000253215,0.13619729998754337,,,,175,0,174,729.1022285000072,,,,,,,,,,,,,,,,,,,,,,,729.0858488999947,729.1022285000072,729.5875459999952,,,,,,,,,,,,,,,,,,,,729.5986592000118,729.6207835999958,729.6207835999958,729.6207835999958,732.5981049000111,shoe,f,732.5981597000209,,,732.5981734000088,None,,,0.9213738000253215,0.13619729998754337,,,,00035,001,2026-01-16_12h36.17.636,MST_task,2024.2.0,59.79652437939091,2026-01-16 12h36.43.949042 +0530,
,Objects\114a.jpg,175,0,176,,,,,f,None,,,2.0898156999901403,0.17590820000623353,,,,176,0,175,732.6145242000057,,,,,,,,,,,,,,,,,,,,,,,732.5982787999965,732.6145242000057,733.0997678000131,,,,,,,,,,,,,,,,,,,,733.111705599993,733.1329616000003,733.1329616000003,733.1329616000003,736.1101192999922,indoor,f,736.1113818000013,,,736.1114110000199,None,,,2.0898156999901403,0.17590820000623353,,,,00035,001,2026-01-16_12h36.17.636,MST_task,2024.2.0,59.79652437939091,2026-01-16 12h36.43.949042 +0530,
,Objects\109a.jpg,176,0,177,,,,,j,None,,,2.273554500017781,0.112278199987486,,,,177,0,176,736.126943500014,,,,,,,,,,,,,,,,,,,,,,,736.111482200009,736.126943500014,736.6119468999968,,,,,,,,,,,,,,,,,,,,736.6145993999962,736.6286476000096,736.6286476000096,736.6286476000096,739.6224024000112,indoor,j,739.6224577999965,,,739.6224855000037,None,,,2.273554500017781,0.112278199987486,,,,00035,001,2026-01-16_12h36.17.636,MST_task,2024.2.0,59.79652437939091,2026-01-16 12h36.43.949042 +0530,
,Objects\005a.jpg,177,0,178,,,,,j,None,,,2.84064650000073,0.11200180000741966,,,,178,0,177,739.6392344000051,,,,,,,,,,,,,,,,,,,,,,,739.622564499994,739.6392344000051,740.124224500003,,,,,,,,,,,,,,,,,,,,740.1356932000199,740.1576719000004,740.1576719000004,740.1576719000004,743.1350237000152,indoor,j,743.1350672999979,,,743.135079300002,None,,,2.84064650000073,0.11200180000741966,,,,00035,001,2026-01-16_12h36.17.636,MST_task,2024.2.0,59.79652437939091,2026-01-16 12h36.43.949042 +0530,
,Objects\366a.jpg,178,0,179,,,,,j,None,,,1.6886308999964967,0.15225779998581856,,,,179,0,178,743.1516568000079,,,,,,,,,,,,,,,,,,,,,,,743.1351471999951,743.1516568000079,743.6369438999973,,,,,,,,,,,,,,,,,,,,743.6468277999957,743.6698538000055,743.6698538000055,743.6698538000055,746.647010500019,indoor,j,746.6470524000179,,,746.6470643000212,None,,,1.6886308999964967,0.15225779998581856,,,,00035,001,2026-01-16_12h36.17.636,MST_task,2024.2.0,59.79652437939091,2026-01-16 12h36.43.949042 +0530,
,Objects\214a.jpg,179,0,180,,,,,f,None,,,1.5681718999985605,0.18333860000711866,,,,180,0,179,746.6638513999933,,,,,,,,,,,,,,,,,,,,,,,746.6471335999959,746.6638513999933,747.148950200004,,,,,,,,,,,,,,,,,,,,747.1601584000164,747.1822709999979,747.1822709999979,747.1822709999979,750.1594182999979,indoor,f,750.1594707000186,,,750.1594827999943,None,,,1.5681718999985605,0.18333860000711866,,,,00035,001,2026-01-16_12h36.17.636,MST_task,2024.2.0,59.79652437939091,2026-01-16 12h36.43.949042 +0530,
,Objects\162a.jpg,180,0,181,,,,,f,None,,,2.143859900010284,0.159521900000982,,,,181,0,180,750.1761421000119,,,,,,,,,,,,,,,,,,,,,,,750.1595569000056,750.1761421000119,750.6611207000096,,,,,,,,,,,,,,,,,,,,750.6723106999998,750.6945673000009,750.6945673000009,750.6945673000009,753.671720400016,indoor,f,753.6717626000172,,,753.6717746000213,None,,,2.143859900010284,0.159521900000982,,,,00035,001,2026-01-16_12h36.17.636,MST_task,2024.2.0,59.79652437939091,2026-01-16 12h36.43.949042 +0530,
,Objects\002a.jpg,181,0,182,,,,,f,None,,,1.919941900006961,0.15169430000241846,,,,182,0,181,753.688578500005,,,,,,,,,,,,,,,,,,,,,,,753.6718462000135,753.688578500005,754.1737001000147,,,,,,,,,,,,,,,,,,,,754.18487680002,754.2069282000011,754.2069282000011,754.2069282000011,757.1839137999923,indoor,f,757.1839600999956,,,757.1839720999997,None,,,1.919941900006961,0.15169430000241846,,,,00035,001,2026-01-16_12h36.17.636,MST_task,2024.2.0,59.79652437939091,2026-01-16 12h36.43.949042 +0530,
,Objects\180a.jpg,182,0,183,,,,,f,None,,,1.71069730000454,0.16006280001602136,,,,183,0,182,757.2007412000094,,,,,,,,,,,,,,,,,,,,,,,757.1840566000028,757.2007412000094,757.6858706000203,,,,,,,,,,,,,,,,,,,,757.6988668999984,757.7193252000143,757.7193252000143,757.7193252000143,760.6965453000157,shoe,f,760.6981322999927,,,760.6981498000096,None,,,1.71069730000454,0.16006280001602136,,,,00035,001,2026-01-16_12h36.17.636,MST_task,2024.2.0,59.79652437939091,2026-01-16 12h36.43.949042 +0530,
,Objects\128a.jpg,183,0,184,,,,,f,None,,,1.5671107999805827,0.1685396000102628,,,,184,0,183,760.7129263000097,,,,,,,,,,,,,,,,,,,,,,,760.698219700018,760.7129263000097,761.1982897999987,,,,,,,,,,,,761.2313566000084,,,,,,,,761.2092828000023,761.2313566000084,761.2313566000084,761.2313566000084,764.2084881000046,shoe,f,764.2085412000015,,,764.2085548000177,None,,,1.5671107999805827,0.1685396000102628,,,,00035,001,2026-01-16_12h36.17.636,MST_task,2024.2.0,59.79652437939091,2026-01-16 12h36.43.949042 +0530,
,Objects\124a.jpg,184,0,185,,,,,j,None,,,1.1342794999945909,0.16912050000973977,,,,185,0,184,764.225345200015,,,,,,,,,,,,,,,,,,,,,,,764.2086307000136,764.225345200015,764.7104943000013,,,,,,,,,,,,,,,,,,,,764.7222098000057,764.7437796000158,764.7437796000158,764.7437796000158,767.720810800005,shoe,j,767.7209680000087,,,767.7209860000003,None,,,1.1342794999945909,0.16912050000973977,,,,00035,001,2026-01-16_12h36.17.636,MST_task,2024.2.0,59.79652437939091,2026-01-16 12h36.43.949042 +0530,
,Objects\046a.jpg,185,0,186,,,,,f,None,,,1.5184845000039786,0.18402009998681024,,,,186,0,185,767.7377865000162,,,,,,,,,,,,,,,,,,,,,,,767.721102200012,767.7377865000162,768.2227549999952,,,,,,,,,,,,,,,,,,,,768.2338388999924,768.2560832000163,768.2560832000163,768.2560832000163,771.2334258000192,shoe,f,771.2334670000128,,,771.2334793000191,None,,,1.5184845000039786,0.18402009998681024,,,,00035,001,2026-01-16_12h36.17.636,MST_task,2024.2.0,59.79652437939091,2026-01-16 12h36.43.949042 +0530,
