Sl_no,image_path,thisN,thisTrialN,thisRepN,key_resp_5.keys,key_resp_7.keys,key_resp_7.rt,key_resp_7.duration,key_resp_5.rt,key_resp_5.duration,key_resp_9.keys,key_resp_9.rt,key_resp_9.duration,key_resp_8.keys,key_resp_8.rt,key_resp_8.duration,practice.thisRepN,practice.thisTrialN,practice.thisN,trials.thisRepN,trials.thisTrialN,trials.thisN,thisRow.t,notes,welcome_page.started,text.started,key_resp.started,welcome_page.stopped,key_resp.keys,key_resp.rt,key_resp.duration,instructions.started,ins.started,key_resp_2.started,instructions.stopped,key_resp_2.keys,key_resp_2.rt,key_resp_2.duration,objects_only_instruction.started,text_3.started,key_resp_3.started,objects_only_instruction.stopped,key_resp_3.keys,key_resp_3.rt,key_resp_3.duration,ISI.started,text_4.started,ISI.stopped,practice_block.started,image.started,key_resp_5.started,text_5.started,practice_block.stopped,practice.key_resp_5.keys,indoor_outdoor.started,text_7.started,key_resp_7.started,indoor_outdoor.stopped,practice.key_resp_7.keys,practice.key_resp_7.rt,practice.key_resp_7.duration,text_4.stopped,image.stopped,key_resp_5.stopped,text_5.stopped,practice.key_resp_5.rt,practice.key_resp_5.duration,practice_to_main.started,text_2.started,key_resp_4.started,practice_to_main.stopped,key_resp_4.keys,key_resp_4.rt,key_resp_4.duration,objects.started,image_2.started,text_9.started,key_resp_9.started,objects.stopped,category,trials.key_resp_9.keys,trials.key_resp_9.rt,trials.key_resp_9.duration,encoding_task.started,encoding_task.stopped,trials.key_resp_8.keys,text_8.started,key_resp_8.started,trials.key_resp_8.rt,trials.key_resp_8.duration,image_2.stopped,text_9.stopped,key_resp_9.stopped,end_experiment.started,text_6.started,key_resp_6.started,end_experiment.stopped,key_resp_6.keys,key_resp_6.rt,key_resp_6.duration,list_of_stimuli,encoding_task_accuracy,participant,session,date,expName,psychopyVersion,frameRate,expStart,
,,,,,,,,,,,,,,,,,,,,,,,,,0.001824000000851811,0.003985600000305567,0.003985600000305567,1389.924729100001,space,1389.9110664,None,,,,,,,,,,,,,,,,,,,,,,,,,,,,,,,,,,,,,,,,,,,,,,,,,,,,,,,,,,,,,,,,,,,,,,,,00032,001,2025-11-17_18h52.18.098,MST_task,2024.2.0,60.164381122024466,2025-11-17 18h52.41.619671 +0530,
,,,,,,,,,,,,,,,,,,,,,,,,,,,,,,,,1389.9248098000007,1389.9369757000004,1389.9369757000004,1436.7372323,space,46.786000300000524,None,,,,,,,,,,,,,,,,,,,,,,,,,,,,,,,,,,,,,,,,,,,,,,,,,,,,,,,,,,,,,,,,,00032,001,2025-11-17_18h52.18.098,MST_task,2024.2.0,60.164381122024466,2025-11-17 18h52.41.619671 +0530,
,,,,,,,,,,,,,,,,,,,,,,,,,,,,,,,,,,,,,,,1436.7373593000011,1436.754062,1436.754062,1451.2865536999998,space,14.529979000000822,None,,,,,,,,,,,,,,,,,,,,,,,,,,,,,,,,,,,,,,,,,,,,,,,,,,,,,,,,,,00032,001,2025-11-17_18h52.18.098,MST_task,2024.2.0,60.164381122024466,2025-11-17 18h52.41.619671 +0530,
2,practice_images/031a.jpg,0,0,1,None,f,9.561451000001398,None,,,,,,,,,1,0,0,,,,1451.3082591999992,,,,,,,,,,,,,,,,,,,,,,,1451.3060141000024,1451.3082591999992,1451.8021393999989,1451.8253181,1451.8374369000012,1451.8374369000012,1451.8374369000012,1454.8022471000004,None,1454.8073116000014,1454.8182444000013,1454.8182444000013,1464.3874343999996,f,9.561451000001398,None,,,,,,,,,,,,,,,,,,,,,,,,,,,,,,,,,,,,,,,,,,00032,001,2025-11-17_18h52.18.098,MST_task,2024.2.0,60.164381122024466,2025-11-17 18h52.41.619671 +0530,
5,practice_images/139a.jpg,1,1,1,None,j,4.5973874000010255,None,,,,,,,,,1,1,1,,,,1464.401886800002,,,,,,,,,,,,,,,,,,,,,,,1464.3878392000006,1464.401886800002,1464.886437000001,1464.8996202999988,1464.9020251000002,1464.9020251000002,1464.9020251000002,1467.8867037000018,None,1467.8868662999994,1467.9019504999997,1467.9019504999997,1472.5038916000012,j,4.5973874000010255,None,1464.9020251000002,1467.9019504999997,1467.9019504999997,1467.9019504999997,,,,,,,,,,,,,,,,,,,,,,,,,,,,,,,,,,,,,,00032,001,2025-11-17_18h52.18.098,MST_task,2024.2.0,60.164381122024466,2025-11-17 18h52.41.619671 +0530,
1,practice_images/013a.jpg,2,2,1,None,j,1.3358535999977903,None,,,,,,,,,1,2,2,,,,1472.5186103000015,,,,,,,,,,,,,,,,,,,,,,,1472.504237199999,1472.5186103000015,1473.0027243000004,1473.017479500002,1473.0199954000018,1473.0199954000018,1473.0199954000018,1476.0190863999997,None,1476.019213399999,1476.0349800000004,1476.0349800000004,1477.3869693000015,j,1.3358535999977903,None,1473.0199954000018,,,,,,,,,,,,,,,,,,,,,,,,,,,,,,,,,,,,,,,,,00032,001,2025-11-17_18h52.18.098,MST_task,2024.2.0,60.164381122024466,2025-11-17 18h52.41.619671 +0530,
6,practice_images/158a.jpg,3,3,1,None,j,1.637080700002116,None,,,,,,,,,1,3,3,,,,1477.4018684000002,,,,,,,,,,,,,,,,,,,,,,,1477.3873488999998,1477.4018684000002,1477.8863082999997,1477.9000035999998,1477.902489,1477.902489,1477.902489,1480.8867863000014,None,1480.8869309000002,1480.9020101000024,1480.9020101000024,1482.553893299999,j,1.637080700002116,None,1477.902489,1480.9020101000024,1480.9020101000024,1480.9020101000024,,,,,,,,,,,,,,,,,,,,,,,,,,,,,,,,,,,,,,00032,001,2025-11-17_18h52.18.098,MST_task,2024.2.0,60.164381122024466,2025-11-17 18h52.41.619671 +0530,
9,practice_images/180a.jpg,4,4,1,None,f,3.0624862000004214,None,,,,,,,,,1,4,4,,,,1482.5686150000001,,,,,,,,,,,,,,,,,,,,,,,1482.5542253999993,1482.5686150000001,1483.0531389999996,1483.0651283000007,1483.0687122000018,1483.0687122000018,1483.0687122000018,1486.0533517000003,None,1486.0534937000011,1486.0687380000018,1486.0687380000018,1489.1374217000011,f,3.0624862000004214,None,1483.0687122000018,1486.0687380000018,1486.0687380000018,1486.0687380000018,,,,,,,,,,,,,,,,,,,,,,,,,,,,,,,,,,,,,,00032,001,2025-11-17_18h52.18.098,MST_task,2024.2.0,60.164381122024466,2025-11-17 18h52.41.619671 +0530,
7,practice_images/166a.jpg,5,5,1,None,f,48.343467700000474,None,,,,,,,,,1,5,5,,,,1489.151974700002,,,,,,,,,,,,,,,,,,,,,,,1489.1377810000013,1489.151974700002,1489.6364964000022,1489.650592099999,1489.6530093000001,1489.6530093000001,1489.6530093000001,1492.6367815000012,None,1492.643469499999,1492.6516505,1492.6516505,1541.003990000001,f,48.343467700000474,None,1489.6530093000001,1492.6516505,1492.6516505,1492.6516505,,,,,,,,,,,,,,,,,,,,,,,,,,,,,,,,,,,,,,00032,001,2025-11-17_18h52.18.098,MST_task,2024.2.0,60.164381122024466,2025-11-17 18h52.41.619671 +0530,
10,practice_images/182a.jpg,6,6,1,None,f,1.4126328000020294,None,,,,,,,,,1,6,6,,,,1541.0186145000007,,,,,,,,,,,,,,,,,,,,,,,1541.0043284999992,1541.0186145000007,1541.5029149000002,1541.5193800000015,1541.5218724000006,1541.5218724000006,1541.5218724000006,1544.5190733000018,None,1544.5192076999992,1544.5350136000015,1544.5350136000015,1545.953742400001,f,1.4126328000020294,None,1541.5218724000006,,,,,,,,,,,,,,,,,,,,,,,,,,,,,,,,,,,,,,,,,00032,001,2025-11-17_18h52.18.098,MST_task,2024.2.0,60.164381122024466,2025-11-17 18h52.41.619671 +0530,
8,practice_images/178a.jpg,7,7,1,f,None,,,2.5107852000001003,0.14399039999989327,,,,,,,1,7,7,,,,1545.9683114,,,,,,,,,,,,,,,,,,,,,,,1545.9540321000022,1545.9683114,1546.4528914000002,1546.4655033999989,1546.4685941999996,1546.4685941999996,1546.4685941999996,1549.4531896000008,f,1549.4533563000005,,,1549.4534172999993,None,,,1546.4685941999996,1549.4684245999997,1549.4684245999997,1549.4684245999997,2.5107852000001003,0.14399039999989327,,,,,,,,,,,,,,,,,,,,,,,,,,,,,,,,,,,,00032,001,2025-11-17_18h52.18.098,MST_task,2024.2.0,60.164381122024466,2025-11-17 18h52.41.619671 +0530,
4,practice_images/002b.jpg,8,8,1,j,None,,,1.8742877999975462,0.15253429999938817,,,,,,,1,8,8,,,,1549.4684245999997,,,,,,,,,,,,,,,,,,,,,,,1549.4536939999998,1549.4684245999997,1549.9528070000015,1549.9664494999997,1549.9689295999997,1549.9689295999997,1549.9689295999997,1552.9531610000013,j,1552.9533082000016,,,1552.953365100002,None,,,1549.9689295999997,1552.9685758000014,1552.9685758000014,1552.9685758000014,1.8742877999975462,0.15253429999938817,,,,,,,,,,,,,,,,,,,,,,,,,,,,,,,,,,,,00032,001,2025-11-17_18h52.18.098,MST_task,2024.2.0,60.164381122024466,2025-11-17 18h52.41.619671 +0530,
3,practice_images/037a.jpg,9,9,1,None,j,1.5836706000009144,None,,,,,,,,,1,9,9,,,,1552.9685758000014,,,,,,,,,,,,,,,,,,,,,,,1552.9536312000018,1552.9685758000014,1553.4528858000012,1553.4665392999996,1553.4690335000014,1553.4690335000014,1553.4690335000014,1556.4533083000024,None,1556.4534337000005,1556.468501899999,1556.468501899999,1558.0537765000008,j,1.5836706000009144,None,1553.4690335000014,1556.468501899999,1556.468501899999,1556.468501899999,,,,,,,,,,,,,,,,,,,,,,,,,,,,,,,,,,,,,,00032,001,2025-11-17_18h52.18.098,MST_task,2024.2.0,60.164381122024466,2025-11-17 18h52.41.619671 +0530,
,,,,,,,,,,,,,,,,,,,,,,,,,,,,,,,,,,,,,,,,,,,,,,,,,,,,,,,,,,,,,,,,,,,,1558.0539482000022,1558.0682935000004,1558.0682935000004,1606.9039670999991,space,48.82289859999946,None,,,,,,,,,,,,,,,,,,,,,,,,,,,,,00032,001,2025-11-17_18h52.18.098,MST_task,2024.2.0,60.164381122024466,2025-11-17 18h52.41.619671 +0530,
,Objects\258a.jpg,0,0,1,,,,,,,f,2.3063941999971576,0.19138380000003963,None,,,,,,1,0,0,1606.9184496000016,,,,,,,,,,,,,,,,,,,,,,,1606.9064562000021,1606.9184496000016,1607.4029496000003,,,,,,,,,,,,,,1607.4253022000012,,,,,,,,,,,,,1607.4219612000015,1607.4253022000012,1607.4253022000012,1607.4253022000012,1610.419060600001,indoor,f,2.3063941999971576,0.19138380000003963,1610.4245026999997,1610.4245682,None,,,,,,,,,,,,,,,,,00032,001,2025-11-17_18h52.18.098,MST_task,2024.2.0,60.164381122024466,2025-11-17 18h52.41.619671 +0530,
,Objects\187a.jpg,1,0,2,,,,,,,f,2.9525938000006136,None,None,,,,,,2,0,1,1610.434952399999,,,,,,,,,,,,,,,,,,,,,,,1610.424706400001,1610.434952399999,1610.9195901999992,,,,,,,,,,,,,,1610.9384594000003,,,,,,,,,,,,,1610.9353947000018,1610.9384594000003,1610.9384594000003,1610.9384594000003,1613.9356101000012,indoor,f,2.9525938000006136,None,1613.9357821000012,1613.9358395000017,None,,,,,,,,,,,,,,,,,00032,001,2025-11-17_18h52.18.098,MST_task,2024.2.0,60.164381122024466,2025-11-17 18h52.41.619671 +0530,
,Objects\021a.jpg,2,0,3,,,,,,,None,,,f,0.24720109999907436,None,,,,3,0,2,1613.9517895999998,,,,,,,,,,,,,,,,,,,,,,,1613.9361783000022,1613.9517895999998,1614.4361682999988,,,,,,,,,,,,,,1614.453220700001,,,,,,,,,,,,,1614.4505129999998,1614.453220700001,1614.453220700001,1614.453220700001,1617.4522629999992,indoor,None,,,1617.4524093,1617.7202928000006,f,1617.4683831000002,1617.4683831000002,0.24720109999907436,None,,,,,,,,,,,,,00032,001,2025-11-17_18h52.18.098,MST_task,2024.2.0,60.164381122024466,2025-11-17 18h52.41.619671 +0530,
,Objects\132a.jpg,3,0,4,,,,,,,j,2.3401574000017717,0.15262760000041453,None,,,,,,4,0,3,1617.7349892999991,,,,,,,,,,,,,,,,,,,,,,,1617.7206278000012,1617.7349892999991,1618.2199474000008,,,,,,,,,,,,,,1618.2386886999993,,,,,,,,,,,,,1618.2356968000022,1618.2386886999993,1618.2386886999993,1618.2386886999993,1621.2357238000004,indoor,j,2.3401574000017717,0.15262760000041453,1621.2358888999988,1621.2359434999998,None,,,,,,,,,,,,,,,,,00032,001,2025-11-17_18h52.18.098,MST_task,2024.2.0,60.164381122024466,2025-11-17 18h52.41.619671 +0530,
,Objects\044a.jpg,4,0,5,,,,,,,j,2.7615157999971416,None,None,,,,,,5,0,4,1621.251819699999,,,,,,,,,,,,,,,,,,,,,,,1621.236209300001,1621.251819699999,1621.7359725000024,,,,,,,,,,,,,,1621.7533017000023,,,,,,,,,,,,,1621.7507035000017,1621.7533017000023,1621.7533017000023,1621.7533017000023,1624.7524598000018,indoor,j,2.7615157999971416,None,1624.752627400001,1624.7526832000003,None,,,,,,,,,,,,,,,,,00032,001,2025-11-17_18h52.18.098,MST_task,2024.2.0,60.164381122024466,2025-11-17 18h52.41.619671 +0530,
,Objects\059a.jpg,5,0,6,,,,,,,None,,,f,0.6298915000006673,None,,,,6,0,5,1624.768424599999,,,,,,,,,,,,,,,,,,,,,,,1624.7529773000024,1624.768424599999,1625.2530910999994,,,,,,,,,,,,,,1625.2711691000004,,,,,,,,,,,,,1625.268505,1625.2711691000004,1625.2711691000004,1625.2711691000004,1628.2689482999995,indoor,None,,,1628.269113000002,1628.9206799999993,f,1628.2849836999994,1628.2849836999994,0.6298915000006673,None,,,,,,,,,,,,,00032,001,2025-11-17_18h52.18.098,MST_task,2024.2.0,60.164381122024466,2025-11-17 18h52.41.619671 +0530,
,Objects\270a.jpg,6,0,7,,,,,,,j,1.6991462999976648,0.21592500000042492,None,,,,,,7,0,6,1628.9349641000008,,,,,,,,,,,,,,,,,,,,,,,1628.9210117000002,1628.9349641000008,1629.419606200001,,,,,,,,,,,,,,1629.4399273000017,,,,,,,,,,,,,1629.4369293000018,1629.4399273000017,1629.4399273000017,1629.4399273000017,1632.4358290000018,indoor,j,1.6991462999976648,0.21592500000042492,1632.4360091999988,1632.436071799999,None,,,,,,,,,,,,,,,,,00032,001,2025-11-17_18h52.18.098,MST_task,2024.2.0,60.164381122024466,2025-11-17 18h52.41.619671 +0530,
,Objects\265a.jpg,7,0,8,,,,,,,j,1.4737336000034702,0.2709605999989435,None,,,,,,8,0,7,1632.4517732999993,,,,,,,,,,,,,,,,,,,,,,,1632.4363703000017,1632.4517732999993,1632.9363914999994,,,,,,,,,,,,,,1632.962211099999,,,,,,,,,,,,,1632.959772000002,1632.962211099999,1632.962211099999,1632.962211099999,1635.9523126999993,shoe,j,1.4737336000034702,0.2709605999989435,1635.9615961000018,1635.9616133000018,None,,,,,,,,,,,,,,,,,00032,001,2025-11-17_18h52.18.098,MST_task,2024.2.0,60.164381122024466,2025-11-17 18h52.41.619671 +0530,
,Objects\103a.jpg,8,0,9,,,,,,,None,,,j,0.3500351000002411,None,,,,9,0,8,1635.9684172000016,,,,,,,,,,,,,,,,,,,,,,,1635.9616802000019,1635.9684172000016,1636.452834300002,,,,,,,,,,,,,,1636.4750970000023,,,,,,,,,,,,,1636.4718517000001,1636.4750970000023,1636.4750970000023,1636.4750970000023,1639.4691561,shoe,None,,,1639.4693068000015,1639.837243099999,j,1639.4849919000008,1639.4849919000008,0.3500351000002411,None,,,,,,,,,,,,,00032,001,2025-11-17_18h52.18.098,MST_task,2024.2.0,60.164381122024466,2025-11-17 18h52.41.619671 +0530,
,Objects\364a.jpg,9,0,10,,,,,,,f,1.4553091999987373,0.1828302000030817,None,,,,,,10,0,9,1639.8517149,,,,,,,,,,,,,,,,,,,,,,,1639.8377256999993,1639.8517149,1640.3361559000004,,,,,,,,,,,,,,1640.3732377000015,,,,,,,,,,,,,1640.3701413999988,1640.3732377000015,1640.3732377000015,1640.3732377000015,1643.3524082000004,shoe,f,1.4553091999987373,0.1828302000030817,1643.3527252000022,1643.3528465999989,None,,,,,,,,,,,,,,,,,00032,001,2025-11-17_18h52.18.098,MST_task,2024.2.0,60.164381122024466,2025-11-17 18h52.41.619671 +0530,
,Objects\314a.jpg,10,0,11,,,,,,,f,2.4305318999977317,0.22435010000117472,None,,,,,,11,0,10,1643.3684257000023,,,,,,,,,,,,,,,,,,,,,,,1643.353238300002,1643.3684257000023,1643.8528680000018,,,,,,,,,,,,,,1643.868929700002,,,,,,,,,,,,,1643.8654209000015,1643.868929700002,1643.868929700002,1643.868929700002,1646.8538155000024,shoe,f,2.4305318999977317,0.22435010000117472,1646.8539913999994,1646.8540472999994,None,,,,,1646.8685928000014,1646.8685928000014,1646.8685928000014,,,,,,,,,,00032,001,2025-11-17_18h52.18.098,MST_task,2024.2.0,60.164381122024466,2025-11-17 18h52.41.619671 +0530,
,Objects\248a.jpg,11,0,12,,,,,,,f,1.8718816000000515,0.16647739999825717,None,,,,,,12,0,11,1646.8685928000014,,,,,,,,,,,,,,,,,,,,,,,1646.8543264,1646.8685928000014,1647.3529554000015,,,,,,,,,,,,,,1647.3725747999997,,,,,,,,,,,,,1647.3695176,1647.3725747999997,1647.3725747999997,1647.3725747999997,1650.3689381000004,shoe,f,1.8718816000000515,0.16647739999825717,1650.3691516,1650.3692130000018,None,,,,,,,,,,,,,,,,,00032,001,2025-11-17_18h52.18.098,MST_task,2024.2.0,60.164381122024466,2025-11-17 18h52.41.619671 +0530,
,Objects\040a.jpg,12,0,13,,,,,,,f,2.5474568999998155,0.18378600000141887,None,,,,,,13,0,12,1650.3852000000006,,,,,,,,,,,,,,,,,,,,,,,1650.3695081000005,1650.3852000000006,1650.869566199999,,,,,,,,,,,,,,1650.8877692000024,,,,,,,,,,,,,1650.8847480000004,1650.8877692000024,1650.8877692000024,1650.8877692000024,1653.8857719000007,shoe,f,2.5474568999998155,0.18378600000141887,1653.8859422000023,1653.8860023000016,None,,,,,,,,,,,,,,,,,00032,001,2025-11-17_18h52.18.098,MST_task,2024.2.0,60.164381122024466,2025-11-17 18h52.41.619671 +0530,
,Objects\378a.jpg,13,0,14,,,,,,,f,2.750897599999007,0.19159070000023348,None,,,,,,14,0,13,1653.9017669999994,,,,,,,,,,,,,,,,,,,,,,,1653.886439599999,1653.9017669999994,1654.386053000002,,,,,,,,,,,,,,1654.4044016000007,,,,,,,,,,,,,1654.4017217,1654.4044016000007,1654.4044016000007,1654.4044016000007,1657.4023731000016,shoe,f,2.750897599999007,0.19159070000023348,1657.4025454000002,1657.4026373000015,None,,,,,,,,,,,,,,,,,00032,001,2025-11-17_18h52.18.098,MST_task,2024.2.0,60.164381122024466,2025-11-17 18h52.41.619671 +0530,
,Objects\225a.jpg,14,0,15,,,,,,,j,1.6979011000003084,0.20768520000274293,None,,,,,,15,0,14,1657.4184103000007,,,,,,,,,,,,,,,,,,,,,,,1657.4029396000005,1657.4184103000007,1657.9033875999994,,,,,,,,,,,,,,1657.9213313,,,,,,,,,,,,,1657.9186229000006,1657.9213313,1657.9213313,1657.9213313,1660.9192003999997,indoor,j,1.6979011000003084,0.20768520000274293,1660.9257027000021,1660.9257198000014,None,,,,,,,,,,,,,,,,,00032,001,2025-11-17_18h52.18.098,MST_task,2024.2.0,60.164381122024466,2025-11-17 18h52.41.619671 +0530,
,Objects\382a.jpg,15,0,16,,,,,,,j,2.959719900001801,None,None,,,,,,16,0,15,1660.9351547000006,,,,,,,,,,,,,,,,,,,,,,,1660.925785899999,1660.9351547000006,1661.4198170000018,,,,,,,,,,,,,,1661.4366168000015,,,,,,,,,,,,,1661.4336608000012,1661.4366168000015,1661.4366168000015,1661.4366168000015,1664.4354748000005,indoor,j,2.959719900001801,None,1664.4356623000022,1664.435720900001,None,,,,,,,,,,,,,,,,,00032,001,2025-11-17_18h52.18.098,MST_task,2024.2.0,60.164381122024466,2025-11-17 18h52.41.619671 +0530,
,Objects\328a.jpg,16,0,17,,,,,,,j,2.16918380000061,0.14445599999817205,None,,,,,,17,0,16,1664.4520510000002,,,,,,,,,,,,,,,,,,,,,,,1664.4360134999988,1664.4520510000002,1664.9364062999994,,,,,,,,,,,,,,1664.9536054000018,,,,,,,,,,,,,1664.9506922,1664.9536054000018,1664.9536054000018,1664.9536054000018,1667.9523279000023,indoor,j,2.16918380000061,0.14445599999817205,1667.9524493999998,1667.9524880999998,None,,,,,,,,,,,,,,,,,00032,001,2025-11-17_18h52.18.098,MST_task,2024.2.0,60.164381122024466,2025-11-17 18h52.41.619671 +0530,
,Objects\371a.jpg,17,0,18,,,,,,,j,1.3786327000016172,0.21555929999885848,None,,,,,,18,0,17,1667.9686041999994,,,,,,,,,,,,,,,,,,,,,,,1667.9526810999996,1667.9686041999994,1668.452948000002,,,,,,,,,,,,,,1668.472837199999,,,,,,,,,,,,,1668.4699474000008,1668.472837199999,1668.472837199999,1668.472837199999,1671.4689493000005,indoor,j,1.3786327000016172,0.21555929999885848,1671.469114899999,1671.4691741000024,None,,,,,,,,,,,,,,,,,00032,001,2025-11-17_18h52.18.098,MST_task,2024.2.0,60.164381122024466,2025-11-17 18h52.41.619671 +0530,
,Objects\274a.jpg,18,0,19,,,,,,,j,2.601450099999056,0.1678810000012163,None,,,,,,19,0,18,1671.484948100002,,,,,,,,,,,,,,,,,,,,,,,1671.4694750999988,1671.484948100002,1671.9699001000008,,,,,,,,,,,,,,1671.9854391000008,,,,,,,,,,,,,1671.9826825000018,1671.9854391000008,1671.9854391000008,1671.9854391000008,1674.9705672000018,indoor,j,2.601450099999056,0.1678810000012163,1674.9707530000014,1674.9708138000024,None,,,,,1674.984973300001,1674.984973300001,1674.984973300001,,,,,,,,,,00032,001,2025-11-17_18h52.18.098,MST_task,2024.2.0,60.164381122024466,2025-11-17 18h52.41.619671 +0530,
,Objects\355a.jpg,19,0,20,,,,,,,j,1.9334735000011278,0.18423339999935706,None,,,,,,20,0,19,1674.984973300001,,,,,,,,,,,,,,,,,,,,,,,1674.9710999000017,1674.984973300001,1675.4697197999994,,,,,,,,,,,,,,1675.4859125000003,,,,,,,,,,,,,1675.4828740000012,1675.4859125000003,1675.4859125000003,1675.4859125000003,1678.470264800002,indoor,j,1.9334735000011278,0.18423339999935706,1678.470419199999,1678.4704698000023,None,,,,,1678.485058000002,1678.485058000002,1678.485058000002,,,,,,,,,,00032,001,2025-11-17_18h52.18.098,MST_task,2024.2.0,60.164381122024466,2025-11-17 18h52.41.619671 +0530,
,Objects\342a.jpg,20,0,21,,,,,,,f,2.921595800002251,None,None,,,,,,21,0,20,1678.485058000002,,,,,,,,,,,,,,,,,,,,,,,1678.4707273000022,1678.485058000002,1678.9696645000004,,,,,,,,,,,,,,1678.985519599999,,,,,,,,,,,,,1678.9822373999996,1678.985519599999,1678.985519599999,1678.985519599999,1681.9704249999995,indoor,f,2.921595800002251,None,1681.9705986000008,1681.9706537999991,None,,,,,1681.9849556000008,1681.9849556000008,1681.9849556000008,,,,,,,,,,00032,001,2025-11-17_18h52.18.098,MST_task,2024.2.0,60.164381122024466,2025-11-17 18h52.41.619671 +0530,
,Objects\160a.jpg,21,0,22,,,,,,,f,2.210430200000701,0.16818739999871468,None,,,,,,22,0,21,1681.9849556000008,,,,,,,,,,,,,,,,,,,,,,,1681.9709475000018,1681.9849556000008,1682.4697411000016,,,,,,,,,,,,,,1682.4886678000003,,,,,,,,,,,,,1682.4859070999992,1682.4886678000003,1682.4886678000003,1682.4886678000003,1685.4856225000003,shoe,f,2.210430200000701,0.16818739999871468,1685.4927069000005,1685.4927376000014,None,,,,,,,,,,,,,,,,,00032,001,2025-11-17_18h52.18.098,MST_task,2024.2.0,60.164381122024466,2025-11-17 18h52.41.619671 +0530,
,Objects\208a.jpg,22,0,23,,,,,,,f,2.3198826999978337,0.17620420000093873,None,,,,,,23,0,22,1685.5015552000004,,,,,,,,,,,,,,,,,,,,,,,1685.4928583,1685.5015552000004,1685.9860980000012,,,,,,,,,,,,,,1686.0029816999995,,,,,,,,,,,,,1686.0001196000012,1686.0029816999995,1686.0029816999995,1686.0029816999995,1688.9873217999993,shoe,f,2.3198826999978337,0.17620420000093873,1688.9875097000004,1688.9875696000017,None,,,,,1689.0017986999992,1689.0017986999992,1689.0017986999992,,,,,,,,,,00032,001,2025-11-17_18h52.18.098,MST_task,2024.2.0,60.164381122024466,2025-11-17 18h52.41.619671 +0530,
,Objects\374a.jpg,23,0,24,,,,,,,f,1.5942382999965048,0.17600120000133757,None,,,,,,24,0,23,1689.0017986999992,,,,,,,,,,,,,,,,,,,,,,,1688.9878572000016,1689.0017986999992,1689.4863489000018,,,,,,,,,,,,,,1689.504708200002,,,,,,,,,,,,,1689.5018855999988,1689.504708200002,1689.504708200002,1689.504708200002,1692.5024961000017,shoe,f,1.5942382999965048,0.17600120000133757,1692.502679199999,1692.5027383000015,None,,,,,,,,,,,,,,,,,00032,001,2025-11-17_18h52.18.098,MST_task,2024.2.0,60.164381122024466,2025-11-17 18h52.41.619671 +0530,
,Objects\217a.jpg,24,0,25,,,,,,,f,2.554990500000713,0.2091404999991937,None,,,,,,25,0,24,1692.518517299999,,,,,,,,,,,,,,,,,,,,,,,1692.5031574000022,1692.518517299999,1693.0028146000004,,,,,,,,,,,,,,1693.0239349000003,,,,,,,,,,,,,1693.0209675000006,1693.0239349000003,1693.0239349000003,1693.0239349000003,1696.0190980000007,shoe,f,2.554990500000713,0.2091404999991937,1696.019267399999,1696.0193268000003,None,,,,,,,,,,,,,,,,,00032,001,2025-11-17_18h52.18.098,MST_task,2024.2.0,60.164381122024466,2025-11-17 18h52.41.619671 +0530,
,Objects\338a.jpg,25,0,26,,,,,,,f,2.489969199999905,0.19202669999867794,None,,,,,,26,0,25,1696.034857499999,,,,,,,,,,,,,,,,,,,,,,,1696.0197179999996,1696.034857499999,1696.5197534,,,,,,,,,,,,,,1696.5372300000017,,,,,,,,,,,,,1696.5342979000015,1696.5372300000017,1696.5372300000017,1696.5372300000017,1699.5355898000016,shoe,f,2.489969199999905,0.19202669999867794,1699.5357650000005,1699.5358240999994,None,,,,,,,,,,,,,,,,,00032,001,2025-11-17_18h52.18.098,MST_task,2024.2.0,60.164381122024466,2025-11-17 18h52.41.619671 +0530,
,Objects\287a.jpg,26,0,27,,,,,,,f,2.0692161999977543,0.19966540000314126,None,,,,,,27,0,26,1699.5517328999995,,,,,,,,,,,,,,,,,,,,,,,1699.536124000002,1699.5517328999995,1700.0360580000015,,,,,,,,,,,,,,1700.0538682000006,,,,,,,,,,,,,1700.0509966999998,1700.0538682000006,1700.0538682000006,1700.0538682000006,1703.052442600001,shoe,f,2.0692161999977543,0.19966540000314126,1703.052616500001,1703.0526756,None,,,,,,,,,,,,,,,,,00032,001,2025-11-17_18h52.18.098,MST_task,2024.2.0,60.164381122024466,2025-11-17 18h52.41.619671 +0530,
,Objects\253a.jpg,27,0,28,,,,,,,f,1.7770171000011032,0.17596249999769498,None,,,,,,28,0,27,1703.0685011000023,,,,,,,,,,,,,,,,,,,,,,,1703.0529690000003,1703.0685011000023,1703.5530800000015,,,,,,,,,,,,,,1703.570230600002,,,,,,,,,,,,,1703.5673490000008,1703.570230600002,1703.570230600002,1703.570230600002,1706.5694189000023,shoe,f,1.7770171000011032,0.17596249999769498,1706.569598500002,1706.5696595000009,None,,,,,,,,,,,,,,,,,00032,001,2025-11-17_18h52.18.098,MST_task,2024.2.0,60.164381122024466,2025-11-17 18h52.41.619671 +0530,
,Objects\218a.jpg,28,0,29,,,,,,,j,2.266491099999257,0.1995244999998249,None,,,,,,29,0,28,1706.5851337999993,,,,,,,,,,,,,,,,,,,,,,,1706.5701063000015,1706.5851337999993,1707.069858400002,,,,,,,,,,,,,,1707.0888847999995,,,,,,,,,,,,,1707.0854393000009,1707.0888847999995,1707.0888847999995,1707.0888847999995,1710.0857748000017,indoor,j,2.266491099999257,0.1995244999998249,1710.091228600002,1710.091264900002,None,,,,,,,,,,,,,,,,,00032,001,2025-11-17_18h52.18.098,MST_task,2024.2.0,60.164381122024466,2025-11-17 18h52.41.619671 +0530,
,Objects\311a.jpg,29,0,30,,,,,,,j,1.5090159999999742,0.1356101999990642,None,,,,,,30,0,29,1710.1016791000002,,,,,,,,,,,,,,,,,,,,,,,1710.0914078000023,1710.1016791000002,1710.5863327000006,,,,,,,,,,,,,,1710.606246700001,,,,,,,,,,,,,1710.6031887999998,1710.606246700001,1710.606246700001,1710.606246700001,1713.602611800001,indoor,j,1.5090159999999742,0.1356101999990642,1713.6027876000007,1713.6028456000022,None,,,,,,,,,,,,,,,,,00032,001,2025-11-17_18h52.18.098,MST_task,2024.2.0,60.164381122024466,2025-11-17 18h52.41.619671 +0530,
,Objects\196a.jpg,30,0,31,,,,,,,None,,,f,0.8438189000007696,None,,,,31,0,30,1713.618568599999,,,,,,,,,,,,,,,,,,,,,,,1713.6031346000018,1713.618568599999,1714.1030906000015,,,,,,,,,,,,,,1714.1210876000005,,,,,,,,,,,,,1714.1183955000015,1714.1210876000005,1714.1210876000005,1714.1210876000005,1717.1187649999993,indoor,None,,,1717.1188500999997,1717.987331700002,f,1717.1351042000024,1717.1351042000024,0.8438189000007696,None,,,,,,,,,,,,,00032,001,2025-11-17_18h52.18.098,MST_task,2024.2.0,60.164381122024466,2025-11-17 18h52.41.619671 +0530,
,Objects\084a.jpg,31,0,32,,,,,,,None,,,j,5.388040499998169,None,,,,32,0,31,1718.0018278999996,,,,,,,,,,,,,,,,,,,,,,,1717.987604500002,1718.0018278999996,1718.4866208000021,,,,,,,,,,,,,,1718.5038898999992,,,,,,,,,,,,,1718.5011333000002,1718.5038898999992,1718.5038898999992,1718.5038898999992,1721.5025618,indoor,None,,,1721.5027149000016,1726.9200869000015,j,1721.5186362999993,1721.5186362999993,5.388040499998169,None,,,,,,,,,,,,,00032,001,2025-11-17_18h52.18.098,MST_task,2024.2.0,60.164381122024466,2025-11-17 18h52.41.619671 +0530,
,Objects\240a.jpg,32,0,33,,,,,,,None,,,f,2.7191722999996273,None,,,,33,0,32,1726.935124800002,,,,,,,,,,,,,,,,,,,,,,,1726.9204611000023,1726.935124800002,1727.419705799999,,,,,,,,,,,,,,1727.4382559000005,,,,,,,,,,,,,1727.435010699999,1727.4382559000005,1727.4382559000005,1727.4382559000005,1730.4357893000015,indoor,None,,,1730.4359431000012,1733.1873543000002,f,1730.4519285000024,1730.4519285000024,2.7191722999996273,None,,,,,,,,,,,,,00032,001,2025-11-17_18h52.18.098,MST_task,2024.2.0,60.164381122024466,2025-11-17 18h52.41.619671 +0530,
,Objects\080a.jpg,33,0,34,,,,,,,None,,,f,1.3329140999994706,None,,,,34,0,33,1733.2019060999992,,,,,,,,,,,,,,,,,,,,,,,1733.187741400001,1733.2019060999992,1733.6863389999999,,,,,,,,,,,,,,1733.7037756999998,,,,,,,,,,,,,1733.7005704000003,1733.7037756999998,1733.7037756999998,1733.7037756999998,1736.7025576000015,indoor,None,,,1736.7027105000016,1738.0540228999998,f,1736.7186192000008,1736.7186192000008,1.3329140999994706,None,,,,,,,,,,,,,00032,001,2025-11-17_18h52.18.098,MST_task,2024.2.0,60.164381122024466,2025-11-17 18h52.41.619671 +0530,
,Objects\010a.jpg,34,0,35,,,,,,,None,,,f,0.5137260999981663,None,,,,35,0,34,1738.0686591000012,,,,,,,,,,,,,,,,,,,,,,,1738.054344799999,1738.0686591000012,1738.5529386000017,,,,,,,,,,,,,,1738.570926700002,,,,,,,,,,,,,1738.568313300002,1738.570926700002,1738.570926700002,1738.570926700002,1741.5690212000009,indoor,None,,,1741.5691719999995,1742.1035099,f,1741.5850365000006,1741.5850365000006,0.5137260999981663,None,,,,,,,,,,,,,00032,001,2025-11-17_18h52.18.098,MST_task,2024.2.0,60.164381122024466,2025-11-17 18h52.41.619671 +0530,
,Objects\105a.jpg,35,0,36,,,,,,,f,2.348466899999039,0.20050930000070366,None,,,,,,36,0,35,1742.1185827000008,,,,,,,,,,,,,,,,,,,,,,,1742.1038470000021,1742.1185827000008,1742.602745600001,,,,,,,,,,,,,,1742.6223205999995,,,,,,,,,,,,,1742.6196555999995,1742.6223205999995,1742.6223205999995,1742.6223205999995,1745.6190801000012,shoe,f,2.348466899999039,0.20050930000070366,1745.6249639000016,1745.6249898000024,None,,,,,,,,,,,,,,,,,00032,001,2025-11-17_18h52.18.098,MST_task,2024.2.0,60.164381122024466,2025-11-17 18h52.41.619671 +0530,
,Objects\268a.jpg,36,0,37,,,,,,,None,,,f,0.4269983999984106,None,,,,37,0,36,1745.6346835000004,,,,,,,,,,,,,,,,,,,,,,,1745.6250973000024,1745.6346835000004,1746.1196181000014,,,,,,,,,,,,,,1746.1368733000018,,,,,,,,,,,,,1746.134066999999,1746.1368733000018,1746.1368733000018,1746.1368733000018,1749.135771600002,shoe,None,,,1749.1359223,1749.587127400002,f,1749.151911500001,1749.151911500001,0.4269983999984106,None,,,,,,,,,,,,,00032,001,2025-11-17_18h52.18.098,MST_task,2024.2.0,60.164381122024466,2025-11-17 18h52.41.619671 +0530,
,Objects\346a.jpg,37,0,38,,,,,,,j,1.3827342000004137,0.18340079999688896,None,,,,,,38,0,37,1749.6017113000016,,,,,,,,,,,,,,,,,,,,,,,1749.587425900001,1749.6017113000016,1750.0860476000016,,,,,,,,,,,,,,1750.1085241,,,,,,,,,,,,,1750.1057419999997,1750.1085241,1750.1085241,1750.1085241,1753.1026650000022,shoe,j,1.3827342000004137,0.18340079999688896,1753.102839700001,1753.102902300001,None,,,,,,,,,,,,,,,,,00032,001,2025-11-17_18h52.18.098,MST_task,2024.2.0,60.164381122024466,2025-11-17 18h52.41.619671 +0530,
,Objects\360a.jpg,38,0,39,,,,,,,f,2.256268299999647,0.17593889999989187,None,,,,,,39,0,38,1753.1185442000024,,,,,,,,,,,,,,,,,,,,,,,1753.1032908000016,1753.1185442000024,1753.602872399999,,,,,,,,,,,,,,1753.6190253000022,,,,,,,,,,,,,1753.6163063000022,1753.6190253000022,1753.6190253000022,1753.6190253000022,1756.603734100001,shoe,f,2.256268299999647,0.17593889999989187,1756.6038945,1756.6039521999992,None,,,,,1756.6184799000002,1756.6184799000002,1756.6184799000002,,,,,,,,,,00032,001,2025-11-17_18h52.18.098,MST_task,2024.2.0,60.164381122024466,2025-11-17 18h52.41.619671 +0530,
,Objects\128a.jpg,39,0,40,,,,,,,f,2.9523442999998224,None,None,,,,,,40,0,39,1756.6184799000002,,,,,,,,,,,,,,,,,,,,,,,1756.6042140999998,1756.6184799000002,1757.1029503999998,,,,,,,,,,,,,,1757.1226902000017,,,,,,,,,,,,,1757.1198872999994,1757.1226902000017,1757.1226902000017,1757.1226902000017,1760.118934000002,shoe,f,2.9523442999998224,None,1760.119106099999,1760.1191676000017,None,,,,,,,,,,,,,,,,,00032,001,2025-11-17_18h52.18.098,MST_task,2024.2.0,60.164381122024466,2025-11-17 18h52.41.619671 +0530,
,Objects\167a.jpg,40,0,41,,,,,,,None,,,f,3.8478260999982012,None,,,,41,0,40,1760.134909100001,,,,,,,,,,,,,,,,,,,,,,,1760.119498,1760.134909100001,1760.6196118000007,,,,,,,,,,,,,,1760.635687599999,,,,,,,,,,,,,1760.632988100002,1760.635687599999,1760.635687599999,1760.635687599999,1763.6208105000005,shoe,None,,,1763.620939299999,1767.487516600002,f,1763.634995100001,1763.634995100001,3.8478260999982012,None,1763.634995100001,1763.634995100001,1763.634995100001,,,,,,,,,,00032,001,2025-11-17_18h52.18.098,MST_task,2024.2.0,60.164381122024466,2025-11-17 18h52.41.619671 +0530,
,Objects\166a.jpg,41,0,42,,,,,,,f,1.3287922000017716,0.15911589999814169,None,,,,,,42,0,41,1767.5017503000017,,,,,,,,,,,,,,,,,,,,,,,1767.4879121000013,1767.5017503000017,1767.9863738999993,,,,,,,,,,,,,,1768.0028534000012,,,,,,,,,,,,,1768.000226799999,1768.0028534000012,1768.0028534000012,1768.0028534000012,1770.9872249,shoe,f,1.3287922000017716,0.15911589999814169,1770.9874109000011,1770.98747,None,,,,,1771.0018285000006,1771.0018285000006,1771.0018285000006,,,,,,,,,,00032,001,2025-11-17_18h52.18.098,MST_task,2024.2.0,60.164381122024466,2025-11-17 18h52.41.619671 +0530,
,Objects\336a.jpg,42,0,43,,,,,,,None,,,j,6.4606704999969224,None,,,,43,0,42,1771.0018285000006,,,,,,,,,,,,,,,,,,,,,,,1770.987890100001,1771.0018285000006,1771.486175099999,,,,,,,,,,,,,,1771.5045895000003,,,,,,,,,,,,,1771.5014822000012,1771.5045895000003,1771.5045895000003,1771.5045895000003,1774.5023916999999,indoor,None,,,1774.5093223000003,1780.9870446999994,j,1774.5185320000019,1774.5185320000019,6.4606704999969224,None,,,,,,,,,,,,,00032,001,2025-11-17_18h52.18.098,MST_task,2024.2.0,60.164381122024466,2025-11-17 18h52.41.619671 +0530,
,Objects\285a.jpg,43,0,44,,,,,,,None,,,j,1.157156200002646,None,,,,44,0,43,1781.0018344000018,,,,,,,,,,,,,,,,,,,,,,,1780.9874552,1781.0018344000018,1781.4860386,,,,,,,,,,,,,,1781.5092203999993,,,,,,,,,,,,,1781.5058709000004,1781.5092203999993,1781.5092203999993,1781.5092203999993,1784.502330700001,indoor,None,,,1784.5025042000016,1785.6871419999989,j,1784.518439399999,1784.518439399999,1.157156200002646,None,,,,,,,,,,,,,00032,001,2025-11-17_18h52.18.098,MST_task,2024.2.0,60.164381122024466,2025-11-17 18h52.41.619671 +0530,
,Objects\099a.jpg,44,0,45,,,,,,,j,2.512316500000452,0.19157479999921634,None,,,,,,45,0,44,1785.7016991000019,,,,,,,,,,,,,,,,,,,,,,,1785.6874965999996,1785.7016991000019,1786.1861286000021,,,,,,,,,,,,,,1786.203201299999,,,,,,,,,,,,,1786.2005602999998,1786.203201299999,1786.203201299999,1786.203201299999,1789.2022873999995,indoor,j,2.512316500000452,0.19157479999921634,1789.202470100001,1789.2025347999988,None,,,,,,,,,,,,,,,,,00032,001,2025-11-17_18h52.18.098,MST_task,2024.2.0,60.164381122024466,2025-11-17 18h52.41.619671 +0530,
,Objects\031a.jpg,45,0,46,,,,,,,f,2.0290424000013445,0.247517699997843,None,,,,,,46,0,45,1789.2185400000017,,,,,,,,,,,,,,,,,,,,,,,1789.2028323000013,1789.2185400000017,1789.7024066000013,,,,,,,,,,,,,,1789.7187072000015,,,,,,,,,,,,,1789.7158636999993,1789.7187072000015,1789.7187072000015,1789.7187072000015,1792.7039587,indoor,f,2.0290424000013445,0.247517699997843,1792.7041073,1792.7041535999997,None,,,,,1792.7185720000016,1792.7185720000016,1792.7185720000016,,,,,,,,,,00032,001,2025-11-17_18h52.18.098,MST_task,2024.2.0,60.164381122024466,2025-11-17 18h52.41.619671 +0530,
,Objects\291a.jpg,46,0,47,,,,,,,f,2.2157025000014983,0.2243702999985544,None,,,,,,47,0,46,1792.7185720000016,,,,,,,,,,,,,,,,,,,,,,,1792.7043732999991,1792.7185720000016,1793.202941200001,,,,,,,,,,,,,,1793.2197895999998,,,,,,,,,,,,,1793.2169721999999,1793.2197895999998,1793.2197895999998,1793.2197895999998,1796.2039628999992,indoor,f,2.2157025000014983,0.2243702999985544,1796.2041757000006,1796.204235000001,None,,,,,1796.2186650000003,1796.2186650000003,1796.2186650000003,,,,,,,,,,00032,001,2025-11-17_18h52.18.098,MST_task,2024.2.0,60.164381122024466,2025-11-17 18h52.41.619671 +0530,
,Objects\200a.jpg,47,0,48,,,,,,,None,,,j,1.7247557000009692,None,,,,48,0,47,1796.2186650000003,,,,,,,,,,,,,,,,,,,,,,,1796.2045217000014,1796.2186650000003,1796.702988500001,,,,,,,,,,,,,,1796.7226015000015,,,,,,,,,,,,,1796.7197089000001,1796.7226015000015,1796.7226015000015,1796.7226015000015,1799.7193291000003,indoor,None,,,1799.7194808999993,1801.4705772000016,j,1799.734984499999,1799.734984499999,1.7247557000009692,None,,,,,,,,,,,,,00032,001,2025-11-17_18h52.18.098,MST_task,2024.2.0,60.164381122024466,2025-11-17 18h52.41.619671 +0530,
,Objects\171a.jpg,48,0,49,,,,,,,None,,,j,0.6729253999983484,None,,,,49,0,48,1801.485101000002,,,,,,,,,,,,,,,,,,,,,,,1801.4709550000007,1801.485101000002,1801.9698199000013,,,,,,,,,,,,,,1802.0084717999998,,,,,,,,,,,,,1802.0054808000023,1802.0084717999998,1802.0084717999998,1802.0084717999998,1804.9856753999993,indoor,None,,,1804.986046500002,1805.6873510000005,j,1805.0019264000002,1805.0019264000002,0.6729253999983484,None,,,,,,,,,,,,,00032,001,2025-11-17_18h52.18.098,MST_task,2024.2.0,60.164381122024466,2025-11-17 18h52.41.619671 +0530,
,Objects\239a.jpg,49,0,50,,,,,,,f,1.9094289999993634,0.21591780000017025,None,,,,,,50,0,49,1805.701906000002,,,,,,,,,,,,,,,,,,,,,,,1805.6877108000008,1805.701906000002,1806.186025400002,,,,,,,,,,,,,,1806.2064967000006,,,,,,,,,,,,,1806.2033348000004,1806.2064967000006,1806.2064967000006,1806.2064967000006,1809.2025508000006,shoe,f,1.9094289999993634,0.21591780000017025,1809.2088852000015,1809.2089171000007,None,,,,,,,,,,,,,,,,,00032,001,2025-11-17_18h52.18.098,MST_task,2024.2.0,60.164381122024466,2025-11-17 18h52.41.619671 +0530,
,Objects\269a.jpg,50,0,51,,,,,,,None,,,f,0.6925287999983993,None,,,,51,0,50,1809.2182792000021,,,,,,,,,,,,,,,,,,,,,,,1809.2090485000008,1809.2182792000021,1809.7030311000017,,,,,,,,,,,,,,1809.7275184999999,,,,,,,,,,,,,1809.7243325000018,1809.7275184999999,1809.7275184999999,1809.7275184999999,1812.7190899000016,shoe,None,,,1812.7192596000023,1813.4370017,f,1812.7350240000014,1812.7350240000014,0.6925287999983993,None,,,,,,,,,,,,,00032,001,2025-11-17_18h52.18.098,MST_task,2024.2.0,60.164381122024466,2025-11-17 18h52.41.619671 +0530,
,Objects\188a.jpg,51,0,52,,,,,,,f,1.2969348000005994,0.2081586000022071,None,,,,,,52,0,51,1813.4517479999995,,,,,,,,,,,,,,,,,,,,,,,1813.4373861999993,1813.4517479999995,1813.9361950999992,,,,,,,,,,,,,,1813.954114600001,,,,,,,,,,,,,1813.9511870000024,1813.954114600001,1813.954114600001,1813.954114600001,1816.9525127000015,shoe,f,1.2969348000005994,0.2081586000022071,1816.9526936000002,1816.9527536000023,None,,,,,,,,,,,,,,,,,00032,001,2025-11-17_18h52.18.098,MST_task,2024.2.0,60.164381122024466,2025-11-17 18h52.41.619671 +0530,
,Objects\363a.jpg,52,0,53,,,,,,,f,1.9319866999976512,0.21685749999960535,None,,,,,,53,0,52,1816.9684019000015,,,,,,,,,,,,,,,,,,,,,,,1816.9531317,1816.9684019000015,1817.4528639000018,,,,,,,,,,,,,,1817.4708649000022,,,,,,,,,,,,,1817.4682256000015,1817.4708649000022,1817.4708649000022,1817.4708649000022,1820.4690394999998,shoe,f,1.9319866999976512,0.21685749999960535,1820.4692264000005,1820.469284900002,None,,,,,,,,,,,,,,,,,00032,001,2025-11-17_18h52.18.098,MST_task,2024.2.0,60.164381122024466,2025-11-17 18h52.41.619671 +0530,
,Objects\357a.jpg,53,0,54,,,,,,,None,,,f,0.4417494999979681,None,,,,54,0,53,1820.4849077,,,,,,,,,,,,,,,,,,,,,,,1820.4695816000021,1820.4849077,1820.9699142999998,,,,,,,,,,,,,,1820.9873934999996,,,,,,,,,,,,,1820.9848256000005,1820.9873934999996,1820.9873934999996,1820.9873934999996,1823.985526700002,shoe,None,,,1823.9856777999994,1824.4543300000005,f,1824.0016923000003,1824.0016923000003,0.4417494999979681,None,,,,,,,,,,,,,00032,001,2025-11-17_18h52.18.098,MST_task,2024.2.0,60.164381122024466,2025-11-17 18h52.41.619671 +0530,
,Objects\092a.jpg,54,0,55,,,,,,,f,2.752193599997554,0.21633880000081263,None,,,,,,55,0,54,1824.4686341000015,,,,,,,,,,,,,,,,,,,,,,,1824.4546752000024,1824.4686341000015,1824.9532307000009,,,,,,,,,,,,,,1824.9705190000022,,,,,,,,,,,,,1824.9678700000004,1824.9705190000022,1824.9705190000022,1824.9705190000022,1827.969250099999,shoe,f,2.752193599997554,0.21633880000081263,1827.969421400001,1827.969481,None,,,,,,,,,,,,,,,,,00032,001,2025-11-17_18h52.18.098,MST_task,2024.2.0,60.164381122024466,2025-11-17 18h52.41.619671 +0530,
,Objects\181a.jpg,55,0,56,,,,,,,None,,,j,0.31087789999946835,None,,,,56,0,55,1827.9851808999992,,,,,,,,,,,,,,,,,,,,,,,1827.9699020000007,1827.9851808999992,1828.469761799999,,,,,,,,,,,,,,1828.4853227999993,,,,,,,,,,,,,1828.4824466999999,1828.4853227999993,1828.4853227999993,1828.4853227999993,1831.4707165,shoe,None,,,1831.470876200001,1831.8039989999997,j,1831.4851954000005,1831.4851954000005,0.31087789999946835,None,1831.4851954000005,1831.4851954000005,1831.4851954000005,,,,,,,,,,00032,001,2025-11-17_18h52.18.098,MST_task,2024.2.0,60.164381122024466,2025-11-17 18h52.41.619671 +0530,
,Objects\151a.jpg,56,0,57,,,,,,,j,2.264565699999366,0.19162900000083027,None,,,,,,57,0,56,1831.8185220000014,,,,,,,,,,,,,,,,,,,,,,,1831.8043652000015,1831.8185220000014,1832.3030206000003,,,,,,,,,,,,,,1832.3227045000021,,,,,,,,,,,,,1832.3201147,1832.3227045000021,1832.3227045000021,1832.3227045000021,1835.3190781000012,indoor,j,2.264565699999366,0.19162900000083027,1835.3251001999997,1835.3251345999997,None,,,,,,,,,,,,,,,,,00032,001,2025-11-17_18h52.18.098,MST_task,2024.2.0,60.164381122024466,2025-11-17 18h52.41.619671 +0530,
,Objects\329a.jpg,57,0,58,,,,,,,j,1.58776349999971,0.23212869999770191,None,,,,,,58,0,57,1835.334872899999,,,,,,,,,,,,,,,,,,,,,,,1835.3252952000003,1835.334872899999,1835.8195006000024,,,,,,,,,,,,,,1835.8389067999997,,,,,,,,,,,,,1835.8358473000008,1835.8389067999997,1835.8389067999997,1835.8389067999997,1838.8359057000016,indoor,j,1.58776349999971,0.23212869999770191,1838.8360788999998,1838.8361377,None,,,,,,,,,,,,,,,,,00032,001,2025-11-17_18h52.18.098,MST_task,2024.2.0,60.164381122024466,2025-11-17 18h52.41.619671 +0530,
,Objects\352a.jpg,58,0,59,,,,,,,None,,,f,0.16276360000119894,None,,,,59,0,58,1838.8519116999996,,,,,,,,,,,,,,,,,,,,,,,1838.836425100002,1838.8519116999996,1839.3364944999994,,,,,,,,,,,,,,1839.3538709000022,,,,,,,,,,,,,1839.3508024000002,1839.3538709000022,1839.3538709000022,1839.3538709000022,1842.3525052000005,indoor,None,,,1842.3526868000008,1842.536925100001,f,1842.3687405000019,1842.3687405000019,0.16276360000119894,None,,,,,,,,,,,,,00032,001,2025-11-17_18h52.18.098,MST_task,2024.2.0,60.164381122024466,2025-11-17 18h52.41.619671 +0530,
,Objects\189a.jpg,59,0,60,,,,,,,f,2.8786682999998447,None,None,,,,,,60,0,59,1842.5517963999991,,,,,,,,,,,,,,,,,,,,,,,1842.5373220000001,1842.5517963999991,1843.035826700001,,,,,,,,,,,,,,1843.052423699999,,,,,,,,,,,,,1843.0494213999991,1843.052423699999,1843.052423699999,1843.052423699999,1846.0364740000005,indoor,f,2.8786682999998447,None,1846.0366016000007,1846.0366357999992,None,,,,,1846.0518206000015,1846.0518206000015,1846.0518206000015,,,,,,,,,,00032,001,2025-11-17_18h52.18.098,MST_task,2024.2.0,60.164381122024466,2025-11-17 18h52.41.619671 +0530,
,Objects\157a.jpg,60,0,61,,,,,,,f,1.5687761000008322,0.21548970000003465,None,,,,,,61,0,60,1846.0518206000015,,,,,,,,,,,,,,,,,,,,,,,1846.0368010999991,1846.0518206000015,1846.536200800001,,,,,,,,,,,,,,1846.5547306000008,,,,,,,,,,,,,1846.5521042,1846.5547306000008,1846.5547306000008,1846.5547306000008,1849.5524106000012,indoor,f,1.5687761000008322,0.21548970000003465,1849.5525818999995,1849.5526410999992,None,,,,,,,,,,,,,,,,,00032,001,2025-11-17_18h52.18.098,MST_task,2024.2.0,60.164381122024466,2025-11-17 18h52.41.619671 +0530,
,Objects\224a.jpg,61,0,62,,,,,,,f,1.5883470000007947,0.20808279999982915,None,,,,,,62,0,61,1849.568574500001,,,,,,,,,,,,,,,,,,,,,,,1849.5529367000017,1849.568574500001,1850.0529855000023,,,,,,,,,,,,,,1850.0711575999994,,,,,,,,,,,,,1850.0682431000023,1850.0711575999994,1850.0711575999994,1850.0711575999994,1853.0690925999988,indoor,f,1.5883470000007947,0.20808279999982915,1853.069258899999,1853.0693164000004,None,,,,,,,,,,,,,,,,,00032,001,2025-11-17_18h52.18.098,MST_task,2024.2.0,60.164381122024466,2025-11-17 18h52.41.619671 +0530,
,Objects\147a.jpg,62,0,63,,,,,,,f,1.7922819999985222,0.19213980000131414,None,,,,,,63,0,62,1853.0851712000003,,,,,,,,,,,,,,,,,,,,,,,1853.0696083000003,1853.0851712000003,1853.5699730000015,,,,,,,,,,,,,,1853.5869829000003,,,,,,,,,,,,,1853.5839644000007,1853.5869829000003,1853.5869829000003,1853.5869829000003,1856.5854667999993,indoor,f,1.7922819999985222,0.19213980000131414,1856.5856201000024,1856.5856714000001,None,,,,,,,,,,,,,,,,,00032,001,2025-11-17_18h52.18.098,MST_task,2024.2.0,60.164381122024466,2025-11-17 18h52.41.619671 +0530,
,Objects\039a.jpg,63,0,64,,,,,,,j,1.3710003000014694,0.2081713999978092,None,,,,,,64,0,63,1856.6018394999992,,,,,,,,,,,,,,,,,,,,,,,1856.5859392999992,1856.6018394999992,1857.0860307000003,,,,,,,,,,,,,,1857.103900099999,,,,,,,,,,,,,1857.1011743999989,1857.103900099999,1857.103900099999,1857.103900099999,1860.1022715,shoe,j,1.3710003000014694,0.2081713999978092,1860.1091932999989,1860.109221900002,None,,,,,,,,,,,,,,,,,00032,001,2025-11-17_18h52.18.098,MST_task,2024.2.0,60.164381122024466,2025-11-17 18h52.41.619671 +0530,
,Objects\087a.jpg,64,0,65,,,,,,,j,2.374966300001688,0.2155179000001226,None,,,,,,65,0,64,1860.1182902,,,,,,,,,,,,,,,,,,,,,,,1860.109395200001,1860.1182902,1860.6030348999993,,,,,,,,,,,,,,1860.6203459999997,,,,,,,,,,,,,1860.6175866000012,1860.6203459999997,1860.6203459999997,1860.6203459999997,1863.6194891000014,shoe,j,2.374966300001688,0.2155179000001226,1863.6196500000005,1863.6197076999997,None,,,,,,,,,,,,,,,,,00032,001,2025-11-17_18h52.18.098,MST_task,2024.2.0,60.164381122024466,2025-11-17 18h52.41.619671 +0530,
,Objects\370a.jpg,65,0,66,,,,,,,f,2.056699700002355,0.22371189999830676,None,,,,,,66,0,65,1863.6351390000018,,,,,,,,,,,,,,,,,,,,,,,1863.6201335000005,1863.6351390000018,1864.119604200001,,,,,,,,,,,,,,1864.138595100001,,,,,,,,,,,,,1864.1359086000011,1864.138595100001,1864.138595100001,1864.138595100001,1867.135696199999,shoe,f,2.056699700002355,0.22371189999830676,1867.1358609999988,1867.1359202000021,None,,,,,,,,,,,,,,,,,00032,001,2025-11-17_18h52.18.098,MST_task,2024.2.0,60.164381122024466,2025-11-17 18h52.41.619671 +0530,
,Objects\065a.jpg,66,0,67,,,,,,,j,2.9505550999965635,None,None,,,,,,67,0,66,1867.1519155000024,,,,,,,,,,,,,,,,,,,,,,,1867.1362105000007,1867.1519155000024,1867.636074500002,,,,,,,,,,,,,,1867.6532226000018,,,,,,,,,,,,,1867.6506608000018,1867.6532226000018,1867.6532226000018,1867.6532226000018,1870.6523207999999,shoe,j,2.9505550999965635,None,1870.6524910000007,1870.652550499999,None,,,,,,,,,,,,,,,,,00032,001,2025-11-17_18h52.18.098,MST_task,2024.2.0,60.164381122024466,2025-11-17 18h52.41.619671 +0530,
,Objects\035a.jpg,67,0,68,,,,,,,j,2.727401899999677,0.18403399999806425,None,,,,,,68,0,67,1870.668533600001,,,,,,,,,,,,,,,,,,,,,,,1870.6529322000024,1870.668533600001,1871.1532251999997,,,,,,,,,,,,,,1871.1717653000014,,,,,,,,,,,,,1871.1690567000005,1871.1717653000014,1871.1717653000014,1871.1717653000014,1874.1689732000013,shoe,j,2.727401899999677,0.18403399999806425,1874.169133200001,1874.1691926000021,None,,,,,,,,,,,,,,,,,00032,001,2025-11-17_18h52.18.098,MST_task,2024.2.0,60.164381122024466,2025-11-17 18h52.41.619671 +0530,
,Objects\220a.jpg,68,0,69,,,,,,,f,1.6759692000014184,0.20022310000058496,None,,,,,,69,0,68,1874.185167300002,,,,,,,,,,,,,,,,,,,,,,,1874.169482600002,1874.185167300002,1874.6694774999996,,,,,,,,,,,,,,1874.6871152000022,,,,,,,,,,,,,1874.6842608000006,1874.6871152000022,1874.6871152000022,1874.6871152000022,1877.6694234999995,shoe,f,1.6759692000014184,0.20022310000058496,1877.6696035000023,1877.6696613999993,None,,,,,,,,,,,,,,,,,00032,001,2025-11-17_18h52.18.098,MST_task,2024.2.0,60.164381122024466,2025-11-17 18h52.41.619671 +0530,
,Objects\326a.jpg,69,0,70,,,,,,,f,1.86522750000222,0.1607055999993463,None,,,,,,70,0,69,1877.6851836000023,,,,,,,,,,,,,,,,,,,,,,,1877.6699520000002,1877.6851836000023,1878.1689011999988,,,,,,,,,,,,,,1878.1856026000023,,,,,,,,,,,,,1878.1803185999997,1878.1856026000023,1878.1856026000023,1878.1856026000023,1881.1706015000018,shoe,f,1.86522750000222,0.1607055999993463,1881.1707803999998,1881.1708394000016,None,,,,,1881.1851938,1881.1851938,1881.1851938,,,,,,,,,,00032,001,2025-11-17_18h52.18.098,MST_task,2024.2.0,60.164381122024466,2025-11-17 18h52.41.619671 +0530,
,Objects\178a.jpg,70,0,71,,,,,,,f,1.8826119999976072,0.1836868999998842,None,,,,,,71,0,70,1881.1851938,,,,,,,,,,,,,,,,,,,,,,,1881.1711213999988,1881.1851938,1881.6696831000008,,,,,,,,,,,,,,1881.6888481000024,,,,,,,,,,,,,1881.6861774999998,1881.6888481000024,1881.6888481000024,1881.6888481000024,1884.6857277000017,indoor,f,1.8826119999976072,0.1836868999998842,1884.6917969000024,1884.691836599999,None,,,,,,,,,,,,,,,,,00032,001,2025-11-17_18h52.18.098,MST_task,2024.2.0,60.164381122024466,2025-11-17 18h52.41.619671 +0530,
,Objects\144a.jpg,71,0,72,,,,,,,j,1.8199615000012273,0.19088100000226405,None,,,,,,72,0,71,1884.7016212000017,,,,,,,,,,,,,,,,,,,,,,,1884.6919712999988,1884.7016212000017,1885.1862213000022,,,,,,,,,,,,,,1885.2085546000017,,,,,,,,,,,,,1885.2056868,1885.2085546000017,1885.2085546000017,1885.2085546000017,1888.202237900001,indoor,j,1.8199615000012273,0.19088100000226405,1888.202370400002,1888.202414899999,None,,,,,,,,,,,,,,,,,00032,001,2025-11-17_18h52.18.098,MST_task,2024.2.0,60.164381122024466,2025-11-17 18h52.41.619671 +0530,
,Objects\005a.jpg,72,0,73,,,,,,,j,2.324427299998206,0.13513199999943026,None,,,,,,73,0,72,1888.2186167,,,,,,,,,,,,,,,,,,,,,,,1888.2026729999998,1888.2186167,1888.7030339000012,,,,,,,,,,,,,,1888.7192046000018,,,,,,,,,,,,,1888.7163500999995,1888.7192046000018,1888.7192046000018,1888.7192046000018,1891.7036450000014,indoor,j,2.324427299998206,0.13513199999943026,1891.7037719,1891.7038113999988,None,,,,,1891.7185089000013,1891.7185089000013,1891.7185089000013,,,,,,,,,,00032,001,2025-11-17_18h52.18.098,MST_task,2024.2.0,60.164381122024466,2025-11-17 18h52.41.619671 +0530,
,Objects\182a.jpg,73,0,74,,,,,,,j,1.9795764000009513,0.1601286999975855,None,,,,,,74,0,73,1891.7185089000013,,,,,,,,,,,,,,,,,,,,,,,1891.703997200002,1891.7185089000013,1892.2029287000005,,,,,,,,,,,,,,1892.2237736999996,,,,,,,,,,,,,1892.2210271000004,1892.2237736999996,1892.2237736999996,1892.2237736999996,1895.2190790000022,indoor,j,1.9795764000009513,0.1601286999975855,1895.2193014000004,1895.2193623999992,None,,,,,,,,,,,,,,,,,00032,001,2025-11-17_18h52.18.098,MST_task,2024.2.0,60.164381122024466,2025-11-17 18h52.41.619671 +0530,
,Objects\278a.jpg,74,0,75,,,,,,,f,1.3849015999985568,0.1839553000027081,None,,,,,,75,0,74,1895.2351401000014,,,,,,,,,,,,,,,,,,,,,,,1895.219653799999,1895.2351401000014,1895.7199538999994,,,,,,,,,,,,,,1895.7382337999989,,,,,,,,,,,,,1895.735212800002,1895.7382337999989,1895.7382337999989,1895.7382337999989,1898.7357319000002,indoor,f,1.3849015999985568,0.1839553000027081,1898.7358777000009,1898.7359269000008,None,,,,,,,,,,,,,,,,,00032,001,2025-11-17_18h52.18.098,MST_task,2024.2.0,60.164381122024466,2025-11-17 18h52.41.619671 +0530,
,Objects\324a.jpg,75,0,76,,,,,,,f,2.300935200000822,0.18428990000029444,None,,,,,,76,0,75,1898.7518571,,,,,,,,,,,,,,,,,,,,,,,1898.7361760999993,1898.7518571,1899.2361514000004,,,,,,,,,,,,,,1899.2543342999998,,,,,,,,,,,,,1899.2514140999992,1899.2543342999998,1899.2543342999998,1899.2543342999998,1902.2525024000024,indoor,f,2.300935200000822,0.18428990000029444,1902.2526682999996,1902.2527252,None,,,,,,,,,,,,,,,,,00032,001,2025-11-17_18h52.18.098,MST_task,2024.2.0,60.164381122024466,2025-11-17 18h52.41.619671 +0530,
,Objects\118a.jpg,76,0,77,,,,,,,j,1.5986267000007501,0.2000982000026852,None,,,,,,77,0,76,1902.2685669999992,,,,,,,,,,,,,,,,,,,,,,,1902.2530157,1902.2685669999992,1902.7529577000023,,,,,,,,,,,,,,1902.7722816999994,,,,,,,,,,,,,1902.7692438000013,1902.7722816999994,1902.7722816999994,1902.7722816999994,1905.7691539000007,indoor,j,1.5986267000007501,0.2000982000026852,1905.7693218999993,1905.7693768999998,None,,,,,,,,,,,,,,,,,00032,001,2025-11-17_18h52.18.098,MST_task,2024.2.0,60.164381122024466,2025-11-17 18h52.41.619671 +0530,
,Objects\135a.jpg,77,0,78,,,,,,,f,2.1784990999985894,0.208488700001908,None,,,,,,78,0,77,1905.7851370999997,,,,,,,,,,,,,,,,,,,,,,,1905.7696710000018,1905.7851370999997,1906.269723100002,,,,,,,,,,,,,,1906.2888131,,,,,,,,,,,,,1906.2860734999995,1906.2888131,1906.2888131,1906.2888131,1909.2856260000008,shoe,f,2.1784990999985894,0.208488700001908,1909.2918379000002,1909.2918671000007,None,,,,,,,,,,,,,,,,,00032,001,2025-11-17_18h52.18.098,MST_task,2024.2.0,60.164381122024466,2025-11-17 18h52.41.619671 +0530,
,Objects\102a.jpg,78,0,79,,,,,,,f,2.4632813000025635,0.2001044999997248,None,,,,,,79,0,78,1909.3015744000004,,,,,,,,,,,,,,,,,,,,,,,1909.2920419000002,1909.3015744000004,1909.7871474000021,,,,,,,,,,,,,,1909.8041111999992,,,,,,,,,,,,,1909.8014686000024,1909.8041111999992,1909.8041111999992,1909.8041111999992,1912.8023815000015,shoe,f,2.4632813000025635,0.2001044999997248,1912.8025492000015,1912.8026071000022,None,,,,,,,,,,,,,,,,,00032,001,2025-11-17_18h52.18.098,MST_task,2024.2.0,60.164381122024466,2025-11-17 18h52.41.619671 +0530,
,Objects\008a.jpg,79,0,80,,,,,,,f,2.6634316999989096,0.21603229999891482,None,,,,,,80,0,79,1912.8184187000006,,,,,,,,,,,,,,,,,,,,,,,1912.8029043999995,1912.8184187000006,1913.3029040000001,,,,,,,,,,,,,,1913.3240364000012,,,,,,,,,,,,,1913.3211131999997,1913.3240364000012,1913.3240364000012,1913.3240364000012,1916.3190348999997,shoe,f,2.6634316999989096,0.21603229999891482,1916.3192012,1916.3192593000022,None,,,,,,,,,,,,,,,,,00032,001,2025-11-17_18h52.18.098,MST_task,2024.2.0,60.164381122024466,2025-11-17 18h52.41.619671 +0530,
,Objects\227a.jpg,80,0,81,,,,,,,f,2.627643400002853,0.21533809999891673,None,,,,,,81,0,80,1916.335186299999,,,,,,,,,,,,,,,,,,,,,,,1916.3196773000018,1916.335186299999,1916.8195730000007,,,,,,,,,,,,,,1916.839854599999,,,,,,,,,,,,,1916.8371800999994,1916.839854599999,1916.839854599999,1916.839854599999,1919.8355467000001,shoe,f,2.627643400002853,0.21533809999891673,1919.8356769999991,1919.8357208000016,None,,,,,,,,,,,,,,,,,00032,001,2025-11-17_18h52.18.098,MST_task,2024.2.0,60.164381122024466,2025-11-17 18h52.41.619671 +0530,
,Objects\286a.jpg,81,0,82,,,,,,,None,,,j,0.33850059999895166,None,,,,82,0,81,1919.8518480999992,,,,,,,,,,,,,,,,,,,,,,,1919.8359248000015,1919.8518480999992,1920.3362856000022,,,,,,,,,,,,,,1920.3540107000008,,,,,,,,,,,,,1920.3508905000017,1920.3540107000008,1920.3540107000008,1920.3540107000008,1923.352283600001,shoe,None,,,1923.3523984000021,1923.7203480999997,j,1923.368650299999,1923.368650299999,0.33850059999895166,None,,,,,,,,,,,,,00032,001,2025-11-17_18h52.18.098,MST_task,2024.2.0,60.164381122024466,2025-11-17 18h52.41.619671 +0530,
,Objects\191a.jpg,82,0,83,,,,,,,f,2.8184426999978314,None,None,,,,,,83,0,82,1923.7349778999996,,,,,,,,,,,,,,,,,,,,,,,1923.7207049999997,1923.7349778999996,1924.2194385000003,,,,,,,,,,,,,,1924.240396199999,,,,,,,,,,,,,1924.2373748999998,1924.240396199999,1924.240396199999,1924.240396199999,1927.2357890000021,shoe,f,2.8184426999978314,None,1927.2359610999993,1927.2360214,None,,,,,,,,,,,,,,,,,00032,001,2025-11-17_18h52.18.098,MST_task,2024.2.0,60.164381122024466,2025-11-17 18h52.41.619671 +0530,
,Objects\014a.jpg,83,0,84,,,,,,,f,1.6430777999994461,0.19832839999799035,None,,,,,,84,0,83,1927.2518939000001,,,,,,,,,,,,,,,,,,,,,,,1927.2364338000007,1927.2518939000001,1927.7361832999995,,,,,,,,,,,,,,1927.7534281000007,,,,,,,,,,,,,1927.7508511000015,1927.7534281000007,1927.7534281000007,1927.7534281000007,1930.7525043000023,shoe,f,1.6430777999994461,0.19832839999799035,1930.7526689000006,1930.7527278000016,None,,,,,,,,,,,,,,,,,00032,001,2025-11-17_18h52.18.098,MST_task,2024.2.0,60.164381122024466,2025-11-17 18h52.41.619671 +0530,
,Objects\219a.jpg,84,0,85,,,,,,,None,,,j,0.3424096999988251,None,,,,85,0,84,1930.7685865999993,,,,,,,,,,,,,,,,,,,,,,,1930.7531295000008,1930.7685865999993,1931.253003400001,,,,,,,,,,,,,,1931.2765483000003,,,,,,,,,,,,,1931.2733540000008,1931.2765483000003,1931.2765483000003,1931.2765483000003,1934.2692540999997,indoor,None,,,1934.2741271000014,1934.6368423000022,j,1934.284769400001,1934.284769400001,0.3424096999988251,None,,,,,,,,,,,,,00032,001,2025-11-17_18h52.18.098,MST_task,2024.2.0,60.164381122024466,2025-11-17 18h52.41.619671 +0530,
,Objects\333a.jpg,85,0,86,,,,,,,f,2.5647405000017898,0.1841995999966457,None,,,,,,86,0,85,1934.6517342000006,,,,,,,,,,,,,,,,,,,,,,,1934.6371538000021,1934.6517342000006,1935.1360576000006,,,,,,,,,,,,,,1935.1587094999995,,,,,,,,,,,,,1935.1558433999999,1935.1587094999995,1935.1587094999995,1935.1587094999995,1938.1523100000013,indoor,f,2.5647405000017898,0.1841995999966457,1938.1524850999995,1938.1525432000017,None,,,,,,,,,,,,,,,,,00032,001,2025-11-17_18h52.18.098,MST_task,2024.2.0,60.164381122024466,2025-11-17 18h52.41.619671 +0530,
,Objects\098a.jpg,86,0,87,,,,,,,f,2.4618714000025648,0.1835676999980933,None,,,,,,87,0,86,1938.1684663000015,,,,,,,,,,,,,,,,,,,,,,,1938.1528744999996,1938.1684663000015,1938.652919,,,,,,,,,,,,,,1938.6696391000005,,,,,,,,,,,,,1938.666962899999,1938.6696391000005,1938.6696391000005,1938.6696391000005,1941.6533544000013,indoor,f,2.4618714000025648,0.1835676999980933,1941.6534711000022,1941.6535089999998,None,,,,,1941.6684674999997,1941.6684674999997,1941.6684674999997,,,,,,,,,,00032,001,2025-11-17_18h52.18.098,MST_task,2024.2.0,60.164381122024466,2025-11-17 18h52.41.619671 +0530,
,Objects\204a.jpg,87,0,88,,,,,,,j,2.11285449999923,0.2001062000017555,None,,,,,,88,0,87,1941.6684674999997,,,,,,,,,,,,,,,,,,,,,,,1941.6537270000008,1941.6684674999997,1942.1531636,,,,,,,,,,,,,,1942.1705440000005,,,,,,,,,,,,,1942.167870100002,1942.1705440000005,1942.1705440000005,1942.1705440000005,1945.1690877,indoor,j,2.11285449999923,0.2001062000017555,1945.169245699999,1945.1692962000016,None,,,,,,,,,,,,,,,,,00032,001,2025-11-17_18h52.18.098,MST_task,2024.2.0,60.164381122024466,2025-11-17 18h52.41.619671 +0530,
,Objects\049a.jpg,88,0,89,,,,,,,None,,,f,3.277624800000922,None,,,,89,0,88,1945.1850589000023,,,,,,,,,,,,,,,,,,,,,,,1945.169564300002,1945.1850589000023,1945.6695705999991,,,,,,,,,,,,,,1945.6868486999992,,,,,,,,,,,,,1945.684128500001,1945.6868486999992,1945.6868486999992,1945.6868486999992,1948.6856499999994,indoor,None,,,1948.685953600001,1951.9873699000018,f,1948.7019046999994,1948.7019046999994,3.277624800000922,None,,,,,,,,,,,,,00032,001,2025-11-17_18h52.18.098,MST_task,2024.2.0,60.164381122024466,2025-11-17 18h52.41.619671 +0530,
,Objects\340a.jpg,89,0,90,,,,,,,None,,,f,0.41233199999987846,None,,,,90,0,89,1952.0018139999993,,,,,,,,,,,,,,,,,,,,,,,1951.9876611,1952.0018139999993,1952.4863743999995,,,,,,,,,,,,,,1952.5053972999995,,,,,,,,,,,,,1952.5023317000014,1952.5053972999995,1952.5053972999995,1952.5053972999995,1955.5024783000008,indoor,None,,,1955.5026316000003,1955.9372479000012,f,1955.518407399999,1955.518407399999,0.41233199999987846,None,,,,,,,,,,,,,00032,001,2025-11-17_18h52.18.098,MST_task,2024.2.0,60.164381122024466,2025-11-17 18h52.41.619671 +0530,
,Objects\125a.jpg,90,0,91,,,,,,,j,2.828716299998632,None,None,,,,,,91,0,90,1955.9517314000004,,,,,,,,,,,,,,,,,,,,,,,1955.937604499999,1955.9517314000004,1956.4364002000002,,,,,,,,,,,,,,1956.4539393000014,,,,,,,,,,,,,1956.450971000002,1956.4539393000014,1956.4539393000014,1956.4539393000014,1959.4525377999998,indoor,j,2.828716299998632,None,1959.4527063999994,1959.4527670999996,None,,,,,,,,,,,,,,,,,00032,001,2025-11-17_18h52.18.098,MST_task,2024.2.0,60.164381122024466,2025-11-17 18h52.41.619671 +0530,
,Objects\032a.jpg,91,0,92,,,,,,,j,2.5728396000013163,0.2003069999991567,None,,,,,,92,0,91,1959.4685274000003,,,,,,,,,,,,,,,,,,,,,,,1959.4530655000017,1959.4685274000003,1959.952997700002,,,,,,,,,,,,,,1959.9739866000018,,,,,,,,,,,,,1959.9712615999997,1959.9739866000018,1959.9739866000018,1959.9739866000018,1962.9690334000006,shoe,j,2.5728396000013163,0.2003069999991567,1962.9750963000006,1962.9751252999995,None,,,,,,,,,,,,,,,,,00032,001,2025-11-17_18h52.18.098,MST_task,2024.2.0,60.164381122024466,2025-11-17 18h52.41.619671 +0530,
,Objects\152a.jpg,92,0,93,,,,,,,f,2.017580600000656,0.22386510000069393,None,,,,,,93,0,92,1962.9847943000022,,,,,,,,,,,,,,,,,,,,,,,1962.9753086000019,1962.9847943000022,1963.4696048000005,,,,,,,,,,,,,,1963.4896704999992,,,,,,,,,,,,,1963.4870658,1963.4896704999992,1963.4896704999992,1963.4896704999992,1966.4859144000002,shoe,f,2.017580600000656,0.22386510000069393,1966.4860884000009,1966.4861474999998,None,,,,,,,,,,,,,,,,,00032,001,2025-11-17_18h52.18.098,MST_task,2024.2.0,60.164381122024466,2025-11-17 18h52.41.619671 +0530,
,Objects\130a.jpg,93,0,94,,,,,,,None,,,j,0.2645921000003,None,,,,94,0,93,1966.5018022000004,,,,,,,,,,,,,,,,,,,,,,,1966.4865768000018,1966.5018022000004,1966.9861335000023,,,,,,,,,,,,,,1967.003163199999,,,,,,,,,,,,,1967.0005261000006,1967.003163199999,1967.003163199999,1967.003163199999,1970.0025378999999,shoe,None,,,1970.0026856000004,1970.287363200001,j,1970.0186557000015,1970.0186557000015,0.2645921000003,None,,,,,,,,,,,,,00032,001,2025-11-17_18h52.18.098,MST_task,2024.2.0,60.164381122024466,2025-11-17 18h52.41.619671 +0530,
,Objects\273a.jpg,94,0,95,,,,,,,j,1.8553480000009586,0.16728929999953834,None,,,,,,95,0,94,1970.301763899999,,,,,,,,,,,,,,,,,,,,,,,1970.2876954000021,1970.301763899999,1970.7862392999996,,,,,,,,,,,,,,1970.8041004000006,,,,,,,,,,,,,1970.800627200002,1970.8041004000006,1970.8041004000006,1970.8041004000006,1973.8024063000012,shoe,j,1.8553480000009586,0.16728929999953834,1973.8025749000008,1973.8026355000002,None,,,,,,,,,,,,,,,,,00032,001,2025-11-17_18h52.18.098,MST_task,2024.2.0,60.164381122024466,2025-11-17 18h52.41.619671 +0530,
,Objects\321a.jpg,95,0,96,,,,,,,f,1.9468923000022187,0.19181699999899138,None,,,,,,96,0,95,1973.8184757999989,,,,,,,,,,,,,,,,,,,,,,,1973.8029215000024,1973.8184757999989,1974.3031081000008,,,,,,,,,,,,,,1974.3204370000021,,,,,,,,,,,,,1974.3175015000015,1974.3204370000021,1974.3204370000021,1974.3204370000021,1977.3190439999998,shoe,f,1.9468923000022187,0.19181699999899138,1977.3191928000015,1977.3192433000004,None,,,,,,,,,,,,,,,,,00032,001,2025-11-17_18h52.18.098,MST_task,2024.2.0,60.164381122024466,2025-11-17 18h52.41.619671 +0530,
,Objects\246a.jpg,96,0,97,,,,,,,f,2.4629750000021886,0.1848943999975745,None,,,,,,97,0,96,1977.3350482999995,,,,,,,,,,,,,,,,,,,,,,,1977.3194870000007,1977.3350482999995,1977.8194169999988,,,,,,,,,,,,,,1977.8359311999993,,,,,,,,,,,,,1977.8330442000006,1977.8359311999993,1977.8359311999993,1977.8359311999993,1980.820283500001,shoe,f,2.4629750000021886,0.1848943999975745,1980.8204280999998,1980.8204755000006,None,,,,,1980.834980300002,1980.834980300002,1980.834980300002,,,,,,,,,,00032,001,2025-11-17_18h52.18.098,MST_task,2024.2.0,60.164381122024466,2025-11-17 18h52.41.619671 +0530,
,Objects\097a.jpg,97,0,98,,,,,,,j,2.449082700000872,0.1759429999983695,None,,,,,,98,0,97,1980.834980300002,,,,,,,,,,,,,,,,,,,,,,,1980.8207141999992,1980.834980300002,1981.3196503,,,,,,,,,,,,,,1981.3380572000024,,,,,,,,,,,,,1981.3354165000019,1981.3380572000024,1981.3380572000024,1981.3380572000024,1984.3357976000007,shoe,j,2.449082700000872,0.1759429999983695,1984.3359653000007,1984.3360236000008,None,,,,,,,,,,,,,,,,,00032,001,2025-11-17_18h52.18.098,MST_task,2024.2.0,60.164381122024466,2025-11-17 18h52.41.619671 +0530,
,Objects\327a.jpg,98,0,99,,,,,,,j,2.426245899998321,0.19213090000266675,None,,,,,,99,0,98,1984.3517432000008,,,,,,,,,,,,,,,,,,,,,,,1984.3364800000018,1984.3517432000008,1984.835986500002,,,,,,,,,,,,,,1984.8571530000008,,,,,,,,,,,,,1984.8540399000012,1984.8571530000008,1984.8571530000008,1984.8571530000008,1987.8524840999999,indoor,j,2.426245899998321,0.19213090000266675,1987.8574451000022,1987.8574764000005,None,,,,,,,,,,,,,,,,,00032,001,2025-11-17_18h52.18.098,MST_task,2024.2.0,60.164381122024466,2025-11-17 18h52.41.619671 +0530,
,Objects\297a.jpg,99,0,100,,,,,,,j,2.576752500001021,0.13674710000123014,None,,,,,,100,0,99,1987.8682284000024,,,,,,,,,,,,,,,,,,,,,,,1987.857599400002,1987.8682284000024,1988.3525814999994,,,,,,,,,,,,,,1988.3705826000005,,,,,,,,,,,,,1988.367679400002,1988.3705826000005,1988.3705826000005,1988.3705826000005,1991.3690978000013,indoor,j,2.576752500001021,0.13674710000123014,1991.369264699999,1991.3693246000003,None,,,,,,,,,,,,,,,,,00032,001,2025-11-17_18h52.18.098,MST_task,2024.2.0,60.164381122024466,2025-11-17 18h52.41.619671 +0530,
,Objects\201a.jpg,100,0,101,,,,,,,f,2.1981491000005917,0.18371289999777218,None,,,,,,101,0,100,1991.3850741999995,,,,,,,,,,,,,,,,,,,,,,,1991.3696163000022,1991.3850741999995,1991.8695000000007,,,,,,,,,,,,,,1991.8856111000023,,,,,,,,,,,,,1991.8785367000019,1991.8856111000023,1991.8856111000023,1991.8856111000023,1994.870242500001,indoor,f,2.1981491000005917,0.18371289999777218,1994.870378300002,1994.8704223000022,None,,,,,1994.884926900002,1994.884926900002,1994.884926900002,,,,,,,,,,00032,001,2025-11-17_18h52.18.098,MST_task,2024.2.0,60.164381122024466,2025-11-17 18h52.41.619671 +0530,
,Objects\275a.jpg,101,0,102,,,,,,,j,1.6370203000005858,0.1918158999978914,None,,,,,,102,0,101,1994.884926900002,,,,,,,,,,,,,,,,,,,,,,,1994.8706483000024,1994.884926900002,1995.3696053999993,,,,,,,,,,,,,,1995.3905827999988,,,,,,,,,,,,,1995.3878108999997,1995.3905827999988,1995.3905827999988,1995.3905827999988,1998.3855525,indoor,j,1.6370203000005858,0.1918158999978914,1998.3857184000008,1998.3858125000006,None,,,,,,,,,,,,,,,,,00032,001,2025-11-17_18h52.18.098,MST_task,2024.2.0,60.164381122024466,2025-11-17 18h52.41.619671 +0530,
,Objects\257a.jpg,102,0,103,,,,,,,f,1.4103930000019318,0.21602409999832162,None,,,,,,103,0,102,1998.4014900000002,,,,,,,,,,,,,,,,,,,,,,,1998.386097300001,1998.4014900000002,1998.886193000002,,,,,,,,,,,,,,1998.9046170000001,,,,,,,,,,,,,1998.9015695000016,1998.9046170000001,1998.9046170000001,1998.9046170000001,2001.9023355999998,indoor,f,1.4103930000019318,0.21602409999832162,2001.9025027999996,2001.9025628999989,None,,,,,,,,,,,,,,,,,00032,001,2025-11-17_18h52.18.098,MST_task,2024.2.0,60.164381122024466,2025-11-17 18h52.41.619671 +0530,
,Objects\300a.jpg,103,0,104,,,,,,,f,2.2835768000004464,0.20786799999768846,None,,,,,,104,0,103,2001.9184645000023,,,,,,,,,,,,,,,,,,,,,,,2001.9028564,2001.9184645000023,2002.4028585000015,,,,,,,,,,,,,,2002.4235062000007,,,,,,,,,,,,,2002.4205937000006,2002.4235062000007,2002.4235062000007,2002.4235062000007,2005.419129400001,indoor,f,2.2835768000004464,0.20786799999768846,2005.4192962000016,2005.4193527999996,None,,,,,,,,,,,,,,,,,00032,001,2025-11-17_18h52.18.098,MST_task,2024.2.0,60.164381122024466,2025-11-17 18h52.41.619671 +0530,
,Objects\272a.jpg,104,0,105,,,,,,,f,2.673109100000147,0.19969309999942197,None,,,,,,105,0,104,2005.435161100002,,,,,,,,,,,,,,,,,,,,,,,2005.4196550000015,2005.435161100002,2005.9196109000004,,,,,,,,,,,,,,2005.938005,,,,,,,,,,,,,2005.9349968999995,2005.938005,2005.938005,2005.938005,2008.9356176000001,indoor,f,2.673109100000147,0.19969309999942197,2008.9357860000018,2008.936005200001,None,,,,,,,,,,,,,,,,,00032,001,2025-11-17_18h52.18.098,MST_task,2024.2.0,60.164381122024466,2025-11-17 18h52.41.619671 +0530,
,Objects\015a.jpg,105,0,106,,,,,,,j,2.0420830999973987,0.2073192999996536,None,,,,,,106,0,105,2008.9518463999993,,,,,,,,,,,,,,,,,,,,,,,2008.936308299999,2008.9518463999993,2009.4360194,,,,,,,,,,,,,,2009.4575814000018,,,,,,,,,,,,,2009.4544177999996,2009.4575814000018,2009.4575814000018,2009.4575814000018,2012.4524378000024,shoe,j,2.0420830999973987,0.2073192999996536,2012.4597146000015,2012.4597319999993,None,,,,,,,,,,,,,,,,,00032,001,2025-11-17_18h52.18.098,MST_task,2024.2.0,60.164381122024466,2025-11-17 18h52.41.619671 +0530,
,Objects\234a.jpg,106,0,107,,,,,,,None,,,j,0.49071139999796287,None,,,,107,0,106,2012.4684813999993,,,,,,,,,,,,,,,,,,,,,,,2012.4598426000011,2012.4684813999993,2012.9529499000018,,,,,,,,,,,,,,2012.9719962000017,,,,,,,,,,,,,2012.9692307000005,2012.9719962000017,2012.9719962000017,2012.9719962000017,2015.9693058000012,shoe,None,,,2015.9694512999995,2016.4867646999992,j,2015.9851806000006,2015.9851806000006,0.49071139999796287,None,,,,,,,,,,,,,00032,001,2025-11-17_18h52.18.098,MST_task,2024.2.0,60.164381122024466,2025-11-17 18h52.41.619671 +0530,
,Objects\094a.jpg,107,0,108,,,,,,,f,1.4969046999976854,0.2078246000019135,None,,,,,,108,0,107,2016.5016987000017,,,,,,,,,,,,,,,,,,,,,,,2016.4871064,2016.5016987000017,2016.9858021,,,,,,,,,,,,,,2017.0020331000014,,,,,,,,,,,,,2016.9972459000019,2017.0020331000014,2017.0020331000014,2017.0020331000014,2019.9873073000017,shoe,f,1.4969046999976854,0.2078246000019135,2019.9874769000016,2019.9877087000023,None,,,,,2020.0020489000017,2020.0020489000017,2020.0020489000017,,,,,,,,,,00032,001,2025-11-17_18h52.18.098,MST_task,2024.2.0,60.164381122024466,2025-11-17 18h52.41.619671 +0530,
,Objects\229a.jpg,108,0,109,,,,,,,None,,,f,0.6046712999996089,None,,,,109,0,108,2020.0020489000017,,,,,,,,,,,,,,,,,,,,,,,2019.9881296999993,2020.0020489000017,2020.486196599999,,,,,,,,,,,,,,2020.504789300001,,,,,,,,,,,,,2020.5018264999999,2020.504789300001,2020.504789300001,2020.504789300001,2023.502300799999,shoe,None,,,2023.5024883000006,2024.1371421000003,f,2023.518447800001,2023.518447800001,0.6046712999996089,None,,,,,,,,,,,,,00032,001,2025-11-17_18h52.18.098,MST_task,2024.2.0,60.164381122024466,2025-11-17 18h52.41.619671 +0530,
,Objects\050a.jpg,109,0,110,,,,,,,None,,,j,3.2307664999971166,None,,,,110,0,109,2024.1517043999993,,,,,,,,,,,,,,,,,,,,,,,2024.1374505999993,2024.1517043999993,2024.6361338999995,,,,,,,,,,,,,,2024.6548552000022,,,,,,,,,,,,,2024.6517912999989,2024.6548552000022,2024.6548552000022,2024.6548552000022,2027.6523529000006,shoe,None,,,2027.6525005000003,2030.9037616000023,j,2027.6686921,2027.6686921,3.2307664999971166,None,,,,,,,,,,,,,00032,001,2025-11-17_18h52.18.098,MST_task,2024.2.0,60.164381122024466,2025-11-17 18h52.41.619671 +0530,
,Objects\173a.jpg,110,0,111,,,,,,,None,,,f,0.3755823999999848,None,,,,111,0,110,2030.918695299999,,,,,,,,,,,,,,,,,,,,,,,2030.9040881,2030.918695299999,2031.4030647,,,,,,,,,,,,,,2031.4203149000023,,,,,,,,,,,,,2031.4178579,2031.4203149000023,2031.4203149000023,2031.4203149000023,2034.419051500001,shoe,None,,,2034.4192039000009,2034.8204177000007,f,2034.4352141000018,2034.4352141000018,0.3755823999999848,None,,,,,,,,,,,,,00032,001,2025-11-17_18h52.18.098,MST_task,2024.2.0,60.164381122024466,2025-11-17 18h52.41.619671 +0530,
,Objects\280a.jpg,111,0,112,,,,,,,None,,,j,0.027169500001036795,None,,,,112,0,111,2034.8350465000003,,,,,,,,,,,,,,,,,,,,,,,2034.8208971999993,2034.8350465000003,2035.319647100001,,,,,,,,,,,,,,2035.3392466000005,,,,,,,,,,,,,2035.3364284999989,2035.3392466000005,2035.3392466000005,2035.3392466000005,2038.3356265000002,shoe,None,,,2038.335771500002,2038.3871188000012,j,2038.3517594000004,2038.3517594000004,0.027169500001036795,None,,,,,,,,,,,,,00032,001,2025-11-17_18h52.18.098,MST_task,2024.2.0,60.164381122024466,2025-11-17 18h52.41.619671 +0530,
,Objects\156a.jpg,112,0,113,,,,,,,None,,,j,0.004628399998182431,None,,,,113,0,112,2038.401746399999,,,,,,,,,,,,,,,,,,,,,,,2038.387456200002,2038.401746399999,2038.8861192000004,,,,,,,,,,,,,,2038.907600300001,,,,,,,,,,,,,2038.9049087999992,2038.907600300001,2038.907600300001,2038.907600300001,2041.9025913000005,indoor,None,,,2041.9081527000017,2041.9370555999994,j,2041.9182277,2041.9182277,0.004628399998182431,None,,,,,,,,,,,,,00032,001,2025-11-17_18h52.18.098,MST_task,2024.2.0,60.164381122024466,2025-11-17 18h52.41.619671 +0530,
,Objects\085a.jpg,113,0,114,,,,,,,j,2.8118408000009367,0.1600252999996883,None,,,,,,114,0,113,2041.951751200002,,,,,,,,,,,,,,,,,,,,,,,2041.9373505000003,2041.951751200002,2042.4362641000007,,,,,,,,,,,,,,2042.4549368000007,,,,,,,,,,,,,2042.4524507999995,2042.4549368000007,2042.4549368000007,2042.4549368000007,2045.452449700002,indoor,j,2.8118408000009367,0.1600252999996883,2045.4526158000008,2045.452675299999,None,,,,,,,,,,,,,,,,,00032,001,2025-11-17_18h52.18.098,MST_task,2024.2.0,60.164381122024466,2025-11-17 18h52.41.619671 +0530,
,Objects\006a.jpg,114,0,115,,,,,,,None,,,j,3.522191299998667,None,,,,115,0,114,2045.4684665000023,,,,,,,,,,,,,,,,,,,,,,,2045.452967199999,2045.4684665000023,2045.9528692000022,,,,,,,,,,,,,,2045.9736550000016,,,,,,,,,,,,,2045.9710940000004,2045.9736550000016,2045.9736550000016,2045.9736550000016,2048.9690507000014,indoor,None,,,2048.9692116000006,2052.5205064,j,2048.9849791000015,2048.9849791000015,3.522191299998667,None,,,,,,,,,,,,,00032,001,2025-11-17_18h52.18.098,MST_task,2024.2.0,60.164381122024466,2025-11-17 18h52.41.619671 +0530,
,Objects\121a.jpg,115,0,116,,,,,,,None,,,f,2.4071963999995205,None,,,,116,0,115,2052.5349582000017,,,,,,,,,,,,,,,,,,,,,,,2052.5208939000004,2052.5349582000017,2053.0195843,,,,,,,,,,,,,,2053.0382431,,,,,,,,,,,,,2053.035536700001,2053.0382431,2053.0382431,2053.0382431,2056.0356809000004,indoor,None,,,2056.035834800001,2058.4705835999994,f,2056.0517622000007,2056.0517622000007,2.4071963999995205,None,,,,,,,,,,,,,00032,001,2025-11-17_18h52.18.098,MST_task,2024.2.0,60.164381122024466,2025-11-17 18h52.41.619671 +0530,
,Objects\250a.jpg,116,0,117,,,,,,,j,1.5342663999981596,0.18407089999891468,None,,,,,,117,0,116,2058.4850708000013,,,,,,,,,,,,,,,,,,,,,,,2058.4709619000023,2058.4850708000013,2058.9696590999993,,,,,,,,,,,,,,2058.9888995,,,,,,,,,,,,,2058.9858822999995,2058.9888995,2058.9888995,2058.9888995,2061.985738200001,indoor,j,1.5342663999981596,0.18407089999891468,2061.9859096,2061.985972800001,None,,,,,,,,,,,,,,,,,00032,001,2025-11-17_18h52.18.098,MST_task,2024.2.0,60.164381122024466,2025-11-17 18h52.41.619671 +0530,
,Objects\148a.jpg,117,0,118,,,,,,,None,,,f,0.13259820000166656,None,,,,118,0,117,2062.0018001999997,,,,,,,,,,,,,,,,,,,,,,,2061.986265399999,2062.0018001999997,2062.4862772000015,,,,,,,,,,,,,,2062.506442599999,,,,,,,,,,,,,2062.503549500001,2062.506442599999,2062.506442599999,2062.506442599999,2065.502596000002,indoor,None,,,2065.502741799999,2065.654301300001,f,2065.518577400002,2065.518577400002,0.13259820000166656,None,,,,,,,,,,,,,00032,001,2025-11-17_18h52.18.098,MST_task,2024.2.0,60.164381122024466,2025-11-17 18h52.41.619671 +0530,
,Objects\282a.jpg,118,0,119,,,,,,,j,2.5903284000014537,0.18443499999921187,None,,,,,,119,0,118,2065.6685526,,,,,,,,,,,,,,,,,,,,,,,2065.654661200002,2065.6685526,2066.1531080999994,,,,,,,,,,,,,,2066.1725546000016,,,,,,,,,,,,,2066.1698061999996,2066.1725546000016,2066.1725546000016,2066.1725546000016,2069.1692478000004,indoor,j,2.5903284000014537,0.18443499999921187,2069.1694135,2069.1694719000006,None,,,,,,,,,,,,,,,,,00032,001,2025-11-17_18h52.18.098,MST_task,2024.2.0,60.164381122024466,2025-11-17 18h52.41.619671 +0530,
,Objects\002a.jpg,119,0,120,,,,,,,f,2.5936409999994794,0.19982529999833787,None,,,,,,120,0,119,2069.1851059,,,,,,,,,,,,,,,,,,,,,,,2069.169765900002,2069.1851059,2069.6698152999998,,,,,,,,,,,,,,2069.6898249000005,,,,,,,,,,,,,2069.686894000002,2069.6898249000005,2069.6898249000005,2069.6898249000005,2072.6857732999997,shoe,f,2.5936409999994794,0.19982529999833787,2072.6928902,2072.6929186000016,None,,,,,,,,,,,,,,,,,00032,001,2025-11-17_18h52.18.098,MST_task,2024.2.0,60.164381122024466,2025-11-17 18h52.41.619671 +0530,
,Objects\154a.jpg,120,0,121,,,,,,,j,1.4283619999987422,0.23235050000221236,None,,,,,,121,0,120,2072.701582900001,,,,,,,,,,,,,,,,,,,,,,,2072.6930962000006,2072.701582900001,2073.1862839999994,,,,,,,,,,,,,,2073.2064998999995,,,,,,,,,,,,,2073.2036098999997,2073.2064998999995,2073.2064998999995,2073.2064998999995,2076.2026984000004,shoe,j,1.4283619999987422,0.23235050000221236,2076.202862500002,2076.202923699999,None,,,,,,,,,,,,,,,,,00032,001,2025-11-17_18h52.18.098,MST_task,2024.2.0,60.164381122024466,2025-11-17 18h52.41.619671 +0530,
,Objects\232a.jpg,121,0,122,,,,,,,f,1.9484157000006235,0.24728449999747681,None,,,,,,122,0,121,2076.218638099999,,,,,,,,,,,,,,,,,,,,,,,2076.2033255000024,2076.218638099999,2076.7030464000018,,,,,,,,,,,,,,2076.7191134999994,,,,,,,,,,,,,2076.715777600002,2076.7191134999994,2076.7191134999994,2076.7191134999994,2079.7040844000003,shoe,f,1.9484157000006235,0.24728449999747681,2079.7042612000005,2079.7043214000005,None,,,,,2079.7185635999995,2079.7185635999995,2079.7185635999995,,,,,,,,,,00032,001,2025-11-17_18h52.18.098,MST_task,2024.2.0,60.164381122024466,2025-11-17 18h52.41.619671 +0530,
,Objects\367a.jpg,122,0,123,,,,,,,f,2.1085778000015125,0.20820029999958933,None,,,,,,123,0,122,2079.7185635999995,,,,,,,,,,,,,,,,,,,,,,,2079.704610500001,2079.7185635999995,2080.2031177999997,,,,,,,,,,,,,,2080.222437799999,,,,,,,,,,,,,2080.2194462000007,2080.222437799999,2080.222437799999,2080.222437799999,2083.2192861000003,shoe,f,2.1085778000015125,0.20820029999958933,2083.219452000001,2083.219511800002,None,,,,,,,,,,,,,,,,,00032,001,2025-11-17_18h52.18.098,MST_task,2024.2.0,60.164381122024466,2025-11-17 18h52.41.619671 +0530,
,Objects\332a.jpg,123,0,124,,,,,,,j,1.9107326999983343,0.1918906999999308,None,,,,,,124,0,123,2083.2351858,,,,,,,,,,,,,,,,,,,,,,,2083.2198033000022,2083.2351858,2083.7198145,,,,,,,,,,,,,,2083.7406463000007,,,,,,,,,,,,,2083.737292400001,2083.7406463000007,2083.7406463000007,2083.7406463000007,2086.7357919000024,shoe,j,1.9107326999983343,0.1918906999999308,2086.735981400001,2086.736042700002,None,,,,,,,,,,,,,,,,,00032,001,2025-11-17_18h52.18.098,MST_task,2024.2.0,60.164381122024466,2025-11-17 18h52.41.619671 +0530,
,Objects\313a.jpg,124,0,125,,,,,,,None,,,j,0.3507473999998183,None,,,,125,0,124,2086.7519342000014,,,,,,,,,,,,,,,,,,,,,,,2086.7363393000014,2086.7519342000014,2087.2363221000014,,,,,,,,,,,,,,2087.2544885999996,,,,,,,,,,,,,2087.2513841,2087.2544885999996,2087.2544885999996,2087.2544885999996,2090.2525984999993,shoe,None,,,2090.2527470000023,2090.6213988000018,j,2090.2685803999993,2090.2685803999993,0.3507473999998183,None,,,,,,,,,,,,,00032,001,2025-11-17_18h52.18.098,MST_task,2024.2.0,60.164381122024466,2025-11-17 18h52.41.619671 +0530,
,Objects\309a.jpg,125,0,126,,,,,,,f,2.0966152000000875,0.1835482000024058,None,,,,,,126,0,125,2090.635108999999,,,,,,,,,,,,,,,,,,,,,,,2090.6217636,2090.635108999999,2091.1197790000006,,,,,,,,,,,,,,2091.138550800002,,,,,,,,,,,,,2091.1352281,2091.138550800002,2091.138550800002,2091.138550800002,2094.135774800001,shoe,f,2.0966152000000875,0.1835482000024058,2094.1359446000024,2094.136003899999,None,,,,,,,,,,,,,,,,,00032,001,2025-11-17_18h52.18.098,MST_task,2024.2.0,60.164381122024466,2025-11-17 18h52.41.619671 +0530,
,Objects\197a.jpg,126,0,127,,,,,,,j,1.5769127999992634,0.19196480000027805,None,,,,,,127,0,126,2094.1518775000004,,,,,,,,,,,,,,,,,,,,,,,2094.1364692999996,2094.1518775000004,2094.6359233000003,,,,,,,,,,,,,,2094.658365200001,,,,,,,,,,,,,2094.6553888000017,2094.658365200001,2094.658365200001,2094.658365200001,2097.652484000002,indoor,j,1.5769127999992634,0.19196480000027805,2097.6587861000007,2097.6588035999994,None,,,,,,,,,,,,,,,,,00032,001,2025-11-17_18h52.18.098,MST_task,2024.2.0,60.164381122024466,2025-11-17 18h52.41.619671 +0530,
,Objects\298a.jpg,127,0,128,,,,,,,j,1.3983939999998256,0.13552350000099977,None,,,,,,128,0,127,2097.668529300001,,,,,,,,,,,,,,,,,,,,,,,2097.658871399999,2097.668529300001,2098.1529622000016,,,,,,,,,,,,,,2098.1728576999994,,,,,,,,,,,,,2098.1702848999994,2098.1728576999994,2098.1728576999994,2098.1728576999994,2101.1692511,indoor,j,1.3983939999998256,0.13552350000099977,2101.1694180000013,2101.1694774999996,None,,,,,,,,,,,,,,,,,00032,001,2025-11-17_18h52.18.098,MST_task,2024.2.0,60.164381122024466,2025-11-17 18h52.41.619671 +0530,
,Objects\064a.jpg,128,0,129,,,,,,,j,1.8102757000015117,0.16005829999994603,None,,,,,,129,0,128,2101.1850387000013,,,,,,,,,,,,,,,,,,,,,,,2101.169774000002,2101.1850387000013,2101.6699348,,,,,,,,,,,,,,2101.6888830999997,,,,,,,,,,,,,2101.6859396,2101.6888830999997,2101.6888830999997,2101.6888830999997,2104.685782200002,indoor,j,1.8102757000015117,0.16005829999994603,2104.6859541000013,2104.686045000002,None,,,,,,,,,,,,,,,,,00032,001,2025-11-17_18h52.18.098,MST_task,2024.2.0,60.164381122024466,2025-11-17 18h52.41.619671 +0530,
,Objects\249a.jpg,129,0,130,,,,,,,j,1.394172600001184,0.1598986999997578,None,,,,,,130,0,129,2104.7018683999995,,,,,,,,,,,,,,,,,,,,,,,2104.6863558000005,2104.7018683999995,2105.186409400001,,,,,,,,,,,,,,2105.2087389000008,,,,,,,,,,,,,2105.204824700002,2105.2087389000008,2105.2087389000008,2105.2087389000008,2108.202429500001,indoor,j,1.394172600001184,0.1598986999997578,2108.202598300002,2108.202656199999,None,,,,,,,,,,,,,,,,,00032,001,2025-11-17_18h52.18.098,MST_task,2024.2.0,60.164381122024466,2025-11-17 18h52.41.619671 +0530,
,Objects\037a.jpg,130,0,131,,,,,,,f,2.961517300002015,None,None,,,,,,131,0,130,2108.218653600001,,,,,,,,,,,,,,,,,,,,,,,2108.2029525,2108.218653600001,2108.703079400002,,,,,,,,,,,,,,2108.7216434,,,,,,,,,,,,,2108.718570699999,2108.7216434,2108.7216434,2108.7216434,2111.7191657000003,indoor,f,2.961517300002015,None,2111.7193327999994,2111.719392400002,None,,,,,,,,,,,,,,,,,00032,001,2025-11-17_18h52.18.098,MST_task,2024.2.0,60.164381122024466,2025-11-17 18h52.41.619671 +0530,
,Objects\057a.jpg,131,0,132,,,,,,,f,2.0940176000003703,0.20845090000148048,None,,,,,,132,0,131,2111.7349576000015,,,,,,,,,,,,,,,,,,,,,,,2111.719690599999,2111.7349576000015,2112.219763000001,,,,,,,,,,,,,,2112.2368338000015,,,,,,,,,,,,,2112.234134800001,2112.2368338000015,2112.2368338000015,2112.2368338000015,2115.2355374,indoor,f,2.0940176000003703,0.20845090000148048,2115.2357131999997,2115.235771800002,None,,,,,,,,,,,,,,,,,00032,001,2025-11-17_18h52.18.098,MST_task,2024.2.0,60.164381122024466,2025-11-17 18h52.41.619671 +0530,
,Objects\109a.jpg,132,0,133,,,,,,,f,2.9204540999999153,None,None,,,,,,133,0,132,2115.2519716999996,,,,,,,,,,,,,,,,,,,,,,,2115.236076199999,2115.2519716999996,2115.736359300001,,,,,,,,,,,,,,2115.7552619000016,,,,,,,,,,,,,2115.7525849000012,2115.7552619000016,2115.7552619000016,2115.7552619000016,2118.7525975999997,indoor,f,2.9204540999999153,None,2118.7527704999993,2118.752829199999,None,,,,,,,,,,,,,,,,,00032,001,2025-11-17_18h52.18.098,MST_task,2024.2.0,60.164381122024466,2025-11-17 18h52.41.619671 +0530,
,Objects\223a.jpg,133,0,134,,,,,,,j,2.472345399997721,0.21682920000239392,None,,,,,,134,0,133,2118.7686439999998,,,,,,,,,,,,,,,,,,,,,,,2118.7531227,2118.7686439999998,2119.253143400001,,,,,,,,,,,,,,2119.2746998000002,,,,,,,,,,,,,2119.271746300001,2119.2746998000002,2119.2746998000002,2119.2746998000002,2122.2692399000007,shoe,j,2.472345399997721,0.21682920000239392,2122.2767819,2122.2767991,None,,,,,,,,,,,,,,,,,00032,001,2025-11-17_18h52.18.098,MST_task,2024.2.0,60.164381122024466,2025-11-17 18h52.41.619671 +0530,
,Objects\308a.jpg,134,0,135,,,,,,,f,1.6639538999988872,0.21511639999880572,None,,,,,,135,0,134,2122.285120200002,,,,,,,,,,,,,,,,,,,,,,,2122.276920299999,2122.285120200002,2122.7696897000023,,,,,,,,,,,,,,2122.7877585999995,,,,,,,,,,,,,2122.784964300001,2122.7877585999995,2122.7877585999995,2122.7877585999995,2125.785477600002,shoe,f,1.6639538999988872,0.21511639999880572,2125.7858084,2125.7858718999996,None,,,,,,,,,,,,,,,,,00032,001,2025-11-17_18h52.18.098,MST_task,2024.2.0,60.164381122024466,2025-11-17 18h52.41.619671 +0530,
,Objects\347a.jpg,135,0,136,,,,,,,f,1.497447199999442,0.1913487999991048,None,,,,,,136,0,135,2125.8017277,,,,,,,,,,,,,,,,,,,,,,,2125.786174500001,2125.8017277,2126.2861013,,,,,,,,,,,,,,2126.306191399999,,,,,,,,,,,,,2126.3029621000023,2126.306191399999,2126.306191399999,2126.306191399999,2129.3025091000018,shoe,f,1.497447199999442,0.1913487999991048,2129.3026802999993,2129.3027402000007,None,,,,,,,,,,,,,,,,,00032,001,2025-11-17_18h52.18.098,MST_task,2024.2.0,60.164381122024466,2025-11-17 18h52.41.619671 +0530,
,Objects\019a.jpg,136,0,137,,,,,,,j,2.1902588000011747,0.17715109999699052,None,,,,,,137,0,136,2129.318560800002,,,,,,,,,,,,,,,,,,,,,,,2129.3030486999996,2129.318560800002,2129.8027105,,,,,,,,,,,,,,2129.8209884999997,,,,,,,,,,,,,2129.818339600002,2129.8209884999997,2129.8209884999997,2129.8209884999997,2132.819484399999,shoe,j,2.1902588000011747,0.17715109999699052,2132.8196532,2132.8197150000015,None,,,,,,,,,,,,,,,,,00032,001,2025-11-17_18h52.18.098,MST_task,2024.2.0,60.164381122024466,2025-11-17 18h52.41.619671 +0530,
,Objects\284a.jpg,137,0,138,,,,,,,f,1.6412023000011686,0.17636029999994207,None,,,,,,138,0,137,2132.8350901000013,,,,,,,,,,,,,,,,,,,,,,,2132.820008400002,2132.8350901000013,2133.319867800001,,,,,,,,,,,,,,2133.3383491999994,,,,,,,,,,,,,2133.3352577000005,2133.3383491999994,2133.3383491999994,2133.3383491999994,2136.3355931000006,shoe,f,1.6412023000011686,0.17636029999994207,2136.3357638000016,2136.3358241999995,None,,,,,,,,,,,,,,,,,00032,001,2025-11-17_18h52.18.098,MST_task,2024.2.0,60.164381122024466,2025-11-17 18h52.41.619671 +0530,
,Objects\235a.jpg,138,0,139,,,,,,,f,2.3089865000001737,0.19250840000313474,None,,,,,,139,0,138,2136.3517821000023,,,,,,,,,,,,,,,,,,,,,,,2136.3361177000006,2136.3517821000023,2136.8361337999995,,,,,,,,,,,,,,2136.8543714000007,,,,,,,,,,,,,2136.851421399999,2136.8543714000007,2136.8543714000007,2136.8543714000007,2139.852533699999,shoe,f,2.3089865000001737,0.19250840000313474,2139.852722800002,2139.8527820000018,None,,,,,,,,,,,,,,,,,00032,001,2025-11-17_18h52.18.098,MST_task,2024.2.0,60.164381122024466,2025-11-17 18h52.41.619671 +0530,
,Objects\256a.jpg,139,0,140,,,,,,,None,,,j,0.0016530999964743387,None,,,,140,0,139,2139.8685525,,,,,,,,,,,,,,,,,,,,,,,2139.8531122999993,2139.8685525,2140.353067799999,,,,,,,,,,,,,,2140.3734847000014,,,,,,,,,,,,,2140.3704045000013,2140.3734847000014,2140.3734847000014,2140.3734847000014,2143.3691805000017,shoe,None,,,2143.369342599999,2143.4037425000024,j,2143.385284600001,2143.385284600001,0.0016530999964743387,None,,,,,,,,,,,,,00032,001,2025-11-17_18h52.18.098,MST_task,2024.2.0,60.164381122024466,2025-11-17 18h52.41.619671 +0530,
,Objects\231a.jpg,140,0,141,,,,,,,j,1.5660299999981362,0.18491770000036922,None,,,,,,141,0,140,2143.418390300001,,,,,,,,,,,,,,,,,,,,,,,2143.4040282000024,2143.418390300001,2143.9029635000006,,,,,,,,,,,,,,2143.925149900002,,,,,,,,,,,,,2143.922071699999,2143.925149900002,2143.925149900002,2143.925149900002,2146.919198800002,indoor,j,1.5660299999981362,0.18491770000036922,2146.9253482999993,2146.925392000001,None,,,,,,,,,,,,,,,,,00032,001,2025-11-17_18h52.18.098,MST_task,2024.2.0,60.164381122024466,2025-11-17 18h52.41.619671 +0530,
,Objects\149a.jpg,141,0,142,,,,,,,f,2.9569812000008824,None,None,,,,,,142,0,141,2146.9350011000024,,,,,,,,,,,,,,,,,,,,,,,2146.9255379000024,2146.9350011000024,2147.419815199999,,,,,,,,,,,,,,2147.4379362,,,,,,,,,,,,,2147.4349820999996,2147.4379362,2147.4379362,2147.4379362,2150.435697699999,indoor,f,2.9569812000008824,None,2150.435865899999,2150.4359270999994,None,,,,,,,,,,,,,,,,,00032,001,2025-11-17_18h52.18.098,MST_task,2024.2.0,60.164381122024466,2025-11-17 18h52.41.619671 +0530,
,Objects\117a.jpg,142,0,143,,,,,,,None,,,j,1.1229939000004379,None,,,,143,0,142,2150.4517791,,,,,,,,,,,,,,,,,,,,,,,2150.4362621,2150.4517791,2150.9362948000016,,,,,,,,,,,,,,2150.9532242000023,,,,,,,,,,,,,2150.9505609000007,2150.9532242000023,2150.9532242000023,2150.9532242000023,2153.9524972,indoor,None,,,2153.9526463,2155.1039466,j,2153.9684290000005,2153.9684290000005,1.1229939000004379,None,,,,,,,,,,,,,00032,001,2025-11-17_18h52.18.098,MST_task,2024.2.0,60.164381122024466,2025-11-17 18h52.41.619671 +0530,
,Objects\289a.jpg,143,0,144,,,,,,,None,,,j,0.9280837000005704,None,,,,144,0,143,2155.118391799999,,,,,,,,,,,,,,,,,,,,,,,2155.1042868000004,2155.118391799999,2155.6028521000007,,,,,,,,,,,,,,2155.6215219000005,,,,,,,,,,,,,2155.6182155999995,2155.6215219000005,2155.6215219000005,2155.6215219000005,2158.6191260000014,indoor,None,,,2158.6192733999997,2159.5705598999994,j,2158.634982800002,2158.634982800002,0.9280837000005704,None,,,,,,,,,,,,,00032,001,2025-11-17_18h52.18.098,MST_task,2024.2.0,60.164381122024466,2025-11-17 18h52.41.619671 +0530,
,Objects\304a.jpg,144,0,145,,,,,,,None,,,j,0.7971499999985099,None,,,,145,0,144,2159.5850388,,,,,,,,,,,,,,,,,,,,,,,2159.570861799999,2159.5850388,2160.0695842000023,,,,,,,,,,,,,,2160.0867733000014,,,,,,,,,,,,,2160.0836980999993,2160.0867733000014,2160.0867733000014,2160.0867733000014,2163.0856329000017,indoor,None,,,2163.085783999999,2163.9040465,j,2163.1017315999998,2163.1017315999998,0.7971499999985099,None,,,,,,,,,,,,,00032,001,2025-11-17_18h52.18.098,MST_task,2024.2.0,60.164381122024466,2025-11-17 18h52.41.619671 +0530,
,Objects\133a.jpg,145,0,146,,,,,,,None,,,j,0.7604456000008213,None,,,,146,0,145,2163.9184134999996,,,,,,,,,,,,,,,,,,,,,,,2163.9044383,2163.9184134999996,2164.402920299999,,,,,,,,,,,,,,2164.423426100002,,,,,,,,,,,,,2164.4204833000003,2164.423426100002,2164.423426100002,2164.423426100002,2167.419001500002,indoor,None,,,2167.4191525999995,2168.204185900002,j,2167.4350379999996,2167.4350379999996,0.7604456000008213,None,,,,,,,,,,,,,00032,001,2025-11-17_18h52.18.098,MST_task,2024.2.0,60.164381122024466,2025-11-17 18h52.41.619671 +0530,
,Objects\254a.jpg,146,0,147,,,,,,,None,,,j,0.8041821000006166,None,,,,147,0,146,2168.218487000002,,,,,,,,,,,,,,,,,,,,,,,2168.204533,2168.218487000002,2168.703209200001,,,,,,,,,,,,,,2168.7211355,,,,,,,,,,,,,2168.7179846,2168.7211355,2168.7211355,2168.7211355,2171.7190458000005,indoor,None,,,2171.7191918999997,2172.5539465,j,2171.7351579000024,2171.7351579000024,0.8041821000006166,None,,,,,,,,,,,,,00032,001,2025-11-17_18h52.18.098,MST_task,2024.2.0,60.164381122024466,2025-11-17 18h52.41.619671 +0530,
,Objects\123a.jpg,147,0,148,,,,,,,None,,,f,1.1662084000017785,None,,,,148,0,147,2172.568532000001,,,,,,,,,,,,,,,,,,,,,,,2172.554321899999,2172.568532000001,2173.052518200002,,,,,,,,,,,,,,2173.070932999999,,,,,,,,,,,,,2173.067987800001,2173.070932999999,2173.070932999999,2173.070932999999,2176.069019800001,shoe,None,,,2176.0756318999993,2177.253792300002,f,2176.085027699999,2176.085027699999,1.1662084000017785,None,,,,,,,,,,,,,00032,001,2025-11-17_18h52.18.098,MST_task,2024.2.0,60.164381122024466,2025-11-17 18h52.41.619671 +0530,
,Objects\325a.jpg,148,0,149,,,,,,,None,,,f,0.5621895999975095,None,,,,149,0,148,2177.2683916999995,,,,,,,,,,,,,,,,,,,,,,,2177.2541324000013,2177.2683916999995,2177.752795200002,,,,,,,,,,,,,,2177.7721561,,,,,,,,,,,,,2177.769156999999,2177.7721561,2177.7721561,2177.7721561,2180.7692223000013,shoe,None,,,2180.7693698000003,2181.3539631999993,f,2180.7851353000005,2180.7851353000005,0.5621895999975095,None,,,,,,,,,,,,,00032,001,2025-11-17_18h52.18.098,MST_task,2024.2.0,60.164381122024466,2025-11-17 18h52.41.619671 +0530,
,Objects\209a.jpg,149,0,150,,,,,,,None,,,f,0.918187700000999,None,,,,150,0,149,2181.368639799999,,,,,,,,,,,,,,,,,,,,,,,2181.3543366000013,2181.368639799999,2181.8531115000005,,,,,,,,,,,,,,2181.872851600001,,,,,,,,,,,,,2181.8698416000007,2181.872851600001,2181.872851600001,2181.872851600001,2184.869144600001,shoe,None,,,2184.869289099999,2185.8205823999997,f,2184.8852112000022,2184.8852112000022,0.918187700000999,None,,,,,,,,,,,,,00032,001,2025-11-17_18h52.18.098,MST_task,2024.2.0,60.164381122024466,2025-11-17 18h52.41.619671 +0530,
,Objects\091a.jpg,150,0,151,,,,,,,None,,,j,0.5875529000004462,None,,,,151,0,150,2185.835321300001,,,,,,,,,,,,,,,,,,,,,,,2185.8209418000006,2185.835321300001,2186.319580200001,,,,,,,,,,,,,,2186.3368482000005,,,,,,,,,,,,,2186.333769500001,2186.3368482000005,2186.3368482000005,2186.3368482000005,2189.3357139,shoe,None,,,2189.3358979000004,2189.954045900002,j,2189.352047200002,2189.352047200002,0.5875529000004462,None,,,,,,,,,,,,,00032,001,2025-11-17_18h52.18.098,MST_task,2024.2.0,60.164381122024466,2025-11-17 18h52.41.619671 +0530,
,Objects\230a.jpg,151,0,152,,,,,,,None,,,j,0.6700696000007156,None,,,,152,0,151,2189.9685431,,,,,,,,,,,,,,,,,,,,,,,2189.9544958000006,2189.9685431,2190.453145800002,,,,,,,,,,,,,,2190.4718335,,,,,,,,,,,,,2190.468553499999,2190.4718335,2190.4718335,2190.4718335,2193.469084799999,shoe,None,,,2193.469230400002,2194.170124299999,j,2193.4851635000014,2193.4851635000014,0.6700696000007156,None,,,,,,,,,,,,,00032,001,2025-11-17_18h52.18.098,MST_task,2024.2.0,60.164381122024466,2025-11-17 18h52.41.619671 +0530,
,Objects\293a.jpg,152,0,153,,,,,,,None,,,f,0.6217261999991024,None,,,,153,0,152,2194.1851494000002,,,,,,,,,,,,,,,,,,,,,,,2194.1705992999996,2194.1851494000002,2194.6694859000017,,,,,,,,,,,,,,2194.685801899999,,,,,,,,,,,,,2194.6827685999997,2194.685801899999,2194.685801899999,2194.685801899999,2197.6704701000017,shoe,None,,,2197.6706331000023,2198.320664499999,f,2197.6851718,2197.6851718,0.6217261999991024,None,2197.6851718,2197.6851718,2197.6851718,,,,,,,,,,00032,001,2025-11-17_18h52.18.098,MST_task,2024.2.0,60.164381122024466,2025-11-17 18h52.41.619671 +0530,
,Objects\302a.jpg,153,0,154,,,,,,,None,,,f,1.0956445999981952,None,,,,154,0,153,2198.3351065999996,,,,,,,,,,,,,,,,,,,,,,,2198.3209970999997,2198.3351065999996,2198.8194029000006,,,,,,,,,,,,,,2198.836527399999,,,,,,,,,,,,,2198.8336251,2198.836527399999,2198.836527399999,2198.836527399999,2201.8206142000017,shoe,None,,,2201.820775100001,2202.9371705000012,f,2201.8351920999994,2201.8351920999994,1.0956445999981952,None,2201.8351920999994,2201.8351920999994,2201.8351920999994,,,,,,,,,,00032,001,2025-11-17_18h52.18.098,MST_task,2024.2.0,60.164381122024466,2025-11-17 18h52.41.619671 +0530,
,Objects\070a.jpg,154,0,155,,,,,,,None,,,f,0.5989955000004556,None,,,,155,0,154,2202.9519063000007,,,,,,,,,,,,,,,,,,,,,,,2202.9375474000008,2202.9519063000007,2203.436239900002,,,,,,,,,,,,,,2203.455919799999,,,,,,,,,,,,,2203.452834300002,2203.455919799999,2203.455919799999,2203.455919799999,2206.452545,indoor,None,,,2206.458221000001,2207.070859700001,f,2206.468337099999,2206.468337099999,0.5989955000004556,None,,,,,,,,,,,,,00032,001,2025-11-17_18h52.18.098,MST_task,2024.2.0,60.164381122024466,2025-11-17 18h52.41.619671 +0530,
,Objects\316a.jpg,155,0,156,,,,,,,None,,,j,0.6968847999996797,None,,,,156,0,155,2207.085164,,,,,,,,,,,,,,,,,,,,,,,2207.071237799999,2207.085164,2207.569757100002,,,,,,,,,,,,,,2207.589001600001,,,,,,,,,,,,,2207.585713799999,2207.589001600001,2207.589001600001,2207.589001600001,2210.5858316000013,indoor,None,,,2210.5859806000008,2211.3036605000016,j,2210.6019132,2210.6019132,0.6968847999996797,None,,,,,,,,,,,,,00032,001,2025-11-17_18h52.18.098,MST_task,2024.2.0,60.164381122024466,2025-11-17 18h52.41.619671 +0530,
,Objects\222a.jpg,156,0,157,,,,,,,None,,,j,0.784121700002288,None,,,,157,0,156,2211.3186687000016,,,,,,,,,,,,,,,,,,,,,,,2211.3040323000023,2211.3186687000016,2211.8028109000006,,,,,,,,,,,,,,2211.820913200001,,,,,,,,,,,,,2211.8178764000004,2211.820913200001,2211.820913200001,2211.820913200001,2214.8191690999993,indoor,None,,,2214.8193065000014,2215.6212959000004,j,2214.835265900001,2214.835265900001,0.784121700002288,None,,,,,,,,,,,,,00032,001,2025-11-17_18h52.18.098,MST_task,2024.2.0,60.164381122024466,2025-11-17 18h52.41.619671 +0530,
,Objects\379a.jpg,157,0,158,,,,,,,None,,,f,0.644205199998396,None,,,,158,0,157,2215.635001300001,,,,,,,,,,,,,,,,,,,,,,,2215.621670299999,2215.635001300001,2216.1194803,,,,,,,,,,,,,,2216.136156200002,,,,,,,,,,,,,2216.133080899999,2216.136156200002,2216.136156200002,2216.136156200002,2219.1205983,indoor,None,,,2219.1207618000008,2219.7865525000016,f,2219.135117500002,2219.135117500002,0.644205199998396,None,2219.135117500002,2219.135117500002,2219.135117500002,,,,,,,,,,00032,001,2025-11-17_18h52.18.098,MST_task,2024.2.0,60.164381122024466,2025-11-17 18h52.41.619671 +0530,
,Objects\369a.jpg,158,0,159,,,,,,,None,,,f,0.8772033999994164,None,,,,159,0,158,2219.801684500002,,,,,,,,,,,,,,,,,,,,,,,2219.786856499999,2219.801684500002,2220.286097799999,,,,,,,,,,,,,,2220.305932700001,,,,,,,,,,,,,2220.3032996,2220.305932700001,2220.305932700001,2220.305932700001,2223.302224700001,indoor,None,,,2223.3023705000014,2224.203829000002,f,2223.318266500002,2223.318266500002,0.8772033999994164,None,,,,,,,,,,,,,00032,001,2025-11-17_18h52.18.098,MST_task,2024.2.0,60.164381122024466,2025-11-17 18h52.41.619671 +0530,
,Objects\296a.jpg,159,0,160,,,,,,,None,,,j,0.48430719999669236,None,,,,160,0,159,2224.218391300001,,,,,,,,,,,,,,,,,,,,,,,2224.204146799999,2224.218391300001,2224.703293900002,,,,,,,,,,,,,,2224.720818599999,,,,,,,,,,,,,2224.7177212999995,2224.720818599999,2224.720818599999,2224.720818599999,2227.7189364000005,indoor,None,,,2227.7190833000022,2228.2367037000004,j,2227.7349878000023,2227.7349878000023,0.48430719999669236,None,,,,,,,,,,,,,00032,001,2025-11-17_18h52.18.098,MST_task,2024.2.0,60.164381122024466,2025-11-17 18h52.41.619671 +0530,
,Objects\277a.jpg,160,0,161,,,,,,,None,,,f,0.42750040000100853,None,,,,161,0,160,2228.2518332,,,,,,,,,,,,,,,,,,,,,,,2228.2370916,2228.2518332,2228.736267600001,,,,,,,,,,,,,,2228.7553107999993,,,,,,,,,,,,,2228.7522857000004,2228.7553107999993,2228.7553107999993,2228.7553107999993,2231.7525535000023,indoor,None,,,2231.752703099999,2232.2034676000003,f,2231.7684031999997,2231.7684031999997,0.42750040000100853,None,,,,,,,,,,,,,00032,001,2025-11-17_18h52.18.098,MST_task,2024.2.0,60.164381122024466,2025-11-17 18h52.41.619671 +0530,
,Objects\233a.jpg,161,0,162,,,,,,,None,,,f,0.3559367999987444,None,,,,162,0,161,2232.218364600001,,,,,,,,,,,,,,,,,,,,,,,2232.203785599999,2232.218364600001,2232.7028334999995,,,,,,,,,,,,,,2232.7238156999992,,,,,,,,,,,,,2232.7206955,2232.7238156999992,2232.7238156999992,2232.7238156999992,2235.718783299999,shoe,None,,,2235.723515900001,2236.1029665000024,f,2235.734703000002,2235.734703000002,0.3559367999987444,None,,,,,,,,,,,,,00032,001,2025-11-17_18h52.18.098,MST_task,2024.2.0,60.164381122024466,2025-11-17 18h52.41.619671 +0530,
,Objects\212a.jpg,162,0,163,,,,,,,None,,,f,1.0956751000012446,None,,,,163,0,162,2236.1183815000004,,,,,,,,,,,,,,,,,,,,,,,2236.103213800001,2236.1183815000004,2236.6027799000003,,,,,,,,,,,,,,2236.620876000001,,,,,,,,,,,,,2236.6178298000013,2236.620876000001,2236.620876000001,2236.620876000001,2239.618943100002,shoe,None,,,2239.6190967000002,2240.7369813000005,f,2239.6351056999993,2239.6351056999993,1.0956751000012446,None,,,,,,,,,,,,,00032,001,2025-11-17_18h52.18.098,MST_task,2024.2.0,60.164381122024466,2025-11-17 18h52.41.619671 +0530,
,Objects\071a.jpg,163,0,164,,,,,,,None,,,j,0.22270790000038687,None,,,,164,0,163,2240.751671500002,,,,,,,,,,,,,,,,,,,,,,,2240.7372813,2240.751671500002,2241.235992599999,,,,,,,,,,,,,,2241.2542152000024,,,,,,,,,,,,,2241.2512351000005,2241.2542152000024,2241.2542152000024,2241.2542152000024,2244.2524723000024,shoe,None,,,2244.252617599999,2244.5039068000005,j,2244.2686453999995,2244.2686453999995,0.22270790000038687,None,,,,,,,,,,,,,00032,001,2025-11-17_18h52.18.098,MST_task,2024.2.0,60.164381122024466,2025-11-17 18h52.41.619671 +0530,
,Objects\198a.jpg,164,0,165,,,,,,,None,,,f,0.4644466999998258,None,,,,165,0,164,2244.518421200002,,,,,,,,,,,,,,,,,,,,,,,2244.504431199999,2244.518421200002,2245.0027033000006,,,,,,,,,,,,,,2245.018682500002,,,,,,,,,,,,,2245.010470600002,2245.018682500002,2245.018682500002,2245.018682500002,2248.003926600002,shoe,None,,,2248.004085299999,2248.4876498000012,f,2248.0184666999994,2248.0184666999994,0.4644466999998258,None,2248.0184666999994,2248.0184666999994,2248.0184666999994,,,,,,,,,,00032,001,2025-11-17_18h52.18.098,MST_task,2024.2.0,60.164381122024466,2025-11-17 18h52.41.619671 +0530,
,Objects\377a.jpg,165,0,166,,,,,,,None,,,j,0.4970631999967736,None,,,,166,0,165,2248.5017216000015,,,,,,,,,,,,,,,,,,,,,,,2248.488008100001,2248.5017216000015,2248.9860467,,,,,,,,,,,,,,2249.008848100002,,,,,,,,,,,,,2249.0057646999994,2249.008848100002,2249.008848100002,2249.008848100002,2252.0032243000023,shoe,None,,,2252.0033748999995,2252.5207831000007,j,2252.0184111000017,2252.0184111000017,0.4970631999967736,None,,,,,,,,,,,,,00032,001,2025-11-17_18h52.18.098,MST_task,2024.2.0,60.164381122024466,2025-11-17 18h52.41.619671 +0530,
,Objects\124a.jpg,166,0,167,,,,,,,None,,,j,0.7763075000002573,None,,,,167,0,166,2252.5349787000014,,,,,,,,,,,,,,,,,,,,,,,2252.521306999999,2252.5349787000014,2253.0196397,,,,,,,,,,,,,,2253.0359645999997,,,,,,,,,,,,,2253.033046299999,2253.0359645999997,2253.0359645999997,2253.0359645999997,2256.0201419000005,shoe,None,,,2256.0202100000024,2256.8201666999994,j,2256.034767600002,2256.034767600002,0.7763075000002573,None,2256.034767600002,2256.034767600002,2256.034767600002,,,,,,,,,,00032,001,2025-11-17_18h52.18.098,MST_task,2024.2.0,60.164381122024466,2025-11-17 18h52.41.619671 +0530,
,Objects\261a.jpg,167,0,168,,,,,,,None,,,f,0.4430998999996518,None,,,,168,0,167,2256.8349447,,,,,,,,,,,,,,,,,,,,,,,2256.8205033000013,2256.8349447,2257.3196528000008,,,,,,,,,,,,,,2257.338372500002,,,,,,,,,,,,,2257.3352565000023,2257.338372500002,2257.338372500002,2257.338372500002,2260.335703500001,shoe,None,,,2260.335854000001,2260.803982600002,f,2260.3517997000017,2260.3517997000017,0.4430998999996518,None,,,,,,,,,,,,,00032,001,2025-11-17_18h52.18.098,MST_task,2024.2.0,60.164381122024466,2025-11-17 18h52.41.619671 +0530,
,Objects\131a.jpg,168,0,169,,,,,,,None,,,j,0.6842744999994466,None,,,,169,0,168,2260.818391200002,,,,,,,,,,,,,,,,,,,,,,,2260.8043111000006,2260.818391200002,2261.3028293999996,,,,,,,,,,,,,,2261.320858400002,,,,,,,,,,,,,2261.317446000001,2261.320858400002,2261.320858400002,2261.320858400002,2264.3199171000015,indoor,None,,,2264.3276737000015,2265.0357095,j,2264.3350322000006,2264.3350322000006,0.6842744999994466,None,,,,,,,,,,,,,00032,001,2025-11-17_18h52.18.098,MST_task,2024.2.0,60.164381122024466,2025-11-17 18h52.41.619671 +0530,
