thisN,thisTrialN,thisRepN,key_resp_3.keys,key_resp_3.rt,key_resp_3.duration,trials.thisRepN,trials.thisTrialN,trials.thisN,thisRow.t,notes,intro_page.started,text.started,key_resp.started,intro_page.stopped,key_resp.keys,key_resp.rt,key_resp.duration,instructions.started,text_2.started,key_resp_2.started,instructions.stopped,key_resp_2.keys,key_resp_2.rt,key_resp_2.duration,demo1.started,image_1.started,image_2.started,text_7.started,key_resp_6.started,text_9.started,demo1.stopped,key_resp_6.keys,key_resp_6.rt,key_resp_6.duration,demo3.started,image_5.started,image_6.started,text_11.started,text_12.started,key_resp_8.started,demo3.stopped,key_resp_8.keys,key_resp_8.rt,key_resp_8.duration,demo_conclusion.started,text_13.started,key_resp_9.started,demo_conclusion.stopped,key_resp_9.keys,key_resp_9.rt,key_resp_9.duration,start_test.started,text_6.started,key_resp_5.started,start_test.stopped,key_resp_5.keys,key_resp_5.rt,key_resp_5.duration,ISI.started,text_4.started,text_4.stopped,ISI.stopped,routine_1.started,image.started,text_3.started,key_resp_3.started,routine_1.stopped,image_path,position_of_stimuli,trials.key_resp_3.keys,trials.key_resp_3.rt,trials.key_resp_3.duration,End_page.started,text_5.started,key_resp_4.started,End_page.stopped,key_resp_4.keys,key_resp_4.rt,key_resp_4.duration,participant,session,date,expName,psychopyVersion,frameRate,expStart,
,,,,,,,,,,,0.0015589999966323376,0.0034260000102221966,0.0034260000102221966,1.9649894000031054,space,1.948815800016746,None,,,,,,,,,,,,,,,,,,,,,,,,,,,,,,,,,,,,,,,,,,,,,,,,,,,,,,,,,,,,,,,00048,001,2026-01-18_11h57.30.393,MST_test,2024.2.0,60.07626080566894,2026-01-18 11h57.54.757306 +0530,
,,,,,,,,,,,,,,,,,,1.9650726999971084,1.9796422000217717,1.9796422000217717,39.42453010001918,space,37.436561200011056,None,,,,,,,,,,,,,,,,,,,,,,,,,,,,,,,,,,,,,,,,,,,,,,,,,,,,,,,,00048,001,2026-01-18_11h57.30.393,MST_test,2024.2.0,60.07626080566894,2026-01-18 11h57.54.757306 +0530,
,,,,,,,,,,,,,,,,,,,,,,,,,39.42458010002156,39.45793340000091,39.45793340000091,39.45793340000091,39.45793340000091,39.45793340000091,50.99301320000086,space,11.526541100000031,None,,,,,,,,,,,,,,,,,,,,,,,,,,,,,,,,,,,,,,,,,,,,,,00048,001,2026-01-18_11h57.30.393,MST_test,2024.2.0,60.07626080566894,2026-01-18 11h57.54.757306 +0530,
,,,,,,,,,,,,,,,,,,,,,,,,,,,,,,,,,,,50.993108399998164,51.00829040000099,51.00829040000099,51.00829040000099,51.00829040000099,51.00829040000099,54.17634570001974,space,3.1513107999926433,None,,,,,,,,,,,,,,,,,,,,,,,,,,,,,,,,,,,,00048,001,2026-01-18_11h57.30.393,MST_test,2024.2.0,60.07626080566894,2026-01-18 11h57.54.757306 +0530,
,,,,,,,,,,,,,,,,,,,,,,,,,,,,,,,,,,,,,,,,,,,,,54.176443400006974,54.19119470001897,54.19119470001897,76.17625010001939,space,21.968474499997683,None,,,,,,,,,,,,,,,,,,,,,,,,,,,,,00048,001,2026-01-18_11h57.30.393,MST_test,2024.2.0,60.07626080566894,2026-01-18 11h57.54.757306 +0530,
,,,,,,,,,,,,,,,,,,,,,,,,,,,,,,,,,,,,,,,,,,,,,,,,,,,,76.17639360000612,76.2040202000062,76.2040202000062,123.42589080001926,space,47.212133499997435,None,,,,,,,,,,,,,,,,,,,,,,00048,001,2026-01-18_11h57.30.393,MST_test,2024.2.0,60.07626080566894,2026-01-18 11h57.54.757306 +0530,
0,0,1,n,4.664897800015751,None,1,0,0,123.44106130002183,,,,,,,,,,,,,,,,,,,,,,,,,,,,,,,,,,,,,,,,,,,,,,,,,,123.43386280001141,123.44106130002183,123.9668731999991,123.92547970000305,123.96421900001587,123.9668731999991,123.9668731999991,123.9668731999991,128.64345890001277,Objects\262b.jpg,pre,n,4.664897800015751,None,,,,,,,,00048,001,2026-01-18_11h57.30.393,MST_test,2024.2.0,60.07626080566894,2026-01-18 11h57.54.757306 +0530,
1,0,2,n,8.66604909999296,None,2,0,1,128.657655899995,,,,,,,,,,,,,,,,,,,,,,,,,,,,,,,,,,,,,,,,,,,,,,,,,,128.64372730001924,128.657655899995,129.1584096000006,129.14233349999995,129.14865290001035,129.1584096000006,129.1584096000006,129.1584096000006,137.82658950000769,Objects\054a.jpg,post,n,8.66604909999296,None,,,,,,,,00048,001,2026-01-18_11h57.30.393,MST_test,2024.2.0,60.07626080566894,2026-01-18 11h57.54.757306 +0530,
2,0,3,n,5.93008109999937,None,3,0,2,137.84111660000053,,,,,,,,,,,,,,,,,,,,,,,,,,,,,,,,,,,,,,,,,,,,,,,,,,137.8268694000144,137.84111660000053,138.38147580000805,138.3254908999952,138.37747520001722,138.38147580000805,138.38147580000805,138.38147580000805,144.32641320000403,Objects\076b.jpg,mid,n,5.93008109999937,None,,,,,,,,00048,001,2026-01-18_11h57.30.393,MST_test,2024.2.0,60.07626080566894,2026-01-18 11h57.54.757306 +0530,
3,0,4,n,6.502406200015685,None,4,0,3,144.34108420001576,,,,,,,,,,,,,,,,,,,,,,,,,,,,,,,,,,,,,,,,,,,,,,,,,,144.32672860001912,144.34108420001576,144.84112950001145,144.82561699999496,144.83461330001592,144.84112950001145,144.84112950001145,144.84112950001145,151.35955799999647,Objects\162a.jpg,mid,n,6.502406200015685,None,,,,,,,,00048,001,2026-01-18_11h57.30.393,MST_test,2024.2.0,60.07626080566894,2026-01-18 11h57.54.757306 +0530,
4,0,5,n,6.510545799974352,None,5,0,4,151.3744955000002,,,,,,,,,,,,,,,,,,,,,,,,,,,,,,,,,,,,,,,,,,,,,,,,,,151.35997049999423,151.3744955000002,151.87451870000223,151.85882500000298,151.86763090000022,151.87451870000223,151.87451870000223,151.87451870000223,158.3932071000163,Objects\024a.jpg,post,n,6.510545799974352,None,,,,,,,,00048,001,2026-01-18_11h57.30.393,MST_test,2024.2.0,60.07626080566894,2026-01-18 11h57.54.757306 +0530,
5,0,6,n,5.7649413000035565,None,6,0,5,158.40764700001455,,,,,,,,,,,,,,,,,,,,,,,,,,,,,,,,,,,,,,,,,,,,,,,,,,158.39365270000417,158.40764700001455,158.90829590000794,158.89217850001296,158.89853130001575,158.90829590000794,158.90829590000794,158.90829590000794,164.67655570001807,Objects\377a.jpg,pre,n,5.7649413000035565,None,,,,,,,,00048,001,2026-01-18_11h57.30.393,MST_test,2024.2.0,60.07626080566894,2026-01-18 11h57.54.757306 +0530,
6,0,7,n,4.8075299999909475,None,7,0,6,164.69091510001454,,,,,,,,,,,,,,,,,,,,,,,,,,,,,,,,,,,,,,,,,,,,,,,,,,164.6767660000187,164.69091510001454,165.23323720000917,165.17533480000566,165.2297608999943,165.23323720000917,165.23323720000917,165.23323720000917,170.04308170001605,Foils\010a.jpg,none,n,4.8075299999909475,None,,,,,,,,00048,001,2026-01-18_11h57.30.393,MST_test,2024.2.0,60.07626080566894,2026-01-18 11h57.54.757306 +0530,
7,0,8,n,6.284775899985107,None,8,0,7,170.05749979999382,,,,,,,,,,,,,,,,,,,,,,,,,,,,,,,,,,,,,,,,,,,,,,,,,,170.04339400000754,170.05749979999382,170.57926739999675,170.54200700001093,170.57649860001402,170.57926739999675,170.57926739999675,170.57926739999675,176.87644540000474,Foils\042a.jpg,none,n,6.284775899985107,None,,,,,,,,00048,001,2026-01-18_11h57.30.393,MST_test,2024.2.0,60.07626080566894,2026-01-18 11h57.54.757306 +0530,
8,0,9,n,4.8265587000059895,None,9,0,8,176.89110180002172,,,,,,,,,,,,,,,,,,,,,,,,,,,,,,,,,,,,,,,,,,,,,,,,,,176.87683250001282,176.89110180002172,177.40539990001707,177.3755885999999,177.4026642999961,177.40539990001707,177.40539990001707,177.40539990001707,182.24203940000734,Foils\f7.jpg,none,n,4.8265587000059895,None,,,,,,,,00048,001,2026-01-18_11h57.30.393,MST_test,2024.2.0,60.07626080566894,2026-01-18 11h57.54.757306 +0530,
9,0,10,n,4.453346700000111,None,10,0,9,182.25766750000184,,,,,,,,,,,,,,,,,,,,,,,,,,,,,,,,,,,,,,,,,,,,,,,,,,182.24216490000254,182.25766750000184,182.79546819999814,182.7421210000175,182.7911279000109,182.79546819999814,182.79546819999814,182.79546819999814,187.26026050001383,Objects\078b.jpg,pre,n,4.453346700000111,None,,,,,,,,00048,001,2026-01-18_11h57.30.393,MST_test,2024.2.0,60.07626080566894,2026-01-18 11h57.54.757306 +0530,
10,0,11,n,6.553295099991374,None,11,0,10,187.27422320001642,,,,,,,,,,,,,,,,,,,,,,,,,,,,,,,,,,,,,,,,,,,,,,,,,,187.26058070000727,187.27422320001642,187.77483830001438,187.75871510000434,187.76573280000594,187.77483830001438,187.77483830001438,187.77483830001438,194.34287330001825,Objects\224a.jpg,post,n,6.553295099991374,None,,,,,,,,00048,001,2026-01-18_11h57.30.393,MST_test,2024.2.0,60.07626080566894,2026-01-18 11h57.54.757306 +0530,
11,0,12,n,6.821362699993188,None,12,0,11,194.35780329999398,,,,,,,,,,,,,,,,,,,,,,,,,,,,,,,,,,,,,,,,,,,,,,,,,,194.3431402000133,194.35780329999398,194.85813010000857,194.842063899996,194.8502395999967,194.85813010000857,194.85813010000857,194.85813010000857,201.69313719999627,Objects\276a.jpg,post,n,6.821362699993188,None,,,,,,,,00048,001,2026-01-18_11h57.30.393,MST_test,2024.2.0,60.07626080566894,2026-01-18 11h57.54.757306 +0530,
12,0,13,n,7.577836299984483,None,13,0,12,201.70802600000752,,,,,,,,,,,,,,,,,,,,,,,,,,,,,,,,,,,,,,,,,,,,,,,,,,201.69365810000454,201.70802600000752,202.25458040001104,202.1921752000053,202.25040920000174,202.25458040001104,202.25458040001104,202.25458040001104,209.84291840001242,Foils\002a.jpg,none,n,7.577836299984483,None,,,,,,,,00048,001,2026-01-18_11h57.30.393,MST_test,2024.2.0,60.07626080566894,2026-01-18 11h57.54.757306 +0530,
13,0,14,n,4.734582599980058,None,14,0,13,209.85762200001045,,,,,,,,,,,,,,,,,,,,,,,,,,,,,,,,,,,,,,,,,,,,,,,,,,209.8431816000084,209.85762200001045,210.39327369999955,210.34187960001873,210.39069490000838,210.39327369999955,210.39327369999955,210.39327369999955,215.14300209999783,Objects\019b.jpg,mid,n,4.734582599980058,None,,,,,,,,00048,001,2026-01-18_11h57.30.393,MST_test,2024.2.0,60.07626080566894,2026-01-18 11h57.54.757306 +0530,
14,0,15,n,7.189306799991755,None,15,0,14,215.15773570002057,,,,,,,,,,,,,,,,,,,,,,,,,,,,,,,,,,,,,,,,,,,,,,,,,,215.14329979999457,215.15773570002057,215.6915672000032,215.6421468000044,215.68789910001215,215.6915672000032,215.6915672000032,215.6915672000032,222.8929626000172,Foils\057a.jpg,none,n,7.189306799991755,None,,,,,,,,00048,001,2026-01-18_11h57.30.393,MST_test,2024.2.0,60.07626080566894,2026-01-18 11h57.54.757306 +0530,
15,0,16,n,3.228691099997377,None,16,0,15,222.90765340000507,,,,,,,,,,,,,,,,,,,,,,,,,,,,,,,,,,,,,,,,,,,,,,,,,,222.89328020001994,222.90765340000507,223.45975959999487,223.3921921000001,223.4570341000217,223.45975959999487,223.45975959999487,223.45975959999487,226.69324340001913,Objects\226b.jpg,pre,n,3.228691099997377,None,,,,,,,,00048,001,2026-01-18_11h57.30.393,MST_test,2024.2.0,60.07626080566894,2026-01-18 11h57.54.757306 +0530,
16,0,17,n,3.496232900011819,None,17,0,16,226.7076783000084,,,,,,,,,,,,,,,,,,,,,,,,,,,,,,,,,,,,,,,,,,,,,,,,,,226.6935177000123,226.7076783000084,227.2083870000206,227.19215590000385,227.19963250000728,227.2083870000206,227.2083870000206,227.2083870000206,230.7095965000044,Objects\343a.jpg,pre,n,3.496232900011819,None,,,,,,,,00048,001,2026-01-18_11h57.30.393,MST_test,2024.2.0,60.07626080566894,2026-01-18 11h57.54.757306 +0530,
17,0,18,n,4.223804600012954,None,18,0,17,230.72478930000216,,,,,,,,,,,,,,,,,,,,,,,,,,,,,,,,,,,,,,,,,,,,,,,,,,230.7100536999933,230.72478930000216,231.24121199999354,231.20898739999393,231.23846370002138,231.24121199999354,231.24121199999354,231.24121199999354,235.47622060001595,Objects\161b.jpg,post,n,4.223804600012954,None,,,,,,,,00048,001,2026-01-18_11h57.30.393,MST_test,2024.2.0,60.07626080566894,2026-01-18 11h57.54.757306 +0530,
18,0,19,n,4.800800900004106,None,19,0,18,235.49102070002118,,,,,,,,,,,,,,,,,,,,,,,,,,,,,,,,,,,,,,,,,,,,,,,,,,235.4764593,235.49102070002118,235.99128800001927,235.9753311999957,235.98043270001654,235.99128800001927,235.99128800001927,235.99128800001927,240.8090817000193,Objects\151a.jpg,pre,n,4.800800900004106,None,,,,,,,,00048,001,2026-01-18_11h57.30.393,MST_test,2024.2.0,60.07626080566894,2026-01-18 11h57.54.757306 +0530,
19,0,20,n,2.95557779999217,None,20,0,19,240.825101800001,,,,,,,,,,,,,,,,,,,,,,,,,,,,,,,,,,,,,,,,,,,,,,,,,,240.80936390001443,240.825101800001,241.32527160001337,241.30895920001785,241.31536140001845,241.32527160001337,241.32527160001337,241.32527160001337,244.29335670001456,Objects\149a.jpg,pre,n,2.95557779999217,None,,,,,,,,00048,001,2026-01-18_11h57.30.393,MST_test,2024.2.0,60.07626080566894,2026-01-18 11h57.54.757306 +0530,
20,0,21,n,4.05673760001082,None,21,0,20,244.3077200000116,,,,,,,,,,,,,,,,,,,,,,,,,,,,,,,,,,,,,,,,,,,,,,,,,,244.29372590000276,244.3077200000116,244.80792799999472,244.79223640001146,244.79791550000664,244.80792799999472,244.80792799999472,244.80792799999472,248.87638790000346,Objects\123a.jpg,pre,n,4.05673760001082,None,,,,,,,,00048,001,2026-01-18_11h57.30.393,MST_test,2024.2.0,60.07626080566894,2026-01-18 11h57.54.757306 +0530,
21,0,22,n,3.91359349997947,None,22,0,21,248.89109210000606,,,,,,,,,,,,,,,,,,,,,,,,,,,,,,,,,,,,,,,,,,,,,,,,,,248.87682370000402,248.89109210000606,249.39151169999968,249.37567110001692,249.3816508000018,249.39151169999968,249.39151169999968,249.39151169999968,253.30954079999356,Objects\362a.jpg,mid,n,3.91359349997947,None,,,,,,,,00048,001,2026-01-18_11h57.30.393,MST_test,2024.2.0,60.07626080566894,2026-01-18 11h57.54.757306 +0530,
22,0,23,n,3.4885199000127614,None,23,0,22,253.32435320000513,,,,,,,,,,,,,,,,,,,,,,,,,,,,,,,,,,,,,,,,,,,,,,,,,,253.31000920000952,253.32435320000513,253.85594310000306,253.80963269999484,253.8513268000097,253.85594310000306,253.85594310000306,253.85594310000306,257.3609284000122,Foils\086a.jpg,none,n,3.4885199000127614,None,,,,,,,,00048,001,2026-01-18_11h57.30.393,MST_test,2024.2.0,60.07626080566894,2026-01-18 11h57.54.757306 +0530,
23,0,24,n,2.6369287999987137,None,24,0,23,257.37432100001024,,,,,,,,,,,,,,,,,,,,,,,,,,,,,,,,,,,,,,,,,,,,,,,,,,257.3612441000005,257.37432100001024,257.87457790001645,257.8589447000122,257.86494339999626,257.87457790001645,257.87457790001645,257.87457790001645,260.5261497000174,Objects\079a.jpg,pre,n,2.6369287999987137,None,,,,,,,,00048,001,2026-01-18_11h57.30.393,MST_test,2024.2.0,60.07626080566894,2026-01-18 11h57.54.757306 +0530,
24,0,25,n,3.8674831000098493,None,25,0,24,260.5409848999989,,,,,,,,,,,,,,,,,,,,,,,,,,,,,,,,,,,,,,,,,,,,,,,,,,260.52637190002133,260.5409848999989,261.08580329999677,261.0254260000074,261.0829666000209,261.08580329999677,261.08580329999677,261.08580329999677,264.9594669000071,Objects\052b.jpg,pre,n,3.8674831000098493,None,,,,,,,,00048,001,2026-01-18_11h57.30.393,MST_test,2024.2.0,60.07626080566894,2026-01-18 11h57.54.757306 +0530,
25,0,26,n,4.317648600001121,None,26,0,25,264.9742940000142,,,,,,,,,,,,,,,,,,,,,,,,,,,,,,,,,,,,,,,,,,,,,,,,,,264.95970380000654,264.9742940000142,265.47459420000087,265.45873430001666,265.4646238000132,265.47459420000087,265.47459420000087,265.47459420000087,269.8092850999965,Objects\176a.jpg,mid,n,4.317648600001121,None,,,,,,,,00048,001,2026-01-18_11h57.30.393,MST_test,2024.2.0,60.07626080566894,2026-01-18 11h57.54.757306 +0530,
26,0,27,n,2.179033599997638,None,27,0,26,269.8241076999984,,,,,,,,,,,,,,,,,,,,,,,,,,,,,,,,,,,,,,,,,,,,,,,,,,269.8095024000213,269.8241076999984,270.3245571000152,270.30905780001194,270.316631099995,270.3245571000152,270.3245571000152,270.3245571000152,272.51005219999934,Objects\056a.jpg,pre,n,2.179033599997638,None,,,,,,,,00048,001,2026-01-18_11h57.30.393,MST_test,2024.2.0,60.07626080566894,2026-01-18 11h57.54.757306 +0530,
27,0,28,n,2.536572699988028,None,28,0,27,272.5243974000041,,,,,,,,,,,,,,,,,,,,,,,,,,,,,,,,,,,,,,,,,,,,,,,,,,272.51043350002146,272.5243974000041,273.04792300000554,273.0091607000213,273.04464649999863,273.04792300000554,273.04792300000554,273.04792300000554,275.5933383000083,Foils\f6.jpg,none,n,2.536572699988028,None,,,,,,,,00048,001,2026-01-18_11h57.30.393,MST_test,2024.2.0,60.07626080566894,2026-01-18 11h57.54.757306 +0530,
28,0,29,n,1.4044712999893818,None,29,0,28,275.60765770002035,,,,,,,,,,,,,,,,,,,,,,,,,,,,,,,,,,,,,,,,,,,,,,,,,,275.59371080002165,275.60765770002035,276.1080245000194,276.0921592999948,276.10041340001044,276.1080245000194,276.1080245000194,276.1080245000194,277.5262098000094,Objects\043a.jpg,post,n,1.4044712999893818,None,,,,,,,,00048,001,2026-01-18_11h57.30.393,MST_test,2024.2.0,60.07626080566894,2026-01-18 11h57.54.757306 +0530,
29,0,30,n,2.3013062000100035,None,30,0,29,277.541212000011,,,,,,,,,,,,,,,,,,,,,,,,,,,,,,,,,,,,,,,,,,,,,,,,,,277.52657680000993,277.541212000011,278.06768450001255,278.02544399999897,278.0645587000181,278.06768450001255,278.06768450001255,278.06768450001255,280.3764512000198,Objects\289b.jpg,mid,n,2.3013062000100035,None,,,,,,,,00048,001,2026-01-18_11h57.30.393,MST_test,2024.2.0,60.07626080566894,2026-01-18 11h57.54.757306 +0530,
30,0,31,n,1.8450089000107255,None,31,0,30,280.3910723000008,,,,,,,,,,,,,,,,,,,,,,,,,,,,,,,,,,,,,,,,,,,,,,,,,,280.3767960999976,280.3910723000008,280.8913617999933,280.8754440000048,280.88622260000557,280.8913617999933,280.8913617999933,280.8913617999933,282.74340239999583,Objects\328a.jpg,post,n,1.8450089000107255,None,,,,,,,,00048,001,2026-01-18_11h57.30.393,MST_test,2024.2.0,60.07626080566894,2026-01-18 11h57.54.757306 +0530,
31,0,32,n,3.5930799999914598,None,32,0,31,282.7577330000058,,,,,,,,,,,,,,,,,,,,,,,,,,,,,,,,,,,,,,,,,,,,,,,,,,282.7437587000022,282.7577330000058,283.2793403000105,283.24207480001496,283.2768383999937,283.2793403000105,283.2793403000105,283.2793403000105,286.8763336999982,Foils\018a.jpg,none,n,3.5930799999914598,None,,,,,,,,00048,001,2026-01-18_11h57.30.393,MST_test,2024.2.0,60.07626080566894,2026-01-18 11h57.54.757306 +0530,
32,0,33,n,2.3611337000038475,None,33,0,32,286.89101350001874,,,,,,,,,,,,,,,,,,,,,,,,,,,,,,,,,,,,,,,,,,,,,,,,,,286.8765847000177,286.89101350001874,287.3915562000184,287.3755288000102,287.38345170000684,287.3915562000184,287.3915562000184,287.3915562000184,289.75947960000485,Objects\337a.jpg,mid,n,2.3611337000038475,None,,,,,,,,00048,001,2026-01-18_11h57.30.393,MST_test,2024.2.0,60.07626080566894,2026-01-18 11h57.54.757306 +0530,
33,0,34,n,2.998379099997692,None,34,0,33,289.7742915000126,,,,,,,,,,,,,,,,,,,,,,,,,,,,,,,,,,,,,,,,,,,,,,,,,,289.7598220000218,289.7742915000126,290.27466990001267,290.2589771000203,290.27008270000806,290.27466990001267,290.27466990001267,290.27466990001267,293.2761560000072,Objects\350a.jpg,pre,n,2.998379099997692,None,,,,,,,,00048,001,2026-01-18_11h57.30.393,MST_test,2024.2.0,60.07626080566894,2026-01-18 11h57.54.757306 +0530,
34,0,35,n,2.9684664999949746,None,35,0,34,293.29109620000236,,,,,,,,,,,,,,,,,,,,,,,,,,,,,,,,,,,,,,,,,,,,,,,,,,293.27645570001914,293.29109620000236,293.7912893000175,293.77565180000965,293.7836810000008,293.7912893000175,293.7912893000175,293.7912893000175,296.77642750000814,Objects\332a.jpg,pre,n,2.9684664999949746,None,,,,,,,,00048,001,2026-01-18_11h57.30.393,MST_test,2024.2.0,60.07626080566894,2026-01-18 11h57.54.757306 +0530,
35,0,36,n,2.757322999997996,None,36,0,35,296.7909624000022,,,,,,,,,,,,,,,,,,,,,,,,,,,,,,,,,,,,,,,,,,,,,,,,,,296.77680180000607,296.7909624000022,297.2916705000098,297.2758240000112,297.2814849000133,297.2916705000098,297.2916705000098,297.2916705000098,300.05983840001863,Objects\333a.jpg,post,n,2.757322999997996,None,,,,,,,,00048,001,2026-01-18_11h57.30.393,MST_test,2024.2.0,60.07626080566894,2026-01-18 11h57.54.757306 +0530,
36,0,37,n,3.5671721000107937,None,37,0,36,300.07432390001486,,,,,,,,,,,,,,,,,,,,,,,,,,,,,,,,,,,,,,,,,,,,,,,,,,300.06024970000726,300.07432390001486,300.6089649000205,300.5588768000016,300.606557799998,300.6089649000205,300.6089649000205,300.6089649000205,304.19254610000644,Foils\081a.jpg,none,n,3.5671721000107937,None,,,,,,,,00048,001,2026-01-18_11h57.30.393,MST_test,2024.2.0,60.07626080566894,2026-01-18 11h57.54.757306 +0530,
37,0,38,n,1.7246989000122994,None,38,0,37,304.20801070000743,,,,,,,,,,,,,,,,,,,,,,,,,,,,,,,,,,,,,,,,,,,,,,,,,,304.1928535000188,304.20801070000743,304.7078652000055,304.69209460000275,304.6976922000176,304.7078652000055,304.7078652000055,304.7078652000055,306.4433940000017,Objects\048a.jpg,mid,n,1.7246989000122994,None,,,,,,,,00048,001,2026-01-18_11h57.30.393,MST_test,2024.2.0,60.07626080566894,2026-01-18 11h57.54.757306 +0530,
38,0,39,n,1.7300391999888234,None,39,0,38,306.457559100003,,,,,,,,,,,,,,,,,,,,,,,,,,,,,,,,,,,,,,,,,,,,,,,,,,306.44377790001454,306.457559100003,306.95837880001636,306.9420927000174,306.94909340000595,306.95837880001636,306.95837880001636,306.95837880001636,308.6940109000134,Objects\213a.jpg,pre,n,1.7300391999888234,None,,,,,,,,00048,001,2026-01-18_11h57.30.393,MST_test,2024.2.0,60.07626080566894,2026-01-18 11h57.54.757306 +0530,
39,0,40,n,2.336272000015015,None,40,0,39,308.70773170000757,,,,,,,,,,,,,,,,,,,,,,,,,,,,,,,,,,,,,,,,,,,,,,,,,,308.6942711000156,308.70773170000757,309.2080896999978,309.1921172000002,309.19801449999795,309.2080896999978,309.2080896999978,309.2080896999978,311.5596351000131,Objects\117a.jpg,mid,n,2.336272000015015,None,,,,,,,,00048,001,2026-01-18_11h57.30.393,MST_test,2024.2.0,60.07626080566894,2026-01-18 11h57.54.757306 +0530,
40,0,41,n,2.4461619000067003,None,41,0,40,311.57434819999617,,,,,,,,,,,,,,,,,,,,,,,,,,,,,,,,,,,,,,,,,,,,,,,,,,311.5599790000124,311.57434819999617,312.0746950000175,312.05877319999854,312.06646540001384,312.0746950000175,312.0746950000175,312.0746950000175,314.52629579999484,Objects\086a.jpg,mid,n,2.4461619000067003,None,,,,,,,,00048,001,2026-01-18_11h57.30.393,MST_test,2024.2.0,60.07626080566894,2026-01-18 11h57.54.757306 +0530,
41,0,42,n,2.2946920999966096,None,42,0,41,314.54088350001257,,,,,,,,,,,,,,,,,,,,,,,,,,,,,,,,,,,,,,,,,,,,,,,,,,314.52657240000553,314.54088350001257,315.04130840001744,315.0257523000182,315.0314689000079,315.04130840001744,315.04130840001744,315.04130840001744,317.34269819999463,Objects\131a.jpg,post,n,2.2946920999966096,None,,,,,,,,00048,001,2026-01-18_11h57.30.393,MST_test,2024.2.0,60.07626080566894,2026-01-18 11h57.54.757306 +0530,
42,0,43,n,2.134068399987882,None,43,0,42,317.3578063000168,,,,,,,,,,,,,,,,,,,,,,,,,,,,,,,,,,,,,,,,,,,,,,,,,,317.34307900001295,317.3578063000168,317.8811874999956,317.84208940001554,317.8776077000075,317.8811874999956,317.8811874999956,317.8811874999956,320.02618889999576,Objects\380b.jpg,mid,n,2.134068399987882,None,,,,,,,,00048,001,2026-01-18_11h57.30.393,MST_test,2024.2.0,60.07626080566894,2026-01-18 11h57.54.757306 +0530,
43,0,44,n,2.9146363000036217,None,44,0,43,320.0409414000169,,,,,,,,,,,,,,,,,,,,,,,,,,,,,,,,,,,,,,,,,,,,,,,,,,320.02654880000046,320.0409414000169,320.5416060000134,320.5255412000115,320.53387899999507,320.5416060000134,320.5416060000134,320.5416060000134,323.4587201999966,Objects\382a.jpg,mid,n,2.9146363000036217,None,,,,,,,,00048,001,2026-01-18_11h57.30.393,MST_test,2024.2.0,60.07626080566894,2026-01-18 11h57.54.757306 +0530,
44,0,45,n,2.8616112000017893,None,45,0,44,323.47521360000246,,,,,,,,,,,,,,,,,,,,,,,,,,,,,,,,,,,,,,,,,,,,,,,,,,323.4588345999946,323.47521360000246,324.00238250000984,323.9588841999939,323.9996179000009,324.00238250000984,324.00238250000984,324.00238250000984,326.87588700000197,Objects\254b.jpg,mid,n,2.8616112000017893,None,,,,,,,,00048,001,2026-01-18_11h57.30.393,MST_test,2024.2.0,60.07626080566894,2026-01-18 11h57.54.757306 +0530,
45,0,46,n,2.8915852999780327,None,46,0,45,326.89106449999963,,,,,,,,,,,,,,,,,,,,,,,,,,,,,,,,,,,,,,,,,,,,,,,,,,326.8761247000075,326.89106449999963,327.4197640000202,327.37529720002203,327.41681830000016,327.4197640000202,327.4197640000202,327.4197640000202,330.32612830001744,Objects\220b.jpg,pre,n,2.8915852999780327,None,,,,,,,,00048,001,2026-01-18_11h57.30.393,MST_test,2024.2.0,60.07626080566894,2026-01-18 11h57.54.757306 +0530,
46,0,47,n,2.4236805999826174,None,47,0,46,330.34108969999943,,,,,,,,,,,,,,,,,,,,,,,,,,,,,,,,,,,,,,,,,,,,,,,,,,330.3263777999964,330.34108969999943,330.8415161000157,330.82541130000027,330.8312532000127,330.8415161000157,330.8415161000157,330.8415161000157,333.2759558999969,Objects\258a.jpg,pre,n,2.4236805999826174,None,,,,,,,,00048,001,2026-01-18_11h57.30.393,MST_test,2024.2.0,60.07626080566894,2026-01-18 11h57.54.757306 +0530,
47,0,48,n,2.569806099985726,None,48,0,47,333.291137799999,,,,,,,,,,,,,,,,,,,,,,,,,,,,,,,,,,,,,,,,,,,,,,,,,,333.27624249999644,333.291137799999,333.8145385000098,333.77548340000794,333.8106964000035,333.8145385000098,333.8145385000098,333.8145385000098,336.39301140001044,Foils\050a.jpg,none,n,2.569806099985726,None,,,,,,,,00048,001,2026-01-18_11h57.30.393,MST_test,2024.2.0,60.07626080566894,2026-01-18 11h57.54.757306 +0530,
48,0,49,n,3.62430470000254,None,49,0,48,336.40774690001854,,,,,,,,,,,,,,,,,,,,,,,,,,,,,,,,,,,,,,,,,,,,,,,,,,336.3934852000093,336.40774690001854,336.9443746000179,336.8920813000004,336.9405964000034,336.9443746000179,336.9443746000179,336.9443746000179,340.57637019999675,Objects\307b.jpg,mid,n,3.62430470000254,None,,,,,,,,00048,001,2026-01-18_11h57.30.393,MST_test,2024.2.0,60.07626080566894,2026-01-18 11h57.54.757306 +0530,
49,0,50,n,2.48572240001522,None,50,0,49,340.59103890002007,,,,,,,,,,,,,,,,,,,,,,,,,,,,,,,,,,,,,,,,,,,,,,,,,,340.57667880001827,340.59103890002007,341.1145827000146,341.0755432000151,341.1117097999959,341.1145827000146,341.1145827000146,341.1145827000146,343.6095168000029,Objects\152b.jpg,post,n,2.48572240001522,None,,,,,,,,00048,001,2026-01-18_11h57.30.393,MST_test,2024.2.0,60.07626080566894,2026-01-18 11h57.54.757306 +0530,
50,0,51,n,2.307511799997883,None,51,0,50,343.62426219999907,,,,,,,,,,,,,,,,,,,,,,,,,,,,,,,,,,,,,,,,,,,,,,,,,,343.6097543000069,343.62426219999907,344.1249289000116,344.1087059999991,344.11652270000195,344.1249289000116,344.1249289000116,344.1249289000116,346.44319390002056,Objects\357a.jpg,post,n,2.307511799997883,None,,,,,,,,00048,001,2026-01-18_11h57.30.393,MST_test,2024.2.0,60.07626080566894,2026-01-18 11h57.54.757306 +0530,
51,0,52,n,3.8417809999955352,None,52,0,51,346.45754750000197,,,,,,,,,,,,,,,,,,,,,,,,,,,,,,,,,,,,,,,,,,,,,,,,,,346.4436820000119,346.45754750000197,346.95800320000853,346.94199890000164,346.9489717000106,346.95800320000853,346.95800320000853,346.95800320000853,350.8092561000085,Objects\313a.jpg,pre,n,3.8417809999955352,None,,,,,,,,00048,001,2026-01-18_11h57.30.393,MST_test,2024.2.0,60.07626080566894,2026-01-18 11h57.54.757306 +0530,
52,0,53,n,1.6516779999947175,None,53,0,52,350.82454570001573,,,,,,,,,,,,,,,,,,,,,,,,,,,,,,,,,,,,,,,,,,,,,,,,,,350.809531100007,350.82454570001573,351.3567349000077,351.30946970000514,351.3533968999982,351.3567349000077,351.3567349000077,351.3567349000077,353.0102396000002,Foils\113a.jpg,none,n,1.6516779999947175,None,,,,,,,,00048,001,2026-01-18_11h57.30.393,MST_test,2024.2.0,60.07626080566894,2026-01-18 11h57.54.757306 +0530,
53,0,54,n,1.3015870000235736,None,54,0,53,353.024528000009,,,,,,,,,,,,,,,,,,,,,,,,,,,,,,,,,,,,,,,,,,,,,,,,,,353.01060249999864,353.024528000009,353.5467326999933,353.50879089999944,353.54379550000886,353.5467326999933,353.5467326999933,353.5467326999933,354.85957510001026,Objects\209b.jpg,mid,n,1.3015870000235736,None,,,,,,,,00048,001,2026-01-18_11h57.30.393,MST_test,2024.2.0,60.07626080566894,2026-01-18 11h57.54.757306 +0530,
54,0,55,n,2.2549174000159837,None,55,0,54,354.8743221000186,,,,,,,,,,,,,,,,,,,,,,,,,,,,,,,,,,,,,,,,,,,,,,,,,,354.8598242000153,354.8743221000186,355.40963559999363,355.3587538000138,355.4050412999932,355.40963559999363,355.40963559999363,355.40963559999363,357.6770288000116,Objects\196b.jpg,mid,n,2.2549174000159837,None,,,,,,,,00048,001,2026-01-18_11h57.30.393,MST_test,2024.2.0,60.07626080566894,2026-01-18 11h57.54.757306 +0530,
55,0,56,n,2.2203014999977313,None,56,0,55,357.6911022000131,,,,,,,,,,,,,,,,,,,,,,,,,,,,,,,,,,,,,,,,,,,,,,,,,,357.6772961000097,357.6911022000131,358.25268289999804,358.17564220001805,358.2499550000066,358.25268289999804,358.25268289999804,358.25268289999804,360.4762319000147,Foils\105a.jpg,none,n,2.2203014999977313,None,,,,,,,,00048,001,2026-01-18_11h57.30.393,MST_test,2024.2.0,60.07626080566894,2026-01-18 11h57.54.757306 +0530,
56,0,57,n,2.1670499999891035,None,57,0,56,360.49112710001646,,,,,,,,,,,,,,,,,,,,,,,,,,,,,,,,,,,,,,,,,,,,,,,,,,360.4764645000105,360.49112710001646,361.01758700000937,360.9754627000075,361.01476720001665,361.01758700000937,361.01758700000937,361.01758700000937,363.19297220002045,Objects\153b.jpg,pre,n,2.1670499999891035,None,,,,,,,,00048,001,2026-01-18_11h57.30.393,MST_test,2024.2.0,60.07626080566894,2026-01-18 11h57.54.757306 +0530,
57,0,58,s,5.4239332000142895,None,58,0,57,363.20773540000664,,,,,,,,,,,,,,,,,,,,,,,,,,,,,,,,,,,,,,,,,,,,,,,,,,363.1932606000046,363.20773540000664,363.7358086000022,363.6921804000158,363.7328729000001,363.7358086000022,363.7358086000022,363.7358086000022,369.1762782000005,Objects\310b.jpg,mid,s,5.4239332000142895,None,,,,,,,,00048,001,2026-01-18_11h57.30.393,MST_test,2024.2.0,60.07626080566894,2026-01-18 11h57.54.757306 +0530,
58,0,59,n,2.108760999981314,None,59,0,58,369.1911291000142,,,,,,,,,,,,,,,,,,,,,,,,,,,,,,,,,,,,,,,,,,,,,,,,,,369.176709100022,369.1911291000142,369.71576290001394,369.67553040001076,369.7125338000187,369.71576290001394,369.71576290001394,369.71576290001394,371.82682869999553,Foils\093b.jpg,none,n,2.108760999981314,None,,,,,,,,00048,001,2026-01-18_11h57.30.393,MST_test,2024.2.0,60.07626080566894,2026-01-18 11h57.54.757306 +0530,
59,0,60,n,1.3423507999978028,None,60,0,59,371.8409733000153,,,,,,,,,,,,,,,,,,,,,,,,,,,,,,,,,,,,,,,,,,,,,,,,,,371.8271216000139,371.8409733000153,372.3541583000042,372.3253817000077,372.35165290001896,372.3541583000042,372.3541583000042,372.3541583000042,373.7097248000209,Foils\082a.jpg,none,n,1.3423507999978028,None,,,,,,,,00048,001,2026-01-18_11h57.30.393,MST_test,2024.2.0,60.07626080566894,2026-01-18 11h57.54.757306 +0530,
60,0,61,n,2.0395127999945544,None,61,0,60,373.7245322999952,,,,,,,,,,,,,,,,,,,,,,,,,,,,,,,,,,,,,,,,,,,,,,,,,,373.7101401000109,373.7245322999952,374.2247336000146,374.2087281999993,374.2173720000137,374.2247336000146,374.2247336000146,374.2247336000146,376.2762939000095,Objects\053a.jpg,pre,n,2.0395127999945544,None,,,,,,,,00048,001,2026-01-18_11h57.30.393,MST_test,2024.2.0,60.07626080566894,2026-01-18 11h57.54.757306 +0530,
61,0,62,n,1.3644180000119377,None,62,0,61,376.2911250000179,,,,,,,,,,,,,,,,,,,,,,,,,,,,,,,,,,,,,,,,,,,,,,,,,,376.2766217000026,376.2911250000179,376.8433510000177,376.7757760999957,376.84067460001097,376.8433510000177,376.8433510000177,376.8433510000177,378.21017770000617,Objects\302b.jpg,post,n,1.3644180000119377,None,,,,,,,,00048,001,2026-01-18_11h57.30.393,MST_test,2024.2.0,60.07626080566894,2026-01-18 11h57.54.757306 +0530,
62,0,63,n,2.7547678999835625,None,63,0,62,378.2245507000189,,,,,,,,,,,,,,,,,,,,,,,,,,,,,,,,,,,,,,,,,,,,,,,,,,378.21057590001146,378.2245507000189,378.74926900002174,378.7089525000192,378.74654540000483,378.74926900002174,378.74926900002174,378.74926900002174,381.51008659999934,Objects\319b.jpg,post,n,2.7547678999835625,None,,,,,,,,00048,001,2026-01-18_11h57.30.393,MST_test,2024.2.0,60.07626080566894,2026-01-18 11h57.54.757306 +0530,
63,0,64,n,1.2716971000190824,None,64,0,63,381.5244647000218,,,,,,,,,,,,,,,,,,,,,,,,,,,,,,,,,,,,,,,,,,,,,,,,,,381.510400500003,381.5244647000218,382.0246243000147,382.0089164999954,382.0176888999995,382.0246243000147,382.0246243000147,382.0246243000147,383.30985670001246,Objects\298a.jpg,post,n,1.2716971000190824,None,,,,,,,,00048,001,2026-01-18_11h57.30.393,MST_test,2024.2.0,60.07626080566894,2026-01-18 11h57.54.757306 +0530,
64,0,65,n,2.2793920999974944,None,65,0,64,383.32435830001486,,,,,,,,,,,,,,,,,,,,,,,,,,,,,,,,,,,,,,,,,,,,,,,,,,383.3102705000201,383.32435830001486,383.8245367000054,383.80896070000017,383.8153358999989,383.8245367000054,383.8245367000054,383.8245367000054,386.109938700014,Objects\165a.jpg,pre,n,2.2793920999974944,None,,,,,,,,00048,001,2026-01-18_11h57.30.393,MST_test,2024.2.0,60.07626080566894,2026-01-18 11h57.54.757306 +0530,
65,0,66,n,1.214358800003538,None,66,0,65,386.1243975000107,,,,,,,,,,,,,,,,,,,,,,,,,,,,,,,,,,,,,,,,,,,,,,,,,,386.11020409999765,386.1243975000107,386.6574978000135,386.6089437000046,386.65509929999826,386.6574978000135,386.6574978000135,386.6574978000135,387.8766319999995,Objects\050b.jpg,post,n,1.214358800003538,None,,,,,,,,00048,001,2026-01-18_11h57.30.393,MST_test,2024.2.0,60.07626080566894,2026-01-18 11h57.54.757306 +0530,
66,0,67,n,1.7794768000021577,None,67,0,66,387.8910160000087,,,,,,,,,,,,,,,,,,,,,,,,,,,,,,,,,,,,,,,,,,,,,,,,,,387.87697730000946,387.8910160000087,388.41228730001603,388.3754831000115,388.4097025000083,388.41228730001603,388.41228730001603,388.41228730001603,390.1936529999948,Foils\074a.jpg,none,n,1.7794768000021577,None,,,,,,,,00048,001,2026-01-18_11h57.30.393,MST_test,2024.2.0,60.07626080566894,2026-01-18 11h57.54.757306 +0530,
67,0,68,n,2.972705299995141,None,68,0,67,390.20775140001206,,,,,,,,,,,,,,,,,,,,,,,,,,,,,,,,,,,,,,,,,,,,,,,,,,390.19397140000365,390.20775140001206,390.7078173000191,390.69222680001985,390.69992290000664,390.7078173000191,390.7078173000191,390.7078173000191,393.69318070000736,Objects\326a.jpg,pre,n,2.972705299995141,None,,,,,,,,00048,001,2026-01-18_11h57.30.393,MST_test,2024.2.0,60.07626080566894,2026-01-18 11h57.54.757306 +0530,
68,0,69,n,2.086980299995048,None,69,0,68,393.7077932000102,,,,,,,,,,,,,,,,,,,,,,,,,,,,,,,,,,,,,,,,,,,,,,,,,,393.69367199999397,393.7077932000102,394.224886800017,394.19198279999546,394.2218305999995,394.224886800017,394.224886800017,394.224886800017,396.3262034000072,Objects\077b.jpg,post,n,2.086980299995048,None,,,,,,,,00048,001,2026-01-18_11h57.30.393,MST_test,2024.2.0,60.07626080566894,2026-01-18 11h57.54.757306 +0530,
69,0,70,n,2.2142735999950673,None,70,0,69,396.3411377000157,,,,,,,,,,,,,,,,,,,,,,,,,,,,,,,,,,,,,,,,,,,,,,,,,,396.32643380001537,396.3411377000157,396.8649839000136,396.8255664000171,396.86231399999815,396.8649839000136,396.8649839000136,396.8649839000136,399.09300779999467,Foils\073a.jpg,none,n,2.2142735999950673,None,,,,,,,,00048,001,2026-01-18_11h57.30.393,MST_test,2024.2.0,60.07626080566894,2026-01-18 11h57.54.757306 +0530,
70,0,71,n,1.6927138000028208,None,71,0,70,399.1075424000155,,,,,,,,,,,,,,,,,,,,,,,,,,,,,,,,,,,,,,,,,,,,,,,,,,399.09343140001874,399.1075424000155,399.61183690000325,399.5924326000095,399.6091442000179,399.61183690000325,399.61183690000325,399.61183690000325,401.3097502000164,Foils\058a.jpg,none,n,1.6927138000028208,None,,,,,,,,00048,001,2026-01-18_11h57.30.393,MST_test,2024.2.0,60.07626080566894,2026-01-18 11h57.54.757306 +0530,
71,0,72,n,2.8073150999844074,None,72,0,71,401.3243019999936,,,,,,,,,,,,,,,,,,,,,,,,,,,,,,,,,,,,,,,,,,,,,,,,,,401.31006059999345,401.3243019999936,401.8250321999949,401.8086584999983,401.81626150000375,401.8250321999949,401.8250321999949,401.8250321999949,404.64262090000557,Objects\268a.jpg,mid,n,2.8073150999844074,None,,,,,,,,00048,001,2026-01-18_11h57.30.393,MST_test,2024.2.0,60.07626080566894,2026-01-18 11h57.54.757306 +0530,
72,0,73,n,1.4111833000206389,None,73,0,72,404.65767099999357,,,,,,,,,,,,,,,,,,,,,,,,,,,,,,,,,,,,,,,,,,,,,,,,,,404.6429078000074,404.65767099999357,405.1579574000207,405.14223260001745,405.1480657000211,405.1579574000207,405.1579574000207,405.1579574000207,406.5761131000181,Objects\222a.jpg,pre,n,1.4111833000206389,None,,,,,,,,00048,001,2026-01-18_11h57.30.393,MST_test,2024.2.0,60.07626080566894,2026-01-18 11h57.54.757306 +0530,
73,0,74,n,3.995077300001867,None,74,0,73,406.5910042000178,,,,,,,,,,,,,,,,,,,,,,,,,,,,,,,,,,,,,,,,,,,,,,,,,,406.5763651000161,406.5910042000178,407.1168832000112,407.0753162000037,407.1142020999978,407.1168832000112,407.1168832000112,407.1168832000112,411.12639049999416,Objects\060b.jpg,pre,n,3.995077300001867,None,,,,,,,,00048,001,2026-01-18_11h57.30.393,MST_test,2024.2.0,60.07626080566894,2026-01-18 11h57.54.757306 +0530,
74,0,75,n,1.6878724000125658,None,75,0,74,411.1410767000052,,,,,,,,,,,,,,,,,,,,,,,,,,,,,,,,,,,,,,,,,,,,,,,,,,411.12683059999836,411.1410767000052,411.65733650000766,411.62575040000957,411.65457569999853,411.65733650000766,411.65733650000766,411.65733650000766,413.3597620000073,Objects\286b.jpg,post,n,1.6878724000125658,None,,,,,,,,00048,001,2026-01-18_11h57.30.393,MST_test,2024.2.0,60.07626080566894,2026-01-18 11h57.54.757306 +0530,
75,0,76,s,8.756849500001408,None,76,0,75,413.37437200002023,,,,,,,,,,,,,,,,,,,,,,,,,,,,,,,,,,,,,,,,,,,,,,,,,,413.3601783000049,413.37437200002023,413.87477300001774,413.85886180002126,413.8649085999932,413.87477300001774,413.87477300001774,413.87477300001774,422.64280080000754,Objects\081a.jpg,post,s,8.756849500001408,None,,,,,,,,00048,001,2026-01-18_11h57.30.393,MST_test,2024.2.0,60.07626080566894,2026-01-18 11h57.54.757306 +0530,
76,0,77,n,2.5701335000048857,None,77,0,76,422.65769300001557,,,,,,,,,,,,,,,,,,,,,,,,,,,,,,,,,,,,,,,,,,,,,,,,,,422.6431160000211,422.65769300001557,423.1581372000219,423.1422762000002,423.1498502000177,423.1581372000219,423.1581372000219,423.1581372000219,425.7429919000133,Objects\316a.jpg,mid,n,2.5701335000048857,None,,,,,,,,00048,001,2026-01-18_11h57.30.393,MST_test,2024.2.0,60.07626080566894,2026-01-18 11h57.54.757306 +0530,
77,0,78,n,2.197945099993376,None,78,0,77,425.7576359999948,,,,,,,,,,,,,,,,,,,,,,,,,,,,,,,,,,,,,,,,,,,,,,,,,,425.7433338999981,425.7576359999948,426.2750471000036,426.24213610001607,426.2722015000181,426.2750471000036,426.2750471000036,426.2750471000036,428.4765389999957,Foils\017a.jpg,none,n,2.197945099993376,None,,,,,,,,00048,001,2026-01-18_11h57.30.393,MST_test,2024.2.0,60.07626080566894,2026-01-18 11h57.54.757306 +0530,
78,0,79,n,1.5125883999862708,None,79,0,78,428.4909794999985,,,,,,,,,,,,,,,,,,,,,,,,,,,,,,,,,,,,,,,,,,,,,,,,,,428.47675950001576,428.4909794999985,428.9914185999951,428.97554690000834,428.9817424000066,428.9914185999951,428.9914185999951,428.9914185999951,430.50959140001214,Objects\144a.jpg,mid,n,1.5125883999862708,None,,,,,,,,00048,001,2026-01-18_11h57.30.393,MST_test,2024.2.0,60.07626080566894,2026-01-18 11h57.54.757306 +0530,
79,0,80,n,2.301765499985777,None,80,0,79,430.5244735000015,,,,,,,,,,,,,,,,,,,,,,,,,,,,,,,,,,,,,,,,,,,,,,,,,,430.50985220001894,430.5244735000015,431.04176170000574,431.00888690000284,431.038126200001,431.04176170000574,431.04176170000574,431.04176170000574,433.3594275000214,Foils\f5.jpg,none,n,2.301765499985777,None,,,,,,,,00048,001,2026-01-18_11h57.30.393,MST_test,2024.2.0,60.07626080566894,2026-01-18 11h57.54.757306 +0530,
80,0,81,n,1.5880661999981385,None,81,0,80,433.37466299999505,,,,,,,,,,,,,,,,,,,,,,,,,,,,,,,,,,,,,,,,,,,,,,,,,,433.35977300000377,433.37466299999505,433.9083377000061,433.8590743000095,433.90546080001513,433.9083377000061,433.9083377000061,433.9083377000061,435.50945579999825,Objects\096b.jpg,post,n,1.5880661999981385,None,,,,,,,,00048,001,2026-01-18_11h57.30.393,MST_test,2024.2.0,60.07626080566894,2026-01-18 11h57.54.757306 +0530,
81,0,82,n,1.481555499980459,None,82,0,81,435.52428390001296,,,,,,,,,,,,,,,,,,,,,,,,,,,,,,,,,,,,,,,,,,,,,,,,,,435.50974920002045,435.52428390001296,436.062462700007,436.0089949000103,436.05947180002113,436.062462700007,436.062462700007,436.062462700007,437.5598866000073,Objects\215b.jpg,pre,n,1.481555499980459,None,,,,,,,,00048,001,2026-01-18_11h57.30.393,MST_test,2024.2.0,60.07626080566894,2026-01-18 11h57.54.757306 +0530,
82,0,83,n,3.8044789000123274,None,83,0,82,437.57440020001377,,,,,,,,,,,,,,,,,,,,,,,,,,,,,,,,,,,,,,,,,,,,,,,,,,437.560226600006,437.57440020001377,438.1309062000073,438.05880190001335,438.12812810001196,438.1309062000073,438.1309062000073,438.1309062000073,441.94298799999524,Objects\237b.jpg,post,n,3.8044789000123274,None,,,,,,,,00048,001,2026-01-18_11h57.30.393,MST_test,2024.2.0,60.07626080566894,2026-01-18 11h57.54.757306 +0530,
83,0,84,n,2.7906844999815803,None,84,0,83,441.9577831000206,,,,,,,,,,,,,,,,,,,,,,,,,,,,,,,,,,,,,,,,,,,,,,,,,,441.94329070000094,441.9577831000206,442.45806080001057,442.442418599996,442.45051690001856,442.45806080001057,442.45806080001057,442.45806080001057,445.2596873000148,Objects\272a.jpg,post,n,2.7906844999815803,None,,,,,,,,00048,001,2026-01-18_11h57.30.393,MST_test,2024.2.0,60.07626080566894,2026-01-18 11h57.54.757306 +0530,
84,0,85,n,1.3199662999832071,None,85,0,84,445.2743689000199,,,,,,,,,,,,,,,,,,,,,,,,,,,,,,,,,,,,,,,,,,,,,,,,,,445.25993339999695,445.2743689000199,445.80778719999944,445.7586541000055,445.80493340000976,445.80778719999944,445.80778719999944,445.80778719999944,447.14309230001527,Objects\116b.jpg,post,n,1.3199662999832071,None,,,,,,,,00048,001,2026-01-18_11h57.30.393,MST_test,2024.2.0,60.07626080566894,2026-01-18 11h57.54.757306 +0530,
85,0,86,s,3.5011113999935333,None,86,0,85,447.1577356000198,,,,,,,,,,,,,,,,,,,,,,,,,,,,,,,,,,,,,,,,,,,,,,,,,,447.1433426000003,447.1577356000198,447.6579548000009,447.642204600008,447.6494256000151,447.6579548000009,447.6579548000009,447.6579548000009,451.1763823000074,Objects\347a.jpg,pre,s,3.5011113999935333,None,,,,,,,,00048,001,2026-01-18_11h57.30.393,MST_test,2024.2.0,60.07626080566894,2026-01-18 11h57.54.757306 +0530,
86,0,87,n,1.3932030999858398,None,87,0,86,451.19117790000746,,,,,,,,,,,,,,,,,,,,,,,,,,,,,,,,,,,,,,,,,,,,,,,,,,451.176646500011,451.19117790000746,451.71817599999486,451.67579350000597,451.71561230000225,451.71817599999486,451.71817599999486,451.71817599999486,453.1266594000044,Foils\009a.jpg,none,n,1.3932030999858398,None,,,,,,,,00048,001,2026-01-18_11h57.30.393,MST_test,2024.2.0,60.07626080566894,2026-01-18 11h57.54.757306 +0530,
87,0,88,n,1.7452620999829378,None,88,0,87,453.1409631000133,,,,,,,,,,,,,,,,,,,,,,,,,,,,,,,,,,,,,,,,,,,,,,,,,,453.12698200001614,453.1409631000133,453.6631405999942,453.62553439999465,453.6605904000171,453.6631405999942,453.6631405999942,453.6631405999942,455.4106999000069,Objects\132b.jpg,pre,n,1.7452620999829378,None,,,,,,,,00048,001,2026-01-18_11h57.30.393,MST_test,2024.2.0,60.07626080566894,2026-01-18 11h57.54.757306 +0530,
88,0,89,n,2.1251010000123642,None,89,0,88,455.4245770999987,,,,,,,,,,,,,,,,,,,,,,,,,,,,,,,,,,,,,,,,,,,,,,,,,,455.4110109000176,455.4245770999987,455.95436390000395,455.90916780001135,455.9520520000078,455.95436390000395,455.95436390000395,455.95436390000395,458.09321839999757,Foils\033a.jpg,none,n,2.1251010000123642,None,,,,,,,,00048,001,2026-01-18_11h57.30.393,MST_test,2024.2.0,60.07626080566894,2026-01-18 11h57.54.757306 +0530,
89,0,90,n,1.3437345999991521,None,90,0,89,458.107711699995,,,,,,,,,,,,,,,,,,,,,,,,,,,,,,,,,,,,,,,,,,,,,,,,,,458.09356330000446,458.107711699995,458.60805510001956,458.5924881999963,458.5981789000216,458.60805510001956,458.60805510001956,458.60805510001956,459.95946010001353,Objects\280a.jpg,pre,n,1.3437345999991521,None,,,,,,,,00048,001,2026-01-18_11h57.30.393,MST_test,2024.2.0,60.07626080566894,2026-01-18 11h57.54.757306 +0530,
90,0,91,n,1.4134933000023011,None,91,0,90,459.97435880001285,,,,,,,,,,,,,,,,,,,,,,,,,,,,,,,,,,,,,,,,,,,,,,,,,,459.95980959999724,459.97435880001285,460.4749131000135,460.4587195000204,460.4643102000118,460.4749131000135,460.4749131000135,460.4749131000135,461.8926553000056,Objects\210a.jpg,mid,n,1.4134933000023011,None,,,,,,,,00048,001,2026-01-18_11h57.30.393,MST_test,2024.2.0,60.07626080566894,2026-01-18 11h57.54.757306 +0530,
91,0,92,n,3.4710800999891944,None,92,0,91,461.90775509999366,,,,,,,,,,,,,,,,,,,,,,,,,,,,,,,,,,,,,,,,,,,,,,,,,,461.8928875999991,461.90775509999366,462.4081548000104,462.3924781999958,462.402350999997,462.4081548000104,462.4081548000104,462.4081548000104,465.8932364000066,Objects\383a.jpg,post,n,3.4710800999891944,None,,,,,,,,00048,001,2026-01-18_11h57.30.393,MST_test,2024.2.0,60.07626080566894,2026-01-18 11h57.54.757306 +0530,
92,0,93,n,1.6547623999940697,None,93,0,92,465.9078062000044,,,,,,,,,,,,,,,,,,,,,,,,,,,,,,,,,,,,,,,,,,,,,,,,,,465.8935078000068,465.9078062000044,466.4083715000015,466.3918464000162,466.40035999999964,466.4083715000015,466.4083715000015,466.4083715000015,468.07679680001456,Objects\140a.jpg,post,n,1.6547623999940697,None,,,,,,,,00048,001,2026-01-18_11h57.30.393,MST_test,2024.2.0,60.07626080566894,2026-01-18 11h57.54.757306 +0530,
93,0,94,n,2.230207299988251,None,94,0,93,468.09097660001134,,,,,,,,,,,,,,,,,,,,,,,,,,,,,,,,,,,,,,,,,,,,,,,,,,468.0772236000048,468.09097660001134,468.6185753000027,468.57583180000074,468.61565110000083,468.6185753000027,468.6185753000027,468.6185753000027,470.8601817000017,Objects\339b.jpg,pre,n,2.230207299988251,None,,,,,,,,00048,001,2026-01-18_11h57.30.393,MST_test,2024.2.0,60.07626080566894,2026-01-18 11h57.54.757306 +0530,
94,0,95,n,0.9923495999828447,None,95,0,94,470.8745436000172,,,,,,,,,,,,,,,,,,,,,,,,,,,,,,,,,,,,,,,,,,,,,,,,,,470.86047189999954,470.8745436000172,471.37512480001897,471.3587972999958,471.3680873000121,471.37512480001897,471.37512480001897,471.37512480001897,472.37628860000405,Objects\348a.jpg,post,n,0.9923495999828447,None,,,,,,,,00048,001,2026-01-18_11h57.30.393,MST_test,2024.2.0,60.07626080566894,2026-01-18 11h57.54.757306 +0530,
95,0,96,n,3.0654448000132106,None,96,0,95,472.3911624000175,,,,,,,,,,,,,,,,,,,,,,,,,,,,,,,,,,,,,,,,,,,,,,,,,,472.3766667000018,472.3911624000175,472.9417195999995,472.8755301000201,472.9380686999939,472.9417195999995,472.9417195999995,472.9417195999995,476.01005159999477,Objects\184b.jpg,mid,n,3.0654448000132106,None,,,,,,,,00048,001,2026-01-18_11h57.30.393,MST_test,2024.2.0,60.07626080566894,2026-01-18 11h57.54.757306 +0530,
96,0,97,n,1.1940844999917317,None,97,0,96,476.02445339999394,,,,,,,,,,,,,,,,,,,,,,,,,,,,,,,,,,,,,,,,,,,,,,,,,,476.01029900001595,476.02445339999394,476.6136579000158,476.50884240001324,476.61069070000667,476.6136579000158,476.6136579000158,476.6136579000158,477.8110130999994,Objects\110b.jpg,mid,n,1.1940844999917317,None,,,,,,,,00048,001,2026-01-18_11h57.30.393,MST_test,2024.2.0,60.07626080566894,2026-01-18 11h57.54.757306 +0530,
97,0,98,n,1.638563399988925,None,98,0,97,477.8243558999966,,,,,,,,,,,,,,,,,,,,,,,,,,,,,,,,,,,,,,,,,,,,,,,,,,477.8112333000172,477.8243558999966,478.36078570000245,478.30887770000845,478.3580218999996,478.36078570000245,478.36078570000245,478.36078570000245,480.00995700000203,Objects\185b.jpg,post,n,1.638563399988925,None,,,,,,,,00048,001,2026-01-18_11h57.30.393,MST_test,2024.2.0,60.07626080566894,2026-01-18 11h57.54.757306 +0530,
98,0,99,n,0.9782580999890342,None,99,0,98,480.0244429000013,,,,,,,,,,,,,,,,,,,,,,,,,,,,,,,,,,,,,,,,,,,,,,,,,,480.01028529999894,480.0244429000013,480.55830770000466,480.50877590000164,480.5550826000108,480.55830770000466,480.55830770000466,480.55830770000466,481.5433983000112,Objects\218b.jpg,mid,n,0.9782580999890342,None,,,,,,,,00048,001,2026-01-18_11h57.30.393,MST_test,2024.2.0,60.07626080566894,2026-01-18 11h57.54.757306 +0530,
99,0,100,n,1.061845499993069,None,100,0,99,481.5576898000145,,,,,,,,,,,,,,,,,,,,,,,,,,,,,,,,,,,,,,,,,,,,,,,,,,481.54375460001756,481.5576898000145,482.0581800999935,482.0422389000014,482.0500646000146,482.0581800999935,482.0581800999935,482.0581800999935,483.12652250000974,Objects\146a.jpg,pre,n,1.061845499993069,None,,,,,,,,00048,001,2026-01-18_11h57.30.393,MST_test,2024.2.0,60.07626080566894,2026-01-18 11h57.54.757306 +0530,
100,0,101,n,1.293415099993581,None,101,0,100,483.1410364000185,,,,,,,,,,,,,,,,,,,,,,,,,,,,,,,,,,,,,,,,,,,,,,,,,,483.12680240001646,483.1410364000185,483.6666262000217,483.6254440000048,483.6633225000114,483.6666262000217,483.6666262000217,483.6666262000217,484.97569180000573,Objects\047b.jpg,mid,n,1.293415099993581,None,,,,,,,,00048,001,2026-01-18_11h57.30.393,MST_test,2024.2.0,60.07626080566894,2026-01-18 11h57.54.757306 +0530,
101,0,102,n,3.2122360999928787,None,102,0,101,484.9911612000142,,,,,,,,,,,,,,,,,,,,,,,,,,,,,,,,,,,,,,,,,,,,,,,,,,484.9758965000219,484.9911612000142,485.491560399998,485.47545060000266,485.48142490000464,485.491560399998,485.491560399998,485.491560399998,488.70980179999606,Objects\122a.jpg,post,n,3.2122360999928787,None,,,,,,,,00048,001,2026-01-18_11h57.30.393,MST_test,2024.2.0,60.07626080566894,2026-01-18 11h57.54.757306 +0530,
102,0,103,n,2.1432967000000644,None,103,0,102,488.72440020000795,,,,,,,,,,,,,,,,,,,,,,,,,,,,,,,,,,,,,,,,,,,,,,,,,,488.7100614999945,488.72440020000795,489.2568601999956,489.20895420000306,489.25405720001436,489.2568601999956,489.2568601999956,489.2568601999956,491.4099605999945,Objects\235b.jpg,mid,n,2.1432967000000644,None,,,,,,,,00048,001,2026-01-18_11h57.30.393,MST_test,2024.2.0,60.07626080566894,2026-01-18 11h57.54.757306 +0530,
103,0,104,n,1.4663960000034422,None,104,0,103,491.42444430000614,,,,,,,,,,,,,,,,,,,,,,,,,,,,,,,,,,,,,,,,,,,,,,,,,,491.41024409999955,491.42444430000614,491.92479750001803,491.90869199999725,491.91432080001687,491.92479750001803,491.92479750001803,491.92479750001803,493.3933301999932,Objects\353a.jpg,mid,n,1.4663960000034422,None,,,,,,,,00048,001,2026-01-18_11h57.30.393,MST_test,2024.2.0,60.07626080566894,2026-01-18 11h57.54.757306 +0530,
104,0,105,n,2.536276300001191,None,105,0,104,493.4080797000206,,,,,,,,,,,,,,,,,,,,,,,,,,,,,,,,,,,,,,,,,,,,,,,,,,493.39365250000264,493.4080797000206,493.9432259000023,493.8922487999953,493.9403375000111,493.9432259000023,493.9432259000023,493.9432259000023,496.49311750000925,Objects\292b.jpg,pre,n,2.536276300001191,None,,,,,,,,00048,001,2026-01-18_11h57.30.393,MST_test,2024.2.0,60.07626080566894,2026-01-18 11h57.54.757306 +0530,
105,0,106,n,2.049532699980773,None,106,0,105,496.5077132000006,,,,,,,,,,,,,,,,,,,,,,,,,,,,,,,,,,,,,,,,,,,,,,,,,,496.49341610001284,496.5077132000006,497.03134590000263,496.99226290002116,497.02835390000837,497.03134590000263,497.03134590000263,497.03134590000263,499.0929044999939,Objects\232b.jpg,post,n,2.049532699980773,None,,,,,,,,00048,001,2026-01-18_11h57.30.393,MST_test,2024.2.0,60.07626080566894,2026-01-18 11h57.54.757306 +0530,
106,0,107,n,1.9442293000174686,None,107,0,106,499.1078594000137,,,,,,,,,,,,,,,,,,,,,,,,,,,,,,,,,,,,,,,,,,,,,,,,,,499.0932298999978,499.1078594000137,499.6081836000085,499.5922622999933,499.60079339999356,499.6081836000085,499.6081836000085,499.6081836000085,501.5599233999965,Objects\147a.jpg,mid,n,1.9442293000174686,None,,,,,,,,00048,001,2026-01-18_11h57.30.393,MST_test,2024.2.0,60.07626080566894,2026-01-18 11h57.54.757306 +0530,
107,0,108,n,1.2736163999943528,None,108,0,107,501.574342900014,,,,,,,,,,,,,,,,,,,,,,,,,,,,,,,,,,,,,,,,,,,,,,,,,,501.56024720001733,501.574342900014,502.1019171999942,502.0588507000066,502.099089299998,502.1019171999942,502.1019171999942,502.1019171999942,503.39287840001634,Foils\049a.jpg,none,n,1.2736163999943528,None,,,,,,,,00048,001,2026-01-18_11h57.30.393,MST_test,2024.2.0,60.07626080566894,2026-01-18 11h57.54.757306 +0530,
108,0,109,n,2.288452699984191,None,109,0,108,503.40758719999576,,,,,,,,,,,,,,,,,,,,,,,,,,,,,,,,,,,,,,,,,,,,,,,,,,503.39318210000056,503.40758719999576,503.9437609000015,503.8922628000146,503.9406179000216,503.9437609000015,503.9437609000015,503.9437609000015,506.24280490001547,Objects\270b.jpg,pre,n,2.288452699984191,None,,,,,,,,00048,001,2026-01-18_11h57.30.393,MST_test,2024.2.0,60.07626080566894,2026-01-18 11h57.54.757306 +0530,
109,0,110,n,2.1619178999972064,None,110,0,109,506.25763410000945,,,,,,,,,,,,,,,,,,,,,,,,,,,,,,,,,,,,,,,,,,,,,,,,,,506.2430507999961,506.25763410000945,506.75844000000507,506.74222440001904,506.7508611000085,506.75844000000507,506.75844000000507,506.75844000000507,508.92623800001456,Objects\051a.jpg,mid,n,2.1619178999972064,None,,,,,,,,00048,001,2026-01-18_11h57.30.393,MST_test,2024.2.0,60.07626080566894,2026-01-18 11h57.54.757306 +0530,
110,0,111,n,1.6273723999911454,None,111,0,110,508.9411850000033,,,,,,,,,,,,,,,,,,,,,,,,,,,,,,,,,,,,,,,,,,,,,,,,,,508.9265329000191,508.9411850000033,509.47746690001804,509.4253857000149,509.4747289000079,509.47746690001804,509.47746690001804,509.47746690001804,511.1096091000072,Objects\263b.jpg,pre,n,1.6273723999911454,None,,,,,,,,00048,001,2026-01-18_11h57.30.393,MST_test,2024.2.0,60.07626080566894,2026-01-18 11h57.54.757306 +0530,
111,0,112,n,1.3372302000061609,None,112,0,111,511.1243623000046,,,,,,,,,,,,,,,,,,,,,,,,,,,,,,,,,,,,,,,,,,,,,,,,,,511.1100710000028,511.1243623000046,511.65398990001995,511.60911610000767,511.65040110002155,511.65398990001995,511.65398990001995,511.65398990001995,512.9931241000013,Objects\063b.jpg,pre,n,1.3372302000061609,None,,,,,,,,00048,001,2026-01-18_11h57.30.393,MST_test,2024.2.0,60.07626080566894,2026-01-18 11h57.54.757306 +0530,
112,0,113,n,1.3186342999979388,None,113,0,112,513.0076991000096,,,,,,,,,,,,,,,,,,,,,,,,,,,,,,,,,,,,,,,,,,,,,,,,,,512.9935321999947,513.0076991000096,513.5375979999953,513.492032900016,513.5347669000039,513.5375979999953,513.5375979999953,513.5375979999953,514.8600890999951,Foils\121a.jpg,none,n,1.3186342999979388,None,,,,,,,,00048,001,2026-01-18_11h57.30.393,MST_test,2024.2.0,60.07626080566894,2026-01-18 11h57.54.757306 +0530,
113,0,114,n,1.5193064000050072,None,114,0,113,514.8742569000169,,,,,,,,,,,,,,,,,,,,,,,,,,,,,,,,,,,,,,,,,,,,,,,,,,514.8604635999945,514.8742569000169,515.3999889999977,515.3586942999973,515.3974785000028,515.3999889999977,515.3999889999977,515.3999889999977,516.9266010000138,Objects\045b.jpg,pre,n,1.5193064000050072,None,,,,,,,,00048,001,2026-01-18_11h57.30.393,MST_test,2024.2.0,60.07626080566894,2026-01-18 11h57.54.757306 +0530,
114,0,115,n,1.5027586999931373,None,115,0,114,516.9408054999949,,,,,,,,,,,,,,,,,,,,,,,,,,,,,,,,,,,,,,,,,,,,,,,,,,516.9269216000102,516.9408054999949,517.4414915000089,517.4255766000133,517.4316552999953,517.4414915000089,517.4414915000089,517.4414915000089,518.9596330000204,Objects\306a.jpg,mid,n,1.5027586999931373,None,,,,,,,,00048,001,2026-01-18_11h57.30.393,MST_test,2024.2.0,60.07626080566894,2026-01-18 11h57.54.757306 +0530,
115,0,116,n,1.303842599998461,None,116,0,115,518.974366600014,,,,,,,,,,,,,,,,,,,,,,,,,,,,,,,,,,,,,,,,,,,,,,,,,,518.9599323000002,518.974366600014,519.5041141000111,519.4588404000096,519.4998597000085,519.5041141000111,519.5041141000111,519.5041141000111,520.810617900017,Foils\065a.jpg,none,n,1.303842599998461,None,,,,,,,,00048,001,2026-01-18_11h57.30.393,MST_test,2024.2.0,60.07626080566894,2026-01-18 11h57.54.757306 +0530,
116,0,117,n,1.5353832000109833,None,117,0,116,520.8244398999959,,,,,,,,,,,,,,,,,,,,,,,,,,,,,,,,,,,,,,,,,,,,,,,,,,520.8110180000076,520.8244398999959,521.3850744999945,521.308978200017,521.3819840000069,521.3850744999945,521.3850744999945,521.3850744999945,522.9262987000111,Objects\324b.jpg,post,n,1.5353832000109833,None,,,,,,,,00048,001,2026-01-18_11h57.30.393,MST_test,2024.2.0,60.07626080566894,2026-01-18 11h57.54.757306 +0530,
117,0,118,n,1.1109254000184592,None,118,0,117,522.9410591000051,,,,,,,,,,,,,,,,,,,,,,,,,,,,,,,,,,,,,,,,,,,,,,,,,,522.9265589000133,522.9410591000051,523.4415135000017,523.4254967000161,523.4329445000039,523.4415135000017,523.4415135000017,523.4415135000017,524.5600568999944,Objects\285a.jpg,post,n,1.1109254000184592,None,,,,,,,,00048,001,2026-01-18_11h57.30.393,MST_test,2024.2.0,60.07626080566894,2026-01-18 11h57.54.757306 +0530,
118,0,119,n,1.4063575000036508,None,119,0,118,524.5742753999948,,,,,,,,,,,,,,,,,,,,,,,,,,,,,,,,,,,,,,,,,,,,,,,,,,524.5603484000021,524.5742753999948,525.1211053000006,525.0589209000173,525.1176378999953,525.1211053000006,525.1211053000006,525.1211053000006,526.542840900016,Objects\207b.jpg,post,n,1.4063575000036508,None,,,,,,,,00048,001,2026-01-18_11h57.30.393,MST_test,2024.2.0,60.07626080566894,2026-01-18 11h57.54.757306 +0530,
119,0,120,n,1.3696962000103667,None,120,0,119,526.5578287999961,,,,,,,,,,,,,,,,,,,,,,,,,,,,,,,,,,,,,,,,,,,,,,,,,,526.5432767000166,526.5578287999961,527.0937623000063,527.042254,527.0909190000093,527.0937623000063,527.0937623000063,527.0937623000063,528.476367700001,Objects\027b.jpg,post,n,1.3696962000103667,None,,,,,,,,00048,001,2026-01-18_11h57.30.393,MST_test,2024.2.0,60.07626080566894,2026-01-18 11h57.54.757306 +0530,
120,0,121,n,1.3231715000001714,None,121,0,120,528.4910210999951,,,,,,,,,,,,,,,,,,,,,,,,,,,,,,,,,,,,,,,,,,,,,,,,,,528.4766177000129,528.4910210999951,529.0205783999991,528.9754860000103,529.0181998000189,529.0205783999991,529.0205783999991,529.0205783999991,530.3596131000086,Foils\090a.jpg,none,n,1.3231715000001714,None,,,,,,,,00048,001,2026-01-18_11h57.30.393,MST_test,2024.2.0,60.07626080566894,2026-01-18 11h57.54.757306 +0530,
121,0,122,s,1.8846183999849018,None,122,0,121,530.3745386000082,,,,,,,,,,,,,,,,,,,,,,,,,,,,,,,,,,,,,,,,,,,,,,,,,,530.3600408000057,530.3745386000082,530.8745853000146,530.8587342000101,530.8643583999947,530.8745853000146,530.8745853000146,530.8745853000146,532.7763065000181,Objects\225a.jpg,pre,s,1.8846183999849018,None,,,,,,,,00048,001,2026-01-18_11h57.30.393,MST_test,2024.2.0,60.07626080566894,2026-01-18 11h57.54.757306 +0530,
122,0,123,n,1.2282354999915697,None,123,0,122,532.7914794000098,,,,,,,,,,,,,,,,,,,,,,,,,,,,,,,,,,,,,,,,,,,,,,,,,,532.7765553000208,532.7914794000098,533.2916622000048,533.2754868000047,533.281461000006,533.2916622000048,533.2916622000048,533.2916622000048,534.5265309000097,Objects\300a.jpg,mid,n,1.2282354999915697,None,,,,,,,,00048,001,2026-01-18_11h57.30.393,MST_test,2024.2.0,60.07626080566894,2026-01-18 11h57.54.757306 +0530,
123,0,124,n,1.1791255999996793,None,124,0,123,534.5409711000102,,,,,,,,,,,,,,,,,,,,,,,,,,,,,,,,,,,,,,,,,,,,,,,,,,534.5269372000184,534.5409711000102,535.0691559000115,535.0257305999985,535.0665244999982,535.0691559000115,535.0691559000115,535.0691559000115,536.2596108000143,Objects\335b.jpg,post,n,1.1791255999996793,None,,,,,,,,00048,001,2026-01-18_11h57.30.393,MST_test,2024.2.0,60.07626080566894,2026-01-18 11h57.54.757306 +0530,
124,0,125,n,2.7554386000265367,None,125,0,124,536.2743374000129,,,,,,,,,,,,,,,,,,,,,,,,,,,,,,,,,,,,,,,,,,,,,,,,,,536.2599368999945,536.2743374000129,536.8041774000158,536.7588638000016,536.8001304000209,536.8041774000158,536.8041774000158,536.8041774000158,539.5763429000217,Foils\034a.jpg,none,n,2.7554386000265367,None,,,,,,,,00048,001,2026-01-18_11h57.30.393,MST_test,2024.2.0,60.07626080566894,2026-01-18 11h57.54.757306 +0530,
125,0,126,s,1.4727825000009034,None,126,0,125,539.5911141000106,,,,,,,,,,,,,,,,,,,,,,,,,,,,,,,,,,,,,,,,,,,,,,,,,,539.5767203000141,539.5911141000106,540.118438400008,540.0754538000037,540.1158604999946,540.118438400008,540.118438400008,540.118438400008,541.5938472000125,Foils\066a.jpg,none,s,1.4727825000009034,None,,,,,,,,00048,001,2026-01-18_11h57.30.393,MST_test,2024.2.0,60.07626080566894,2026-01-18 11h57.54.757306 +0530,
126,0,127,n,2.5786309000104666,None,127,0,126,541.6075921000156,,,,,,,,,,,,,,,,,,,,,,,,,,,,,,,,,,,,,,,,,,,,,,,,,,541.5941028000088,541.6075921000156,542.1331298000005,542.092226800014,542.1292699000041,542.1331298000005,542.1331298000005,542.1331298000005,544.7256435000163,Objects\299b.jpg,post,n,2.5786309000104666,None,,,,,,,,00048,001,2026-01-18_11h57.30.393,MST_test,2024.2.0,60.07626080566894,2026-01-18 11h57.54.757306 +0530,
127,0,128,n,1.28981859999476,None,128,0,127,544.7411515999993,,,,,,,,,,,,,,,,,,,,,,,,,,,,,,,,,,,,,,,,,,,,,,,,,,544.7258108000096,544.7411515999993,545.270093900006,545.2255576000025,545.2666851000104,545.270093900006,545.270093900006,545.270093900006,546.5763442000025,Foils\106a.jpg,none,n,1.28981859999476,None,,,,,,,,00048,001,2026-01-18_11h57.30.393,MST_test,2024.2.0,60.07626080566894,2026-01-18 11h57.54.757306 +0530,
128,0,129,n,2.6826935000135563,None,129,0,128,546.5911182000127,,,,,,,,,,,,,,,,,,,,,,,,,,,,,,,,,,,,,,,,,,,,,,,,,,546.5767023999942,546.5911182000127,547.1083796000166,547.0753557000135,547.105664200004,547.1083796000166,547.1083796000166,547.1083796000166,549.7934675000142,Objects\038b.jpg,pre,n,2.6826935000135563,None,,,,,,,,00048,001,2026-01-18_11h57.30.393,MST_test,2024.2.0,60.07626080566894,2026-01-18 11h57.54.757306 +0530,
129,0,130,s,5.02782830002252,None,130,0,129,549.8076144999941,,,,,,,,,,,,,,,,,,,,,,,,,,,,,,,,,,,,,,,,,,,,,,,,,,549.7938852999941,549.8076144999941,550.3486161000037,550.2921518000076,550.3453136000026,550.3486161000037,550.3486161000037,550.3486161000037,555.3930548000208,Objects\244b.jpg,pre,s,5.02782830002252,None,,,,,,,,00048,001,2026-01-18_11h57.30.393,MST_test,2024.2.0,60.07626080566894,2026-01-18 11h57.54.757306 +0530,
130,0,131,s,2.2347464000049513,None,131,0,130,555.407724699995,,,,,,,,,,,,,,,,,,,,,,,,,,,,,,,,,,,,,,,,,,,,,,,,,,555.3934318000101,555.407724699995,555.9084162999934,555.8923474000185,555.900215600006,555.9084162999934,555.9084162999934,555.9084162999934,558.1592785000103,Objects\344a.jpg,post,s,2.2347464000049513,None,,,,,,,,00048,001,2026-01-18_11h57.30.393,MST_test,2024.2.0,60.07626080566894,2026-01-18 11h57.54.757306 +0530,
131,0,132,n,4.009119099995587,None,132,0,131,558.1743343000126,,,,,,,,,,,,,,,,,,,,,,,,,,,,,,,,,,,,,,,,,,,,,,,,,,558.159672800015,558.1743343000126,558.7432580000022,558.6590644000098,558.7004959000042,558.7432580000022,558.7432580000022,558.7432580000022,562.7594504000153,Foils\026a.jpg,none,n,4.009119099995587,None,,,,,,,,00048,001,2026-01-18_11h57.30.393,MST_test,2024.2.0,60.07626080566894,2026-01-18 11h57.54.757306 +0530,
132,0,133,s,1.671122200001264,None,133,0,132,562.7743404000066,,,,,,,,,,,,,,,,,,,,,,,,,,,,,,,,,,,,,,,,,,,,,,,,,,562.7597236000001,562.7743404000066,563.3041868,563.2586422000022,563.3019284000038,563.3041868,563.3041868,563.3041868,564.9928899999941,Objects\026b.jpg,pre,s,1.671122200001264,None,,,,,,,,00048,001,2026-01-18_11h57.30.393,MST_test,2024.2.0,60.07626080566894,2026-01-18 11h57.54.757306 +0530,
133,0,134,n,2.0164720000175294,None,134,0,133,565.0076927000191,,,,,,,,,,,,,,,,,,,,,,,,,,,,,,,,,,,,,,,,,,,,,,,,,,564.9932394000061,565.0076927000191,565.5273023000045,565.4921930000128,565.5249336000124,565.5273023000045,565.5273023000045,565.5273023000045,567.5592967999983,Objects\168b.jpg,mid,n,2.0164720000175294,None,,,,,,,,00048,001,2026-01-18_11h57.30.393,MST_test,2024.2.0,60.07626080566894,2026-01-18 11h57.54.757306 +0530,
134,0,135,n,1.275867099990137,None,135,0,134,567.574290300021,,,,,,,,,,,,,,,,,,,,,,,,,,,,,,,,,,,,,,,,,,,,,,,,,,567.5595924000081,567.574290300021,568.0996588999988,568.0586791000096,568.097398700018,568.0996588999988,568.0996588999988,568.0996588999988,569.3929561999976,Objects\010b.jpg,pre,n,1.275867099990137,None,,,,,,,,00048,001,2026-01-18_11h57.30.393,MST_test,2024.2.0,60.07626080566894,2026-01-18 11h57.54.757306 +0530,
135,0,136,n,1.4398359000042547,None,136,0,135,569.4076632999931,,,,,,,,,,,,,,,,,,,,,,,,,,,,,,,,,,,,,,,,,,,,,,,,,,569.39328020002,569.4076632999931,569.9512924000155,569.892416000017,569.9483989000146,569.9512924000155,569.9512924000155,569.9512924000155,571.3933674000145,Objects\031b.jpg,pre,n,1.4398359000042547,None,,,,,,,,00048,001,2026-01-18_11h57.30.393,MST_test,2024.2.0,60.07626080566894,2026-01-18 11h57.54.757306 +0530,
136,0,137,n,1.2833986000041477,None,137,0,136,571.4079410000122,,,,,,,,,,,,,,,,,,,,,,,,,,,,,,,,,,,,,,,,,,,,,,,,,,571.3937277999939,571.4079410000122,571.908006600017,571.8920834000164,571.9002326000191,571.908006600017,571.908006600017,571.908006600017,573.193591200019,Objects\334a.jpg,mid,n,1.2833986000041477,None,,,,,,,,00048,001,2026-01-18_11h57.30.393,MST_test,2024.2.0,60.07626080566894,2026-01-18 11h57.54.757306 +0530,
137,0,138,n,1.3967500999860931,None,138,0,137,573.2077962000039,,,,,,,,,,,,,,,,,,,,,,,,,,,,,,,,,,,,,,,,,,,,,,,,,,573.1939339000091,573.2077962000039,573.7474076999933,573.6921557000023,573.7442617000197,573.7474076999933,573.7474076999933,573.7474076999933,575.1595118000114,Objects\007b.jpg,mid,n,1.3967500999860931,None,,,,,,,,00048,001,2026-01-18_11h57.30.393,MST_test,2024.2.0,60.07626080566894,2026-01-18 11h57.54.757306 +0530,
138,0,139,n,0.9811402999912389,None,139,0,138,575.1744272000215,,,,,,,,,,,,,,,,,,,,,,,,,,,,,,,,,,,,,,,,,,,,,,,,,,575.1599439000129,575.1744272000215,575.6746261999942,575.6587379999983,575.6648939000152,575.6746261999942,575.6746261999942,575.6746261999942,576.6593711000169,Objects\242a.jpg,mid,n,0.9811402999912389,None,,,,,,,,00048,001,2026-01-18_11h57.30.393,MST_test,2024.2.0,60.07626080566894,2026-01-18 11h57.54.757306 +0530,
139,0,140,n,3.0298214000067674,None,140,0,139,576.6743226000108,,,,,,,,,,,,,,,,,,,,,,,,,,,,,,,,,,,,,,,,,,,,,,,,,,576.6596053999965,576.6743226000108,577.2027611999947,577.1591375000135,577.1994516999985,577.2027611999947,577.2027611999947,577.2027611999947,580.2428241000162,Objects\156b.jpg,mid,n,3.0298214000067674,None,,,,,,,,00048,001,2026-01-18_11h57.30.393,MST_test,2024.2.0,60.07626080566894,2026-01-18 11h57.54.757306 +0530,
140,0,141,n,1.6106606000103056,None,141,0,140,580.2576622000197,,,,,,,,,,,,,,,,,,,,,,,,,,,,,,,,,,,,,,,,,,,,,,,,,,580.2430695999938,580.2576622000197,580.7578945000132,580.7419166000036,580.7471751999983,580.7578945000132,580.7578945000132,580.7578945000132,582.3768644999946,Objects\342a.jpg,post,n,1.6106606000103056,None,,,,,,,,00048,001,2026-01-18_11h57.30.393,MST_test,2024.2.0,60.07626080566894,2026-01-18 11h57.54.757306 +0530,
141,0,142,n,0.9215428000024986,None,142,0,141,582.3911216999986,,,,,,,,,,,,,,,,,,,,,,,,,,,,,,,,,,,,,,,,,,,,,,,,,,582.3772509999981,582.3911216999986,582.9256391999952,582.8754472,582.9216527999961,582.9256391999952,582.9256391999952,582.9256391999952,583.8592657000117,Objects\170b.jpg,mid,n,0.9215428000024986,None,,,,,,,,00048,001,2026-01-18_11h57.30.393,MST_test,2024.2.0,60.07626080566894,2026-01-18 11h57.54.757306 +0530,
142,0,143,n,1.0810841000056826,None,143,0,142,583.8744154000015,,,,,,,,,,,,,,,,,,,,,,,,,,,,,,,,,,,,,,,,,,,,,,,,,,583.8595399000042,583.8744154000015,584.3746711999993,584.3588767000183,584.364562600007,584.3746711999993,584.3746711999993,584.3746711999993,585.4598399999959,Objects\260a.jpg,mid,n,1.0810841000056826,None,,,,,,,,00048,001,2026-01-18_11h57.30.393,MST_test,2024.2.0,60.07626080566894,2026-01-18 11h57.54.757306 +0530,
143,0,144,n,0.9479117000009865,None,144,0,143,585.474265900004,,,,,,,,,,,,,,,,,,,,,,,,,,,,,,,,,,,,,,,,,,,,,,,,,,585.4601282000076,585.474265900004,585.9964178999944,585.958887100016,585.9935989000078,585.9964178999944,585.9964178999944,585.9964178999944,586.9594592000067,Foils\101b.jpg,none,n,0.9479117000009865,None,,,,,,,,00048,001,2026-01-18_11h57.30.393,MST_test,2024.2.0,60.07626080566894,2026-01-18 11h57.54.757306 +0530,
144,0,145,n,1.083321900019655,None,145,0,144,586.9744525999995,,,,,,,,,,,,,,,,,,,,,,,,,,,,,,,,,,,,,,,,,,,,,,,,,,586.9597040000081,586.9744525999995,587.5164973000064,587.4585430000152,587.5136095000198,587.5164973000064,587.5164973000064,587.5164973000064,588.6106121000194,Objects\058b.jpg,mid,n,1.083321900019655,None,,,,,,,,00048,001,2026-01-18_11h57.30.393,MST_test,2024.2.0,60.07626080566894,2026-01-18 11h57.54.757306 +0530,
145,0,146,n,0.8723034999857191,None,146,0,145,588.6243788000138,,,,,,,,,,,,,,,,,,,,,,,,,,,,,,,,,,,,,,,,,,,,,,,,,,588.6110240000125,588.6243788000138,589.1514520000201,589.1087908000045,589.1482456999947,589.1514520000201,589.1514520000201,589.1514520000201,590.0263638000179,Objects\265b.jpg,post,n,0.8723034999857191,None,,,,,,,,00048,001,2026-01-18_11h57.30.393,MST_test,2024.2.0,60.07626080566894,2026-01-18 11h57.54.757306 +0530,
146,0,147,s,1.7887391000112984,None,147,0,146,590.0408700999978,,,,,,,,,,,,,,,,,,,,,,,,,,,,,,,,,,,,,,,,,,,,,,,,,,590.026694900007,590.0408700999978,590.5956410999934,590.5258901000198,590.5926627000154,590.5956410999934,590.5956410999934,590.5956410999934,592.3933678000176,Objects\204b.jpg,post,s,1.7887391000112984,None,,,,,,,,00048,001,2026-01-18_11h57.30.393,MST_test,2024.2.0,60.07626080566894,2026-01-18 11h57.54.757306 +0530,
147,0,148,n,5.091127099993173,None,148,0,147,592.4076867999975,,,,,,,,,,,,,,,,,,,,,,,,,,,,,,,,,,,,,,,,,,,,,,,,,,592.3937582999934,592.4076867999975,592.9487152000074,592.8920604000159,592.9462402000208,592.9487152000074,592.9487152000074,592.9487152000074,598.0431640000024,Objects\107b.jpg,post,n,5.091127099993173,None,,,,,,,,00048,001,2026-01-18_11h57.30.393,MST_test,2024.2.0,60.07626080566894,2026-01-18 11h57.54.757306 +0530,
148,0,149,n,2.2103700999869034,None,149,0,148,598.0577040000062,,,,,,,,,,,,,,,,,,,,,,,,,,,,,,,,,,,,,,,,,,,,,,,,,,598.0434639000159,598.0577040000062,598.5889133000164,598.542429699999,598.5857551000081,598.5889133000164,598.5889133000164,598.5889133000164,600.809854000021,Objects\066b.jpg,mid,n,2.2103700999869034,None,,,,,,,,00048,001,2026-01-18_11h57.30.393,MST_test,2024.2.0,60.07626080566894,2026-01-18 11h57.54.757306 +0530,
149,0,150,n,1.371706500009168,None,150,0,149,600.8244331000024,,,,,,,,,,,,,,,,,,,,,,,,,,,,,,,,,,,,,,,,,,,,,,,,,,600.8101957000035,600.8244331000024,601.3245076000167,601.30989460001,601.3155737000052,601.3245076000167,601.3245076000167,601.3245076000167,602.7091287999938,Objects\030a.jpg,post,n,1.371706500009168,None,,,,,,,,00048,001,2026-01-18_11h57.30.393,MST_test,2024.2.0,60.07626080566894,2026-01-18 11h57.54.757306 +0530,
,,,,,,,,,,,,,,,,,,,,,,,,,,,,,,,,,,,,,,,,,,,,,,,,,,,,,,,,,,,,,,,,,,,,,,,,,602.7092762000102,602.7244338000019,602.7244338000019,604.8431853000075,space,2.1160152000084054,None,00048,001,2026-01-18_11h57.30.393,MST_test,2024.2.0,60.07626080566894,2026-01-18 11h57.54.757306 +0530,
